UUID,iqrAccX,iqrAccY,iqrAccZ,iqrAccXYZ,meanAccX,meanAccY,meanAccZ,meanAccXYZ, covarianceAccXY, covarianceAccXZ, covarianceAccYZ,pressureDerivative, pressureIQR, iqrGyroX, iqrGyroY, iqrGyroZ, iqrGyroMagnitude, meanGyroX, meanGyroY, meanGyroZ, meanGyroMagnitude, covarianceGyroXY, covarianceGyroXZ, covarianceGyroYZ, class, timestamp 
903d185fccf839df,-0.4782563101379935,-0.8146673243761191,-0.6412880213436132,-0.5910383396544377,-1.1791792160430847,-1.514565004789032,1.87105099244397,-0.6716910497720477,-0.16535949651316198,-0.8942496844690425,-0.016336510458037367,0.24904673174088585,-0.7760730002228164,-0.5132507905325184,-0.8697060650280812,0.3648730256398277,-0.5332552389552453,-0.5335284993916203,-0.8237176642896367,-0.10895903234794366,-0.6198121775646841,-0.366556555726614,-0.4730949802142423,-0.45788216697258466,undefined,1495702699140
903d185fccf839df,-0.8580243506613217,-0.54992326794345,-0.373004030356661,-0.44586485956895805,-1.4305653255309305,-1.585317275180631,1.8950447971027058,-0.6079694654931431,-0.31823894290110094,-0.7051378563817248,-0.11219386645989454,0.19470500543030209,-0.8565828319964349,-0.6299058506224812,-0.9728640799465857,-0.15240258272392443,-0.6994417885741854,-0.6842342718184472,-0.9315174683971907,-0.3578241175838271,-0.7852107823360829,-0.38587177967884584,-0.4900350211690717,-0.3850767787651852,undefined,1495702700630
903d185fccf839df,-0.4075695456654658,-0.434281254857552,-0.08462263527235696,-0.23178025690837212,-1.1059991095811128,-1.591697816900423,1.838615016201806,-0.9245077175965147,-0.4228042575479174,-0.6207385465236317,-0.049580265275175256,0.12970987979084034,-0.7347301136363636,-0.6873075427458677,-0.8654955299004264,-0.15240258272392443,-0.7502900453702,-0.758025156258979,-0.9190666738855782,-0.285102478127697,-0.7971143574719415,-0.412357556681041,-0.5496029333253917,-0.3807963042509184,undefined,1495702702121
903d185fccf839df,-0.26481007243301413,-0.14546958350190597,0.3071162571424438,0.31751394956745027,-0.9431687639603303,-1.6185870759860623,1.8341206246932056,-0.9381964872686762,-0.4136491272987325,-0.42268399229815246,-0.055453683414958085,0.05196539088579056,-0.6128773952762924,-0.6058342071195364,-0.7602322253313931,0.11835894979005149,-0.6247118606479652,-0.7022259808150225,-0.8201632574401516,-0.09122373528684284,-0.7013862627406726,-0.37962797996393766,-0.5510179314030134,-0.33246544645295706,undefined,1495702703622
903d185fccf839df,-0.23154568426501662,-0.24584923586464025,0.11379834590725434,0.03232622215262147,-0.9021082619769185,-1.6815184600361546,1.8877292128193037,-0.7015510244352653,-0.3626388585260302,-0.4978035998738708,-0.0038742669449750456,0.009759049465330426,-0.7347301136363636,-0.5771333351562941,-0.8107586247765499,-0.1705880480308273,-0.7622872849260168,-0.7058954869566937,-0.8716225450931451,-0.22443155077407106,-0.7396707864472578,-0.4005444000849362,-0.5828304684644012,-0.3603586558323175,undefined,1495702705075
903d185fccf839df,-0.48795838597279895,-0.174820304179983,0.013630775565920164,-0.029491452850063715,-1.0536062846361725,-1.658400763593631,1.865104992147361,-0.787127324444492,-0.13783610149031061,-0.7898110660694455,-0.053473222766835145,-0.057806700061975004,-0.7521376448306596,-0.5299158083673521,-0.6444426344788592,-0.2797008540046053,-0.7269088590451117,-0.5760596442716732,-0.6560720836066554,-0.16407006798862944,-0.5908739807585666,0.15030116780847874,-0.4640307390740959,-0.16813746963321077,undefined,1495702706593
903d185fccf839df,-0.5059766278604232,-0.5317258030016869,0.22545036499303195,0.15154832407813953,-0.9792509745194616,-1.578540467693128,1.8192148787583462,-0.984917146592869,-0.13290023403234927,-0.7933148839101605,-0.060080832669781745,0.037122814160345616,-0.9262129567736186,-0.5512099834332234,-0.7023374225428923,-0.2291856631749679,-0.8098992493968147,-0.5720192253030205,-0.6700936921386197,-0.2254482710528845,-0.609738795424257,0.16483757906162763,-0.44420156239606123,-0.1604699535754871,undefined,1495702708189
903d185fccf839df,-0.46855416529236865,-0.5117672346095751,-0.03613381359627113,-0.07455548551803237,-0.9253230724667297,-1.4631942136273146,1.8273620203639396,-0.766982268784474,-0.38543098702915946,-0.6006031392947596,-0.002748924920661103,0.010123820934985135,-0.8000083556149733,-0.6363867290244193,-0.8612849874105377,-0.35042211268668116,-0.924101751038931,-0.6423718959618413,-0.7387533980360858,-0.35113038104883726,-0.6942878848263775,0.19572698073926428,-0.41019680107011225,-0.20459576419259806,undefined,1495702709618
903d185fccf839df,-0.5697332395783478,-0.5663597463468335,-0.2600757355108791,-0.2453579498662393,-1.0725525438404016,-1.3617022706981967,1.7748290202831891,-0.9356280266974787,-0.35011879178632405,-0.502791784061578,0.03406132899623247,-0.07785039604754254,-0.6607481060606061,-0.6965658960602666,-0.9012850343120898,-0.48378221986869047,-0.9091569435807167,-0.6977281560479646,-0.7570920383406586,-0.41139989722564274,-0.7425778877634812,0.12486587315052644,-0.4180416885508032,-0.21767516861752642,undefined,1495702711077
903d185fccf839df,-0.529538853930091,-0.5041360396339971,-0.15161415168816283,-0.22878278442220235,-1.2173648721109134,-1.3958582361654022,1.829473761449182,-0.6840208597097199,-0.3859490558117654,-0.5549915417669797,-0.0023241147343636766,-0.06640486953907437,-0.13852217023172905,-0.8122951311794091,-1.0297062599965234,-0.47569976728946567,-1.0578106321306908,-0.8518403412788712,-0.9859087417124234,-0.41780564746189147,-0.8940134462890938,-0.438800695049718,-0.6087276731317303,-0.5353561648993199,undefined,1495702712582
903d185fccf839df,-0.40479751906903433,-0.4160836730038196,-0.24922967878338723,-0.3108452898765499,-1.0323457506541258,-1.3284057974937145,1.7922041480040858,-0.7074336219563386,-0.32506621805736785,-0.5873369480638294,-0.003720289443398451,-0.06668950968429706,-0.6172292780748664,-0.8011851343987569,-1.0433904733935835,-0.44741124685780237,-1.1024372494801993,-0.8493324963632938,-1.0013297123585527,-0.5274117823774181,-0.9147797332222557,-0.4403697527111078,-0.6586153596939698,-0.5486911415648553,undefined,1495702714073
903d185fccf839df,-0.35490104033326725,-0.4606969297730144,-0.16373597590176014,-0.2914179671148375,-1.0252074774495694,-1.3245346010392929,1.7494356118501795,-0.978092286368387,-0.33902949390541787,-0.5306510504886555,-0.0017487980451272732,-0.05580589518274428,-0.7869527072192514,-0.7984076271093599,-1.076022102227324,-0.45549369943702717,-1.0821809850194324,-0.8529296084551025,-1.0121327881441622,-0.5436725410379429,-0.9245877127503136,-0.4454597811710923,-0.644246938136035,-0.5403981552981864,undefined,1495702716632
903d185fccf839df,-0.35490104033326725,-0.4741982747298063,-0.15927028142649216,-0.28955047522135857,-1.0211446269733364,-1.3213109338494264,1.7577957659650447,-0.9172931243338621,-0.33261071861800906,-0.5066031153572769,-0.0035024584695298303,-0.03335618253906612,-0.7869527072192514,-0.7956301392461246,-1.077074732328121,-0.45549369943702717,-1.0802738726626804,-0.8489145223352725,-1.01144010384902,-0.5421942902750995,-0.9221673080207665,-0.44669327926369606,-0.6447202788359437,-0.5409622780022815,undefined,1495702717678
903d185fccf839df,-0.35490104033326725,-0.49063469467720516,-0.18606648137369544,-0.3393246222834555,-1.021792625768729,-1.3208823537862258,1.7620823498008749,-0.8888508928711812,-0.3325043009684988,-0.5087469739565775,-0.006763780806250918,-0.003222726561879609,-0.7869527072192514,-0.7956301392461246,-1.077074732328121,-0.45549369943702717,-1.0833928766069332,-0.8490981777074537,-1.011195215449985,-0.5414859617037964,-0.921960233765968,-0.44678014496174123,-0.6450474587407692,-0.5411198890907618,undefined,1495702719552
903d185fccf839df,-0.3590590802279145,-0.4959178296602977,-0.1822386706414802,-0.28140867512020834,-0.9986703789222767,-1.3150289757572364,1.7695851869390704,-0.8215130135583844,-0.3311849329170766,-0.5036619506345218,-0.009001103733915794,0.036997949677702736,-0.7869527072192514,-0.7956301392461246,-1.0770747396903546,-0.45549369943702717,-1.0773909971192892,-0.8496048132016449,-1.0136720865431483,-0.5480149025191727,-0.9241885196242411,-0.44501634216911623,-0.6423228136761893,-0.5401363396681848,undefined,1495702720607
903d185fccf839df,-0.33965489405289395,-0.5105932046133324,-0.1822386706414802,-0.28140867512020834,-1.011548071766479,-1.310065366940037,1.7667712940904037,-0.8311902160110874,-0.32963202834983174,-0.5038367984746783,-0.005106387559752602,0.09086166994430557,-0.7564895276292335,-0.7956301392461246,-1.0770747396903546,-0.44337004176673117,-1.0773909971192892,-0.8491171765550958,-1.0134481886562652,-0.5519107090689978,-0.9245759054498373,-0.4447058328488404,-0.6414937273089347,-0.5400298287879012,undefined,1495702722641
903d185fccf839df,-0.33133881426359946,-0.5105932046133324,-0.18606648137369544,-0.2777487674296794,-1.0199514863969468,-1.3096857008528433,1.762892329267678,-0.8568689660232217,-0.32411357251753536,-0.5020063513415843,-0.0015508193850652867,0.10808540376666743,1.0147267713903745,-0.7947043013245297,-1.077074732328121,-0.43528763158458866,-1.0802738726626804,-0.85014311341976,-1.0112931709796533,-0.5487540278467451,-0.9235674556257973,-0.4456193553394072,-0.6423664239379786,-0.5396341995396489,undefined,1495702723659
903d185fccf839df,-0.3119346280885789,-0.5141152946020606,-0.18606648137369544,-0.2749926945892002,-1.0144177816503186,-1.3070559895498215,1.7643019060192358,-0.8417639869139653,-0.32410073348235113,-0.4957668714209699,0.0011189526518377909,0.10389437268188394,1.3672292780748665,-0.7947043013245297,-1.076022102227324,-0.43528763158458866,-1.0802738726626804,-0.8500164546126522,-1.0117269732907097,-0.5468138238551361,-0.9233051581465883,-0.44568786466486954,-0.6423057606848612,-0.5399684919216229,undefined,1495702725600
903d185fccf839df,-0.3147066546850104,-0.5141152946020606,-0.1656501354048172,-0.25219234484460146,-1.0009435186699611,-1.310682614848484,1.7676549070066667,-0.820688418363082,-0.3381237161874149,-0.47856196864388717,-0.01376549169786072,0.07367553191340184,1.7066761363636365,-0.7900751440934921,-1.076022109589558,-0.431246454758239,-1.075774110484098,-0.8477872583053302,-1.0128744502500164,-0.5405774535436263,-0.9214517812586226,-0.4466094508053674,-0.6389838173156168,-0.5411573679898622,undefined,1495702726645
903d185fccf839df,-0.3216367211760892,-0.5105932046133324,-0.2294512165575617,-0.2622521088098085,-0.987314970119997,-1.3127370036963848,1.7763227476030186,-0.7689612278531746,-0.340459486602175,-0.4931009120186238,-0.014307642003532375,0.08909751599865985,1.7197317847593583,-0.7900751246673303,-1.076022109589558,-0.431246454758239,-1.075005520022654,-0.8436075155889848,-1.0101596876053975,-0.5401155000994639,-0.9186161314271446,-0.44087639335050693,-0.6396441763832391,-0.541443953354976,undefined,1495702728552
903d185fccf839df,-0.3216367211760892,-0.4929827546696907,-0.24922967878338723,-0.29726689638511805,-0.985895543980702,-1.310820039828695,1.779770424657706,-0.7419004054382663,-0.34450366165179347,-0.5026619354750149,-0.01371932818898087,0.09617667857073998,2.968722147950089,-0.7900751246673303,-1.0739168420257303,-0.427205235534807,-1.075005520022654,-0.8433858624772261,-1.0122657276609262,-0.5379135225218056,-0.9184794060069827,-0.4402598393581348,-0.6403016254272956,-0.5425998213380309,undefined,1495702729585
903d185fccf839df,-0.33133881426359946,-0.3943641180733283,-0.0884504460045722,-0.10984599313939568,-0.9922418161786883,-1.3242713942192974,1.7748921240435767,-0.7792216134316462,-0.3998066031408788,-0.4790131682560039,-0.0021811008478405058,0.05193342219338731,3.181964405080214,-0.794704307799917,-1.0497062760850657,-0.5464210683686238,-1.0953583530478581,-0.8474262809586521,-1.0236495385107345,-0.6600231953012647,-0.9411554443649277,-0.43739178806053725,-0.6514158606600846,-0.5442255248999865,undefined,1495702730666
903d185fccf839df,-0.35905901121709505,-0.17012421342300427,0.04489368653618911,0.1109714911904637,-1.0399160204175906,-1.401112996934273,1.7598417488696745,-0.995770989718244,-0.3153680499099041,-0.3863688078849552,0.0022259653456547777,-0.29216611588909663,1.114820075757576,-0.7798909593328857,-1.0139167643111684,-0.5423798915422742,-1.0533106168938347,-0.817002819848051,-0.9849641707148067,-0.5572693739269478,-0.895095590780238,-0.40059647759691275,-0.5899566132293211,-0.45953153335129093,undefined,1495702732120
903d185fccf839df,-0.4172716387529761,-0.04391590114292895,0.42004404371432685,0.5072409329721422,-1.0866233739481301,-1.6710159209324194,1.9040392654235758,-0.5464520418029889,-0.45353882885594193,-0.43505798456220934,-0.008906154479488585,-0.44760035043780605,2.5204782196969697,-0.7234150921803194,-1.033916773037477,-0.3827518664741372,-0.9679550238672,-0.7613489116693136,-1.002966965883481,-0.4824329290176083,-0.8590003665619791,-0.41067543233051773,-0.5724819312637996,-0.45920345329268647,undefined,1495702733616
903d185fccf839df,-0.21214153259540583,-0.22999986014335513,1.3272964342541516,1.0910958143306884,-0.9464807500885506,-1.7683245488101034,1.8642082260236925,-0.9357745341539091,-0.2941807224025314,-0.6830730914535222,-0.11682828250420545,-0.40890781391162007,1.637046011586453,-0.6086116820319971,-1.0560220640520803,-0.36860757799358407,-0.8627783605664838,-0.721540026401038,-1.0199832100884862,-0.41026041339345154,-0.8306172768325799,-0.42992332421870627,-0.5315419477481813,-0.44688317036288566,undefined,1495702735112
903d185fccf839df,0.006848775555141449,-0.26932986501748807,1.581224991379024,1.4968182412400797,-0.4932517948972406,-1.7874010180016444,1.9127728594866924,-0.5102880250162448,-0.546853853336163,-0.589687042353521,-0.0897198205209078,-0.17912178273245052,-0.6302849264705882,-0.49658577917307206,-1.0086536211694181,-0.14836127870632781,-0.8068356408255631,-0.6240823559005031,-0.984537365924206,-0.2760783603264654,-0.7471471191493255,-0.42981834872669694,-0.5341545735910865,-0.46530064098447976,undefined,1495702736630
903d185fccf839df,0.029024988326593486,-0.33155354250233215,1.3489888018460847,1.3933686349868675,-0.5515717012064255,-1.741834110711083,1.9026796690793715,-0.5664738305682809,-0.4986672022097398,-0.37436149629692045,-0.049717887562002565,0.11987950460939151,-0.4475058489304813,-0.5169541163173486,-0.9812851428396616,-0.0473309677088569,-0.8011813898106771,-0.6080600084742148,-0.9520161891345712,-0.2460359922510873,-0.7186581105306655,-0.46214038690121606,-0.5576988625202708,-0.46567326654588626,undefined,1495702738150
903d185fccf839df,-0.18164927454006902,-0.31981315485592743,1.2194724800375385,1.2291443513242488,-0.7799038950947778,-1.7716343969599277,1.8793006911470362,-0.8343041921361727,-0.45720521147579457,-0.19121397144965996,-0.10674922916538689,0.11529651177057895,-0.17768911541889482,-0.5428775004173556,-0.9844430478665197,-0.10188732123248322,-0.7729270501743685,-0.5762432998542475,-0.9752246111489479,-0.28830472345297814,-0.7211048444764858,-0.4733498058305955,-0.5875178892270722,-0.5311636225750306,undefined,1495702739616
903d185fccf839df,-0.5835934760767345,-0.39495119152743435,1.072091855506224,0.9500489241609693,-1.0706702651933804,-1.7171907602020207,1.8629012252250001,-0.9525057961534033,-0.324186777311735,-0.3936761177902025,-0.18886745004834937,0.07279320807423577,-0.6085255124777184,-0.5595424923506401,-1.0118115041095748,-0.1564437736826349,-0.797199483549494,-0.574387746736665,-0.9837397305058141,-0.3476195346389584,-0.736039006397385,-0.4565753091287215,-0.5651209070652762,-0.5136815287057213,undefined,1495702741136
903d185fccf839df,-0.4976605480711287,-0.30865995757559805,0.7798826496897048,0.8496943789842446,-0.9599344476243806,-1.7851090475363518,1.8504569816172445,-1.105941869454017,-0.3883891979476213,-0.5104545627160026,-0.1599209861166211,-0.015067791253659086,-0.7564895276292335,-0.6113891698952325,-1.0212851971034476,-0.3463808793308884,-0.8225228070477943,-0.6146716017786087,-0.9775265624901442,-0.3839136722386445,-0.7636721590680583,-0.45759144128607293,-0.5619255855092447,-0.5106362309748247,undefined,1495702742621
903d185fccf839df,-0.3784632318975253,-0.3832108915650066,0.355605332955479,0.42162997645239253,-0.7771370362377749,-1.8172199404311764,1.8438535341210507,-1.2000343856917188,-0.3491850367171185,-0.45708604259726343,0.011132278112756728,0.0012712240095591972,-0.678155637254902,-0.6558292023455519,-1.0139167643111684,-0.4110403162439967,-0.8583673948108843,-0.6871204795131491,-0.9809340094299055,-0.4657564096510342,-0.8171461214660657,-0.45601467057092515,-0.595455801730317,-0.5022286167717339,undefined,1495702744101
903d185fccf839df,-0.3895514072940708,-0.5722298963280473,0.3632609544199095,0.42121652009229843,-0.4207684891114768,-1.841488282769728,1.8369844707136587,-1.231496605466179,-0.23656069862187534,-0.4648711807319842,0.07083064678559184,0.10919388832277321,-0.6215811608734403,-0.6771233903621977,-1.019179936901854,-0.4352876598493102,-0.898424039026604,-0.7207864081519948,-0.9923458081288096,-0.568525634707636,-0.8567387540936031,-0.45456718771934346,-0.5856459829266061,-0.4918964194149721,undefined,1495702745619
903d185fccf839df,-0.3479710773584177,-0.6420846811044925,0.33646475447270624,0.3671518598138016,-0.15249693886211557,-1.7772315606764235,1.8178815626409077,-1.2206698861553533,-0.25852797623549506,-0.3658647591240868,0.07766258818242339,0.0350157082939573,-0.8261196524064172,-0.6956400710894464,-1.037074678064335,-0.48580286481130835,-0.9918045470520771,-0.7465424894346212,-1.0288131861856025,-0.6111947275777884,-0.8911362850580625,-0.43051130773072926,-0.5941708949694681,-0.5105986686179522,undefined,1495702747113
903d185fccf839df,-0.39509539147611433,-0.6056897512209665,0.40919773284988553,0.3973582011507547,0.07407639202636485,-1.7661816495713971,1.8192227697400196,-1.0988324099076894,-0.22574959555439392,-0.4819107892199738,-0.010757240396554624,0.07295551501674408,-0.9001016599821747,-0.7428575849276138,-1.0465483784204415,-0.46963794552049803,-1.0168092128499229,-0.79356459626694,-1.0382868681003896,-0.5685256354884499,-0.9103704191518005,-0.4198903385606434,-0.5981431966984909,-0.4913694824831613,undefined,1495702748589
903d185fccf839df,-0.39786741807254583,-0.4741982747298063,0.48639742225013055,0.3973582011507547,0.13770371054145494,-1.8089231884552934,1.822425873501306,-1.0824136070958732,-0.2599253171456631,-0.42726808942924804,0.012930913412787659,0.010543317824410753,-0.8130640040106952,-0.7678551246306388,-1.0360220442824213,-0.44943191299896146,-1.029306425286823,-0.8159135544546262,-1.0618171429501966,-0.5874041295382857,-0.9315755982052808,-0.4338078815100732,-0.6013636040312033,-0.49467704721505007,undefined,1495702750103
903d185fccf839df,-0.4893442957547855,-0.45834888439452504,0.3294465084774296,0.3485020822934848,0.10755632427755611,-1.8676526249391545,1.8158276887546048,-1.2176162654843148,-0.253298155967419,-0.5015836022993788,-0.006374682153751168,0.02521937975473811,-0.8217677696078431,-0.7687809560768463,-1.057074701515111,-0.45751433024728433,-1.0426200816162814,-0.8448931041299486,-1.0824647319757292,-0.5773951411963449,-0.9494073299452317,-0.4318469032849784,-0.6123384954469967,-0.494254637394593,undefined,1495702751601
903d185fccf839df,-0.5738913829892243,-0.5522713863919202,0.23884897324053242,0.32531931634445277,0.009636484230230762,-1.8890350420046782,1.8066733413263705,-1.3570583286373301,-0.3335019721436162,-0.4771343162896153,0.057292071304091655,-0.005151205042101374,-0.9131573083778967,-0.8011851214479824,-1.088653692885821,-0.47367916474393007,-1.0641866944598788,-0.8638856017810504,-1.1089756481060742,-0.5302912966703907,-0.9563173286465834,-0.428033290321968,-0.6137628710308354,-0.4952439172932388,undefined,1495702753143
903d185fccf839df,-0.6071557021464024,-0.6274093353794501,0.1463375326375276,0.17170487037629814,-0.09037134338757828,-1.867247338738656,1.830031275593388,-1.2410362812309357,-0.34788226546239565,-0.5440702233126807,0.0555434421370887,-0.07415264341792428,-0.9175091911764707,-0.8030368102419465,-1.1054958223530897,-0.48580286481130835,-1.0760913036351696,-0.8671597334407954,-1.1097522939054054,-0.5187578620946445,-0.9572284382304833,-0.4343134005082015,-0.6173037397350699,-0.49613516873649105,undefined,1495702754599
903d185fccf839df,-0.6875444734429159,-0.567533747115084,-0.013165424381283108,0.025451831485681697,-0.11139529793155052,-1.8404401253309899,1.8630826738075783,-0.9966737198495381,-0.31182796073357844,-0.6936955624840303,0.050028368264622945,0.09971119010158373,-0.8391753008021391,-0.8335893062452804,-1.0918115795070946,-0.3867930009034046,-1.018057143417974,-0.8752215706922853,-1.1028324476669866,-0.30273306733425404,-0.9150704027846928,-0.4394018165440054,-0.6208068252028205,-0.4192635594755598,undefined,1495702756092
903d185fccf839df,-0.7942676354271678,-0.5681208497971824,0.03532339729480272,0.006179830873281836,-0.029829715235145212,-1.79379245121368,1.8424202875670372,-1.0561387006892218,-0.26148552982922435,-0.6920416089224317,0.026305326027540498,0.04184526768474617,-0.5737104500891266,-0.8095176562669483,-1.0981273858796936,-0.19887652606540826,-0.9668865092826002,-0.8470716356476382,-1.108233985700484,-0.13396610246971807,-0.8730696571504014,-0.45290446929695954,-0.6074478190843872,-0.4287884914332468,undefined,1495702757606
903d185fccf839df,-0.5226087529336025,-0.48593857469223406,0.25160918947108135,0.08957378560290999,-0.18782830436025783,-1.8244242760576488,1.8644501695136309,-0.967977521709478,-0.16738753981938465,-0.8079506617387513,-0.024763168976293434,0.02014458568488873,-0.7477857620320856,-0.8419218151626972,-1.1076010715113327,-0.2170619631075896,-1.0001084859295861,-0.8575906555830128,-1.0978787052482122,-0.1501960641720386,-0.8790781222813809,-0.45839972063857637,-0.6056541854466199,-0.42751174013373155,undefined,1495702759091
903d185fccf839df,-0.5697332050729381,-0.4788944531707621,0.22927868399914603,0.12225623662216938,-0.25144534115734596,-1.866676675565639,1.8694546902187972,-0.9957650715438742,-0.20678604716413623,-0.8485042389051466,-0.03294273365185979,-0.027049387297847453,-0.8826941287878788,-0.8558093192327464,-1.114969500622495,-0.14836132110341013,-0.9491195923937259,-0.8438355025468975,-1.1021047792379395,-0.015444270346715427,-0.8464964799449796,-0.46195715299984114,-0.5648234268496437,-0.43163580694596476,undefined,1495702760723
903d185fccf839df,-0.5267667928282498,-0.553445416388163,0.07743236499256352,-0.05333816723855088,-0.37339256854228786,-1.8902252842874174,1.8587987119187988,-1.1287483312053217,-0.2383449052379133,-0.9179461592910695,-0.03627983851451877,-0.07616980919957744,-0.7651932932263815,-0.8585868200467562,-1.1244432009786014,0.04561708856244,-0.8781485628596283,-0.8308846329923908,-1.0948210992193086,0.14850297675826915,-0.8035669153364642,-0.463808427064915,-0.5890745385727513,-0.4442462669894099,undefined,1495702762105
903d185fccf839df,-0.354901074838677,-0.642084724946481,-0.2064828273425737,-0.2790662171162823,-0.6107967425653572,-1.9411540996173624,1.8783828818818102,-1.103089267656315,-0.18219553384348675,-0.979987502382927,-0.015849540124646597,-0.16189957150420795,-0.3909313725490196,-0.808591805394579,-1.1160221417666423,0.2436365902604752,-0.7936242513032384,-0.8158122270789546,-1.0872925305141408,0.16009800557351905,-0.7883862372682867,-0.45280656179633033,-0.5133736942207214,-0.4582076173530765,undefined,1495702763646
903d185fccf839df,-0.43667585943340637,-0.7248539419795698,-0.373004030356661,-0.3962962574664144,-0.8974796905815947,-1.9355615964894994,1.896060441714874,-1.0586298411694044,-0.22696927070797698,-0.8134281987136458,0.024503522634571482,-0.2210309340210807,0.2574991644385027,-0.838218489377867,-1.1360221688985352,0.09209101777156306,-0.8617569177813529,-0.841593640595834,-1.1045676564340814,0.004927868051516325,-0.8329431816679156,-0.4430986602560438,-0.5379991732242988,-0.5077436991715231,undefined,1495702765096
903d185fccf839df,-0.6750704917806131,-0.8545844027043581,-0.23838362205589536,-0.3425302844691583,-1.1828563604013345,-1.9847527996424397,1.9294879075857354,-0.9485828457058939,-0.24779544770096323,-0.819552639619115,0.056006365095152534,-0.22772993457025437,-0.42574643493761144,-0.8493285120600682,-1.1591800973761694,0.21736865824198678,-0.8878688687619837,-0.8481799021144449,-1.1063378496470513,0.08710937196376443,-0.8173169810573206,-0.44182978888731506,-0.5628232996166503,-0.5202483488955699,undefined,1495702766585
903d185fccf839df,-0.7610033162699897,-0.8005789351932134,0.2356590462513699,0.25561366466696006,-1.1732700905374234,-1.9511442067033953,1.8580466017459791,-1.3913405370406808,-0.23299003069162189,-0.6666388616335612,0.08606261681723243,0.09937815967769796,-0.6520443404634582,-0.8456251538983018,-1.1633906288227074,0.20928621979512277,-0.8765152444183543,-0.8548484909873121,-1.1215279263478195,0.10478678829192548,-0.8215237637294912,-0.4489284493665234,-0.5560315708548282,-0.507540174090343,undefined,1495702768092
903d185fccf839df,-0.9245530234810875,-0.698438237836115,0.4729990681395795,0.5378943748128987,-1.307621863071331,-1.9543492397548177,1.9175196557860952,-1.007293482754444,-0.2661221238620764,-0.6158464219140899,0.16829869400763922,0.1214030517388022,-0.12111463903743315,-0.8400701716964439,-1.1286537545118407,0.12442074329429757,-0.8786338684098444,-0.8676663684256135,-1.0985014219484206,-0.09888844628745387,-0.8652586770807277,-0.4419133893143315,-0.6022445127417901,-0.4872712149818191,undefined,1495702769591
903d185fccf839df,-0.8303040846970066,-0.6491289195379338,0.6956652225680819,0.6398342702451824,-1.239479117296723,-1.931506390525564,1.9305976877899595,-0.8905716067179137,-0.23506027106412206,-0.55375377203188,0.297498012618437,0.11547417278028349,-0.10805899064171122,-0.8465510047706711,-1.1065484524538864,0.21332758034216245,-0.8266508012916829,-0.8512513786463536,-1.0758247579032272,0.06059325259393193,-0.8218564986151241,-0.4305136476395829,-0.535494028768851,-0.4590509263944069,undefined,1495702771085
903d185fccf839df,-0.6099277287428339,-0.6391496645698702,0.5872033846084163,0.5810722049557712,-1.2609865110084744,-1.937012711331672,1.9027638259327735,-1.0904052258392345,-0.2080502674194984,-0.4037753430490654,0.27862472936433047,-0.1299763093640437,-0.5084322081105169,-0.8234051344354485,-1.1202326768942972,0.17695657906655288,-0.8676407425356036,-0.8390604623940372,-1.076293544709095,0.12398865353289124,-0.8050743838719535,-0.4522869571210075,-0.5307719548471533,-0.4751704038721889,undefined,1495702772608
903d185fccf839df,-0.6057696888481866,-0.6573471295116332,0.2962696921410531,0.33484800436822204,-1.2678367850320413,-1.9540580844652478,1.8384203643552455,-1.538369240463343,-0.19304757300548894,-0.47534090361056924,0.2198912191698118,-0.12959418519647703,-0.09935522504456328,-0.7604484536348167,-1.106548467178354,0.08602913947315237,-0.7793866807747581,-0.8016390978665916,-1.0578849347848414,0.09804227428866721,-0.7907541900854802,-0.44020849214911095,-0.49206791432111696,-0.43172591020583506,undefined,1495702774100
903d185fccf839df,-0.4962745002675032,-0.7066564478098144,0.43471816531098334,0.35948042798598806,-1.1948597664386003,-1.9359226282257795,1.891744935802314,-1.1552500913463466,-0.21677592988370648,-0.5051960107525768,0.1379662469581247,-0.31400510176928226,0.5403715463458111,-0.7456350986923982,-1.096022129359217,0.368914287260342,-0.7212555828595668,-0.7966804032495637,-1.0501814461992487,0.32438402510177844,-0.7327019286755883,-0.4439777854419898,-0.5000532926616795,-0.436807177341006,undefined,1495702775656
903d185fccf839df,-0.4782562928852887,-0.6021676904602304,0.2324691192622074,0.19608155688473355,-1.0709274054407747,-1.9386315326610206,1.946013607216592,-0.7792756144088612,-0.2175918428504694,-0.42383809132229017,0.02946346847717876,-0.2567464795653195,0.1878690396613191,-0.7456350986923982,-1.0728642119249336,0.7629328435668452,-0.5735757122955804,-0.797757003431107,-1.0363277608041204,0.5767491488806616,-0.6711347440643525,-0.4484259618139139,-0.5206605219347603,-0.4449562428354066,undefined,1495702777089
903d185fccf839df,-0.49488848696928744,-0.5974715997032517,0.14442337313447054,0.1137067963279517,-1.078703389849192,-1.8848680333252592,1.9020169439412273,-1.0058599054753972,-0.2970126506301927,-0.49684355918245227,0.006821253756252311,-0.15021684370179209,-0.5388953877005348,-0.7317475751961872,-1.0454957520007615,0.8235510329918,-0.6259211617331237,-0.8081873615072082,-1.0429607372705278,0.6257162051171442,-0.6644617442086114,-0.45502741175260075,-0.5338122177720146,-0.43212471944612346,undefined,1495702778595
903d185fccf839df,-0.5489430055997018,-0.5728169697821535,-0.0884504460045722,-0.07876334685324135,-1.0930725086819508,-1.7764978498856274,1.8639242130109885,-1.1489894645676562,-0.3718550595209545,-0.4377731842329344,0.021612391672924024,-0.01963663038151459,-0.6215811608734403,-0.7530417632128329,-1.0960221256781,0.5891604310916297,-0.696445092520784,-0.8280538058287235,-1.0749361631910397,0.41127745527262516,-0.7224547132542403,-0.4569932660236585,-0.6111932913829567,-0.4434733555999607,undefined,1495702780088
903d185fccf839df,-0.7263529838145959,-0.571642881329926,-0.18798064087675248,-0.1993038645860791,-1.2158323030621319,-1.7646862771644938,1.865057659875103,-1.146605553111778,-0.3116062330375288,-0.5244510071421653,0.016486664953040547,0.014997912057905204,-0.669451871657754,-0.7882234617749152,-1.0728642045626997,0.4133676845857333,-0.760259934746666,-0.8391871200882753,-1.0722563846375066,0.3895656484588182,-0.7309811553516593,-0.4595168286549548,-0.6453578253727115,-0.44363848527523486,undefined,1495702781582
903d185fccf839df,-0.7069486941233463,-0.5734039263242902,-0.21031114634868778,-0.15350080264479601,-1.1616266792492933,-1.7664588270508954,1.8667617725195456,-1.1294131914341383,-0.28226503989919033,-0.49409079362516395,0.013243517978478298,0.03265282173847364,-0.7608414104278075,-0.8234051344354485,-1.1002326424001705,0.22747171336674718,-0.8703180814949506,-0.8682996627379862,-1.1079051364456687,0.20316746366598246,-0.7927278925779834,-0.4742435132808258,-0.6601945273062964,-0.45767287038594995,undefined,1495702783085
903d185fccf839df,-0.7526872364806952,-0.5739908828664269,-0.29708061671642033,-0.30484034887962047,-1.0615057027444412,-1.7156837411537031,1.8731101243659172,-1.0015521876818525,-0.27877223587650096,-0.6028968380039486,0.024375083776650413,-0.04039205823033388,-0.7173225824420678,-0.8641418475763251,-1.1539169358288346,-0.3160717563536895,-1.0439974782768273,-0.8839357011148635,-1.1372987387244924,-0.32997291567287085,-0.9271963686181725,-0.4704045955460443,-0.6744291687858166,-0.5142016426016045,undefined,1495702784586
903d185fccf839df,-0.5946815824624605,-0.6068638396731939,-0.39533402755469743,-0.40000306340612835,-0.9777081308905374,-1.6761379184205327,1.8761317774495818,-0.8996355670165204,-0.37354409631566843,-0.6668684840479007,0.0050701560292852,0.03705333481051909,-0.9175091911764707,-0.8826585024020246,-1.12970636988817,0.17089467250342064,-0.8980299758997429,-0.9124466136335321,-1.117035974786542,0.24492804653162842,-0.8013045100358165,-0.4743406146706635,-0.6729672649555658,-0.416576630865885,undefined,1495702786089
903d185fccf839df,-0.5697332740837575,-0.6338664711307931,-0.4553072979752267,-0.5518754039155385,-1.0319034672238736,-1.6953494831451277,1.8815123584787665,-0.9008218627015999,-0.36915973897327337,-0.6852591325146734,0.0049013595369560604,0.04595260188538382,-0.847879066399287,-0.8798810210141766,-1.0665484055523344,1.1104773293406178,-0.530920585450221,-0.9125289414030382,-1.0822618242767938,0.7987023447878524,-0.664522873619884,-0.48218143773362415,-0.6873554864544686,-0.237559730223904,undefined,1495702787641
903d185fccf839df,-0.43528989789330524,-0.690807042860537,-0.147147948938996,-0.21919928528625732,-1.1849649248633267,-1.806989920552299,1.919092279304877,-0.8267874070808587,-0.2802186687512805,-0.7103221293586609,-0.013425008716005302,0.050791331284355264,-0.9088054255793226,-0.8437734910058867,-1.0823378975565725,1.4115479706994318,-0.3900787397228238,-0.9070826102557311,-1.0733198997806543,0.8699663502055678,-0.643437563040878,-0.48469279803187887,-0.6507149362566256,-0.2290044443265202,undefined,1495702789082
903d185fccf839df,-0.7291249586529128,-0.5622506413599838,-0.10950518399040203,-0.0804871638088269,-1.3695520424072904,-1.859327926101035,1.9320782624261446,-0.8222347585862728,-0.29288293759532885,-0.7745526434317939,-0.008568170759671982,0.0943843146797863,-0.6607481060606061,-0.821553474780727,-1.0707589369988724,1.3448679029760664,-0.2867560641123354,-0.8906929520740072,-1.070276287373504,1.129707326997318,-0.5780111046446944,-0.4912555544131128,-0.6430686567856602,-0.2551798299568943,undefined,1495702790604
903d185fccf839df,-0.8136719078657126,-0.4824165139314981,-0.02209782987961676,-0.07040285985373708,-1.4894318446334862,-1.8951376492130234,1.9563277100187946,-0.712810552771143,-0.33268812335731723,-0.7294649572699107,-0.02187337330562166,0.02464762007377768,-0.678155637254902,-0.8271084731710531,-1.0202325743648846,1.7833397435490748,-0.17808893209505527,-0.8841826860179417,-1.0215295061241523,1.9485504557153768,-0.368705838429061,-0.4905913405383078,-0.6631646066953804,-0.2195004693006375,undefined,1495702792093
903d185fccf839df,-0.8081278029147351,-0.5340739214501572,-0.20074085710730138,-0.2595317531926477,-1.4224102410623907,-1.928415490030462,1.9529352698358218,-0.7672245377157596,-0.3140624616293419,-0.7455145962469232,-0.014123408181202264,0.02225576715217093,-0.9479723707664884,-0.8456251538983018,-1.0476010232457058,2.233935199395297,-0.14576463846216284,-0.8605608060403663,-1.028904144072474,2.3995247250640928,-0.25252918948137765,-0.4892065739360444,-0.6783695296192104,-0.26295425832783864,undefined,1495702793586
903d185fccf839df,-0.7762494625503631,-0.5962975550930127,-0.17649619213230905,-0.24436232815866227,-1.3174447018585775,-1.9218190840037346,1.9677252949905848,-0.6491012515481819,-0.28781510355953727,-0.6103941925469509,-0.026933339769602507,0.06629600949348953,-0.847879066399287,-0.8234051473862231,-1.0812852674557756,1.617649797785445,-0.2297308707423188,-0.8307263090682561,-1.055610971408965,1.8652602570536903,-0.38008839992599375,-0.48253416787628606,-0.6277432480530875,-0.36733776872381607,undefined,1495702795093
903d185fccf839df,-0.6473500532892494,-0.6162560796431361,0.22098467051776396,0.19027492200776477,-0.9829846924690108,-1.943998099644098,1.970878419392039,-0.5902372551641865,-0.2596188304406231,-0.49681883621008194,-0.0042210400978901,0.005516123730357791,-0.8087121212121212,-0.8076659609975969,-1.0654957791326545,1.5489493395019553,-0.1959609302825423,-0.7728052078945856,-1.025601650121666,1.7646622123607592,-0.37638788853344807,-0.489037482274316,-0.6958365889767109,-0.43292190156361277,undefined,1495702796591
903d185fccf839df,-0.6806144759626567,-0.501201037713371,0.522125773558718,0.5607821937288587,-0.8827814337887367,-1.90844226294136,1.8948112740706633,-1.0249761615631594,-0.26021429938549095,-0.5500930836542982,-0.040425743535559534,-0.002311087823808816,-0.8130640040106952,-0.7965559642169447,-1.0644431416696238,1.5226813509540238,-0.27571486829445074,-0.7872253199836072,-0.9988108606325776,1.5444644411326307,-0.42340817536801995,-0.48719174910688445,-0.693566797870373,-0.4801399384743671,undefined,1495702798111
903d185fccf839df,-0.6681403562787149,-0.4648060493738603,0.36326120855685895,0.3802600434107358,-0.8777517252262196,-1.901985611302134,1.8734914401067762,-1.1597133890574844,-0.27019207961780445,-0.6145547738053289,-0.008642483173054173,-0.04187216423430252,-0.7913045900178254,-0.7761876270726683,-1.0560220861387817,1.64189716965548,-0.22602154173302863,-0.7872949819598819,-1.0069831354918541,1.3818260605847361,-0.46000276319378774,-0.4811642578948165,-0.6775000421090167,-0.4515067509127043,undefined,1495702799630
903d185fccf839df,-0.5517151012069528,-0.5217465772616158,0.027029383813420647,-0.027762423404275247,-1.019879484051035,-1.9145681620707364,1.9273761654529709,-0.8396758084151223,-0.2680873100263812,-0.7976755516928152,-0.03881897917320464,-0.04268125000628219,-0.9479723707664884,-0.7845201165639233,-1.0781273697911515,0.35274941036661395,-0.6799168042115136,-0.7993909040847206,-1.0429957208110783,0.7345678081957288,-0.6323507327870427,-0.4713906138309633,-0.58910112961775,-0.5518575542874093,undefined,1495702801096
903d185fccf839df,-0.3923234338905023,-0.7377682865522365,-0.5408010008568538,-0.6613104361625589,-0.8110284032943084,-1.9939695974398626,1.9028532287753197,-1.050506229047426,-0.3379869781517947,-0.7902087971867737,0.036526023421814734,-0.06999348259435924,-0.9740836675579323,-0.785445964198599,-1.1065484414105358,-0.1766497850056303,-0.8773621392027535,-0.8694459270717138,-1.0617471743948843,-0.05289329046636055,-0.8511775443584301,-0.45786023920420343,-0.5285682755732761,-0.5191771548845419,undefined,1495702802584
903d185fccf839df,-0.2551079103346844,-0.9355925455150904,-0.7647434310453606,-0.850333334863383,-0.8520271924538431,-2.070189293047643,1.91976552051431,-1.0207830418660324,-0.2899588558450353,-0.7701099786446175,0.07971244412017434,0.0006362735330537313,-0.7608414104278075,-0.8734001685137875,-1.1128642588264857,-0.32011298970948227,-0.9783575495141792,-0.9360494948022219,-1.0673656132719396,-0.2617270084435618,-0.9238650679701609,-0.4622136248712856,-0.597346955910461,-0.5157074180562351,undefined,1495702804090
903d185fccf839df,-0.13036667898985696,-0.9326574559104873,-0.6875437416451156,-0.7530552911492686,-0.9601401555315785,-2.067154295007739,1.9151186604128525,-1.0675534574488796,-0.32577707766559505,-0.7235562053906324,0.07435018020239362,-0.03000297273332425,-0.6128773952762924,-0.9317277050341561,-1.1328642601905603,-0.3322366615121391,-1.0249340721040623,-0.9947685482800203,-1.088621925119011,-0.26442173725824963,-0.9561207352519585,-0.46302588569971254,-0.6215921552404545,-0.5117007962827667,undefined,1495702805592
903d185fccf839df,-0.4117275510547034,-0.9719874900126126,-0.5746154467993336,-0.5829572015036395,-1.0261537603207813,-2.0252442936942208,1.9293748391308212,-0.9674929039603622,-0.2773490398789504,-0.7636609931069266,0.08232157115626607,0.022825423133675738,-0.673803754456328,-0.9724644052242581,-1.1191800504746172,-0.3585045511335452,-1.0533002133249871,-1.0206702880257499,-1.1046026413570875,-0.3592453629029396,-0.9933068860164745,-0.4681531854609127,-0.62553138130247,-0.4964011266756217,undefined,1495702807089
903d185fccf839df,-0.43528991514601006,-0.9643562950370346,-0.4450991249907876,-0.5044784501687036,-0.990606395068801,-2.0310557453239655,1.9696213827641125,-0.6898844273505849,-0.2879280204402102,-0.8558812507617919,0.12105896634514253,0.06108964739032362,-0.5650066844919787,-0.9576510632326142,-1.1191800467935005,-0.34840151014114557,-0.9979801370416727,-0.995617163408264,-1.131897200268918,-0.32439867836746594,-0.9835642905813228,-0.4778714473903025,-0.5325713915312639,-0.5098332682025559,undefined,1495702808593
903d185fccf839df,-0.4283598486549313,-0.9901849987963641,-0.5203846548879756,-0.5636053160428014,-0.8185781117103128,-2.0579794216321012,1.9004390629105619,-1.127529408912523,-0.2610664531286071,-0.9130151537751312,0.13368668664111888,0.053160587851425176,-0.5693585672905526,-0.9150627033877907,-1.1170747718674392,-0.3706281381420374,-0.975105362544614,-0.9823686449915466,-1.1341221863295645,-0.3047194646967048,-0.9731198407715007,-0.47549733389460186,-0.542374074096042,-0.5067754772484405,undefined,1495702810085
903d185fccf839df,-0.5087486889622644,-0.9837278192030326,-0.5548369845735082,-0.5759263132019242,-0.9584327326599315,-2.0994282332873757,1.9116525637349402,-1.100360836957485,-0.26170285042818486,-0.8619966742440238,0.1259123880217259,0.018731966666986958,-0.7869527072192514,-0.9215435396997116,-1.1676011492258946,-0.2655565372593306,-0.9385093753558559,-0.9866877125352347,-1.181714493845435,-0.3387808258758052,-0.9971928724221535,-0.4683102762033476,-0.527293371242886,-0.48249415395091566,undefined,1495702811628
903d185fccf839df,-0.6196297873249343,-0.953202995458732,-0.6365023684490211,-0.6801313155438673,-1.2263031406667773,-2.076925453309202,1.927173677395162,-1.0445030242317899,-0.2934017549658769,-0.7244294038632345,0.07569793734142051,-0.0729698702303504,-0.8696384803921569,-0.9113593711275734,-1.1770748495820011,-0.4433700276343704,-0.9440948557535487,-0.9789995190326876,-1.1810078157389106,-0.44732446571309625,-1.0106813420436156,-0.4665823460406666,-0.532586562454175,-0.5069795498190536,undefined,1495702813080
903d185fccf839df,-0.5683472607855418,-0.7729892010535159,-0.3825743195980474,-0.4245665916620405,-1.1745557980100187,-2.007837888094992,1.9096539068174385,-1.0791162107398078,-0.3199139890383287,-0.7037636965183826,0.07263552589946215,0.0021194512311939733,-0.9131573083778967,-0.8576610015513233,-1.164443262604621,-0.13623764930075333,-0.8402167237904732,-0.9308058172878514,-1.1794405299740767,-0.07508244222322455,-0.9041390760868552,-0.46775353682794,-0.44077554147631237,-0.5010483358309934,undefined,1495702814596
903d185fccf839df,-0.5323109495373419,-0.7084174928041787,0.22481298952387804,0.18407259144765392,-1.1109387595184894,-1.933996346089254,1.898642904526087,-1.0747319343657225,-0.341975898498037,-0.8952684865057998,0.08995105681645132,0.05035384312982421,-0.7826008244206774,-0.7271184341536177,-1.1002326644868718,-0.00691880373925838,-0.7267439772723985,-0.8045459183002847,-1.1314144197434235,0.037433999325906485,-0.805921373644489,-0.4254858675440674,-0.4706709585834517,-0.49839577355494674,undefined,1495702816081
903d185fccf839df,-0.5988396568625175,-0.5029620388657466,0.823267384873571,0.8232017368743337,-1.101043919835709,-1.9077062237707374,1.8793427596222798,-1.1739133075008832,-0.33118144163957425,-0.9040935014965228,0.09222767959743064,0.014248895175523388,-0.8130640040106952,-0.6595325605073183,-1.0644431379885069,0.1729153457107601,-0.6045304850227683,-0.7473721036334365,-1.1153007639274124,0.1366923778649311,-0.7530094060295057,-0.4047274131854124,-0.5057406584399518,-0.5082219900849704,undefined,1495702817733
903d185fccf839df,-0.6764563670571899,-0.5698818071075695,0.8353897173610672,0.7768976078818657,-1.0278714680972603,-1.8930320173379036,1.8876371723168808,-1.0879431385834255,-0.3538514563747307,-1.0844972550932375,0.060454698220615874,0.02599879697431872,-0.8000083556149733,-0.6623100548459409,-1.0381273265707163,0.6558404988149952,-0.5597523998444826,-0.642321233425632,-1.076874278757862,0.6081927814689173,-0.5946978470191527,-0.44479686443401967,-0.5944886010509063,-0.5571446151982088,undefined,1495702819085
903d185fccf839df,-0.5683472607855418,-0.5945364662566601,0.7607425794808308,0.6826572454382425,-0.8589186075531179,-1.8799230595761138,1.8563977081653813,-1.2388971509448408,-0.3877814264591224,-1.0296705892310454,0.06648269261603378,0.0010234014385681566,-0.8174158868092692,-0.6002791277868694,-1.036022055325772,0.5871399840020626,-0.5842770548830258,-0.5696317060183337,-1.0814641869437618,0.9171163923160666,-0.49989966872948793,-0.4399216504362123,-0.7102234515658247,-0.541714998877,undefined,1495702820583
903d185fccf839df,-0.5350829416283637,-0.6156690354170223,0.7562761225947146,0.6167783738184567,-0.8816602837071723,-1.9047434321742218,1.9123889097522828,-0.8946219613341958,-0.31475404582450794,-1.1288309855353793,0.025413443584109036,0.003889630066380589,-0.8391753008021391,-0.5401000255048949,-1.0328641576611477,0.31233718986757236,-0.6981684568813619,-0.5306651029456977,-1.0689678827914209,0.6707874579135953,-0.5379255404427794,-0.4559763926208405,-0.7096730810994918,-0.5575304316321767,undefined,1495702822084
903d185fccf839df,-0.6570521808821694,-0.6321055138204059,0.7473442253702798,0.6557694261330894,-0.9162716611694235,-1.9222453360622143,1.8721818053145332,-1.1950296082297853,-0.28251800945709066,-0.9171170092939729,0.05141485186140592,-0.02521296590814991,-0.7782489416221035,-0.5345449332214534,-1.0370746854265687,0.24161591705313573,-0.7040065788917697,-0.5583907313010162,-1.063524364143463,0.7351991550807887,-0.5392338510389552,-0.47443907881090797,-0.66771964563041,-0.5595007571544062,undefined,1495702823639
903d185fccf839df,-0.6861585291555197,-0.7048954320434426,0.3020119165132748,0.32186184547350166,-0.8139392632962108,-1.8979234188527767,1.8736045368447791,-1.161415272405252,-0.2511396275185378,-0.8855684374436088,0.050022060604817536,-0.028946995515967012,-0.7956564728163993,-0.6187958473664418,-1.0391799456281623,0.46186214567858813,-0.686459615154976,-0.64160561159844,-1.0615652567370868,1.05556380956176,-0.5001967923681186,-0.4850089737314278,-0.6892316247384512,-0.5120600703057145,undefined,1495702825086
903d185fccf839df,-0.7831795290414418,-0.5886663455034385,-0.1177991974717841,-0.14506349295875287,-0.7815084610240473,-1.8736154778587581,1.8803789095196088,-1.075672288779089,-0.2758477951636533,-0.8863115970613799,0.007030813693963341,0.01839110838924475,-0.7826008244206774,-0.6363867031228702,-1.0465483821015584,0.6174490363174576,-0.706223417726066,-0.7002170039042428,-1.0711648814189318,1.1304618462470009,-0.5118659708011024,-0.48805603164374967,-0.6245519603050498,-0.4959223950476414,undefined,1495702826590
903d185fccf839df,-0.7610033162699897,-0.4237149556633747,-0.1758583083892563,-0.23904628539221273,-0.7790398910181071,-1.8327373291495341,1.9229212773380326,-0.7258901111080135,-0.2509516385801672,-1.0041395615709066,-0.06557741233678194,0.028282503439617333,-0.7782489416221035,-0.6400900353830876,-1.0433904770747002,0.27798690419638455,-0.8197216883990138,-0.7404691948589793,-1.0630555779064816,0.7830113215276652,-0.6026056176981855,-0.4791346782550219,-0.6386524280771091,-0.5118897820797982,undefined,1495702828080
903d185fccf839df,-0.5738913484838145,-0.4695022132008199,0.0691378432372826,0.10037087489091193,-1.0759468217065344,-1.7695264348394184,1.8729838864670099,-1.0285350800593638,-0.3746389914660313,-0.7960751132327716,-0.022938353101640933,-0.04174087845968421,-0.847879066399287,-0.7289700938083391,-1.0718115597374354,0.25980138236003864,-0.8008497496047859,-0.8113285022411312,-1.0370344381765975,0.7734642863471783,-0.6308059267610395,-0.449957445311715,-0.6004781557946378,-0.5098965578423793,undefined,1495702829600
903d185fccf839df,-0.57527739628744,-0.6397366795679916,-0.23391741930672855,-0.24795404427738776,-1.2201420091670019,-1.6878167234611172,1.8605475464111894,-1.0451099806921584,-0.3496215094679954,-0.68521368191572,-0.0010294989651123915,-0.07574126685763413,-0.5780623328877006,-0.786371818308662,-1.0749694721265273,0.2355541518136112,-0.7994495472493217,-0.8475212756785528,-1.0376641514980538,0.8529048716144844,-0.6259222296167583,-0.45480950842015866,-0.608330621983208,-0.5069164100793153,undefined,1495702831088
903d185fccf839df,-0.5101346332496607,-0.722505852759092,-0.427235330541918,-0.5219230989585638,-1.2614699411919132,-1.753000482347251,1.8706012845289468,-1.0863911658540686,-0.3289541623834717,-0.6490479919033497,0.04727524851544091,-0.042768338398902414,-0.7869527072192514,-0.7947043142753043,-1.0718115597374354,0.1729153457107601,-0.859542159907463,-0.8650698620936961,-1.0582277790255148,0.7476103017335511,-0.6646548581041725,-0.45724378768655843,-0.6452207021650402,-0.5680904803955782,undefined,1495702832606
903d185fccf839df,-0.4782563101379935,-0.5722299255560397,-0.391506725096381,-0.45288320144255734,-1.2141660184494594,-1.8258963540980844,1.861525827014535,-1.2086275641979012,-0.3293729521488233,-0.8805892488578144,0.11142125804458534,-0.022171702263443293,-0.8913978943850268,-0.7530417761636075,-1.067601039334248,0.18503898924869536,-0.8321884024078486,-0.8271418629080955,-1.0541976162419335,0.6306437103928049,-0.672911470774184,-0.4548457480174883,-0.657368040440033,-0.5523757489209511,undefined,1495702834080
903d185fccf839df,-0.5905235425678133,-0.7277890169701767,0.07168988648339238,0.007052937094068792,-1.0934839345629686,-1.9400220886385307,1.8970150483256767,-1.1030259112726426,-0.2505963509835166,-0.9235731616608419,0.15709686018977678,0.0805106237888827,-0.7869527072192514,-0.6761975524406029,-1.0686536804783957,0.3103166579838406,-0.8117521652506237,-0.7758006880780823,-1.049551734144024,0.5776884588320049,-0.6580365367651673,-0.45506748370340994,-0.682501955059499,-0.4934322367632847,undefined,1495702835630
903d185fccf839df,-0.6431920996581265,-0.7882516494606566,0.4589630844229251,0.5000463641220906,-1.232104274236588,-1.9780236273182519,1.9563829196549434,-0.7570298120094751,-0.29022403786059003,-0.9849293015863808,0.20977746869104558,0.010614725909172909,-0.7913045900178254,-0.632683351436491,-1.0854957952211968,0.2557602055336889,-0.7713685237542718,-0.7234779068562667,-1.0586825719160107,0.5979066134623516,-0.6318195931368017,-0.4391321263952724,-0.6523668165550081,-0.5121920849609051,undefined,1495702837082
903d185fccf839df,-0.7734774359539315,-0.7923607252195141,1.0248793095901425,1.0346060800472823,-1.165874666890817,-1.978172698062818,1.9398230435780388,-0.8578964562493725,-0.31734973617211676,-0.9587287735145738,0.19467200264284573,0.064128791382116,-0.8174158868092692,-0.5984275166975526,-1.0444431218999648,0.4901508074338591,-0.6706318485603091,-0.6689955925879102,-1.0327593872203127,0.6582685158961974,-0.5914930656051108,-0.4248653775092707,-0.5910485986093802,-0.4817499198412489,undefined,1495702838588
903d185fccf839df,-0.6071556676409926,-0.7571398253322308,0.5553025898950946,0.4837033472994359,-1.1470004149677853,-1.930907775747124,1.9445698487813767,-0.7695924568276815,-0.28301740800287817,-0.984551031793139,0.15233200997815613,-0.022796702122460627,-0.7434338792335116,-0.567875001268057,-1.0665483945089838,0.2678838773363457,-0.7578778210888418,-0.6363492679531013,-1.0416803209657348,0.358753353507016,-0.6516858946349311,-0.43126135270002225,-0.5036555874367737,-0.44712375498593715,undefined,1495702840083
903d185fccf839df,-0.6958606222430299,-0.4466085698181011,0.1297489974008646,0.1258599997885836,-1.1013422033553832,-1.7982552730422707,1.8793269923242375,-1.0227990990639506,-0.3248013177110651,-0.8731340236856243,0.09796473879243973,-0.0016074925809453047,-0.7913045900178254,-0.5919466706725508,-1.1054958186719728,-0.05945456884970984,-0.8152357162475571,-0.6636695874701335,-1.0539317369331378,-0.014966919857187086,-0.7501099153951951,-0.4209110207798518,-0.4156645446949848,-0.4025224430956805,undefined,1495702841585
903d185fccf839df,-0.6833864335482687,-0.6233003180765775,-0.25688580852171655,-0.23079042036830688,-1.21698430032223,-1.7238547139372875,1.9037342249821416,-0.8281165416137176,-0.2794028188719189,-0.7774737658783444,0.04675885875787494,0.02004023142348598,-0.8304715352049912,-0.6928625508492747,-0.9897062130949713,0.417408861412083,-0.647692384041726,-0.6952393119510824,-1.007444924612106,0.6187714977261517,-0.6183587327757711,-0.4118215987296046,-0.41410173561728264,-0.1857448226182131,undefined,1495702843097
903d185fccf839df,-0.8192159093004611,-0.7066564478098144,-0.3704519871105512,-0.45011805728224386,-1.3135978519303895,-1.6765501949413215,1.8793585520608451,-0.9593917642698568,-0.29449886620141935,-0.7341938649053029,0.05160276449225426,-0.02421955266028921,-0.7782489416221035,-0.7697067810476665,-0.9549693093351695,0.6477582299564604,-0.5543679019126876,-0.7955278074781317,-0.9822983860766457,1.0171908764688264,-0.554930648720716,-0.4427384380383913,-0.5614438622289767,-0.00047745393944475574,undefined,1495702844593
903d185fccf839df,-0.7720913881503061,-0.7759242760441228,-0.46168766022745056,-0.5226392329376384,-1.3494332237812914,-1.7506922084618632,1.9069767742240997,-0.9000809447223662,-0.29568673251348065,-0.7635698324456639,0.04910446398374284,-0.015293647073674645,-0.7216744652406417,-0.8345151635930369,-0.948653517687038,0.4780271638959238,-0.7786632848083398,-0.8551714711259325,-1.0212916131718894,0.9298047016440192,-0.6081613040583588,-0.446501619472041,-0.5853462512248904,0.022424269147308124,undefined,1495702846108
903d185fccf839df,-0.8704984703452634,-0.6426717837865908,-0.3825738113241485,-0.41649151463449163,-1.4155085389797426,-1.8228380631885122,1.8934937566769208,-1.0662998374188508,-0.2883610639105879,-0.7280455593173282,0.07126914294518215,-0.05088714084455092,-0.7826008244206774,-0.8558093192327464,-0.9654956508354235,1.0720858385783587,-0.5576789984105599,-0.8868488549517771,-1.0229358641255175,1.3005684734152234,-0.5326238020009051,-0.4350197240637075,-0.5662402565573809,0.010123905839503605,undefined,1495702847638
903d185fccf839df,-0.8704985048506731,-0.6191911400197468,-0.2938906897272578,-0.38960875375448123,-1.4349690820256316,-1.9124671882155897,1.9451904876364061,-0.8091299928786126,-0.2926468629739309,-0.6738521887371047,0.09010000419713525,-0.01252211196426776,-0.852230949197861,-0.840996016093426,-0.9654956581976574,0.4739859588048526,-0.6513490681907825,-0.860655799520054,-1.0067522408736163,1.7183898926528678,-0.4266588420378463,-0.4371881427342231,-0.5574431231549636,-0.04702568092693418,undefined,1495702849091
903d185fccf839df,-0.7526872364806952,-0.7853165452420574,0.025753108053416334,0.04549945548965251,-1.3794468857730307,-2.0145810349883004,1.936175518220462,-0.9590747860456549,-0.32385215896179,-0.5351187229888272,0.08395594148346584,-0.10843336174308597,-0.8348234180035651,-0.8391443208240745,-0.9528640417713421,0.9043754739898832,-0.610684556375136,-0.8677676947825386,-0.9771627275415731,1.5884270110668628,-0.44384268689794376,-0.4420249482489397,-0.558398254546117,-0.1188469363447997,undefined,1495702850592
903d185fccf839df,-0.6265599228268326,-0.8481272084970305,0.56997721976565,0.6041798792538261,-1.2452905412828015,-2.028130219965719,1.9630679072950976,-0.7618421225722658,-0.315633607710721,-0.5534239104368239,0.09535759956539226,-0.11099866158124809,-0.691211285650624,-0.8224793159400154,-1.0170746693380264,0.6497787618401921,-0.8267826244663296,-0.8621377084125404,-1.0627687089847422,0.6663219036454192,-0.6673003498115361,-0.4479883053835934,-0.6267301063946445,-0.5506251294527443,undefined,1495702852092
903d185fccf839df,-0.5600312500070668,-0.8651506580565469,1.0593318934126246,1.073319612246933,-1.0461080162043555,-2.038311324874196,1.9736002811659785,-0.6540682320812092,-0.3259071436115604,-0.5682903029773766,0.09948088138713547,-0.17125627327258286,-0.0950033422459893,-0.7715584568908561,-1.0191799221773863,0.49015083569858064,-0.7656353127614293,-0.7875672974085299,-1.0512659514814078,0.5190049754684544,-0.6671485183763629,-0.46304141638385804,-0.6451155380953254,-0.5484539602403483,undefined,1495702853603
903d185fccf839df,-0.42974586195314707,-0.7336591523373944,1.5314604022168328,1.579789252675708,-0.9723698520210237,-2.003824610013057,2.000879251873531,-0.4317485708602636,-0.24777117156845574,-0.5046234564557953,0.3000312533763465,-0.20381047433987678,-0.025373217468805696,-0.5650974810278853,-1.0223378161608936,0.49419198426020877,-0.6962969124845719,-0.690027300245822,-1.0354951395635141,0.42314965143448685,-0.6376391425058173,-0.472301460597899,-0.6723602347910613,-0.5463176533960501,undefined,1495702855087
903d185fccf839df,-0.26065199803295713,-0.7090045078023,2.050801711074072,1.986158537389969,-0.8933448397839773,-1.9722238219226509,1.9838670380781394,-0.4970790365421472,-0.2433484685988993,-0.6328073116331016,0.42273115058965843,-0.3517949880982229,0.061664438502673814,-0.44566489422236366,-1.0507589061858624,0.09411166271418099,-0.7675200012976766,-0.5964263924558922,-1.0517207430628523,0.005759389436690418,-0.690342241033607,-0.47660298124994804,-0.6666488290047248,-0.5820328341409496,undefined,1495702856592
903d185fccf839df,-0.47548426628885715,-0.717809747388117,2.006778583873254,1.976010605988921,-1.0579879932650003,-1.9683898938103535,1.877057468268785,-1.248623182994975,-0.1946620152738176,-0.4603291474632346,0.5157568217526411,-0.3061218776757387,1.0408380681818183,-0.4771432281472922,-1.0823378975565725,-0.04733093944413536,-0.8413665544584498,-0.5761863044186541,-1.0564156032528587,-0.11370174981057055,-0.7124289507447085,-0.4893223236403919,-0.6307203171561648,-0.5604790625533722,undefined,1495702858094
903d185fccf839df,-0.7041767365377342,-0.6262353199972035,1.6928770104648017,1.6796505696207151,-1.1408804281386542,-1.9262516271726304,1.8772652201236084,-1.2241379353009465,-0.24899593868070558,-0.532371629519115,0.5339988079728555,-0.3986274699038063,0.5838903743315509,-0.42622237557352016,-1.0865484290031104,0.3082961261001088,-0.610320091015126,-0.5054789878508597,-1.0636503055770017,0.3832984765446074,-0.5844879421137094,-0.45601455147142655,-0.6171861644133794,-0.40384649471870865,undefined,1495702859640
903d185fccf839df,-0.5226087874390122,-0.6297574538279204,1.0491232121542866,1.0096601106533232,-1.0545525736089736,-1.9361159552933311,1.8559480091542937,-1.364999381017991,-0.2833472170204975,-0.5766599187082165,0.4129352265821648,-0.2167224775885984,0.10518326648841357,-0.4391840676235237,-1.074969475807644,0.4355943832484289,-0.6381824451887976,-0.4851882358655625,-1.041694312990935,0.7190461767340376,-0.49549544331317735,-0.4593664522931341,-0.7079684856096881,-0.34390782409065235,undefined,1495702861093
903d185fccf839df,-0.6057696543427769,-0.6274093646074425,0.7109774820447406,0.7183179281396807,-1.1278793090885526,-1.9535316768052056,1.7808670469406769,-1.8847971008886788,-0.3068831743771545,-0.7722309235140778,0.31714261396580756,-0.1761802287165808,-0.8783422459893049,-0.42714826529821315,-1.0823378975565725,0.5851193673241663,-0.6558931482430062,-0.5135091592157262,-1.0456824959919764,0.7847051493420735,-0.49127502190146477,-0.4631161431815403,-0.694196482241696,-0.35356344767574166,undefined,1495702862586
903d185fccf839df,-0.554487162308794,-0.6632173379488318,0.7211854008922304,0.7287712141146696,-1.0847410967874962,-1.9699038989590203,1.8087114384869352,-1.7109187837505422,-0.2739146770974958,-0.7494635330080311,0.22437688362635305,-0.08204394641013459,-0.5214878565062389,-0.5030665733949756,-1.078127355066684,0.5871399557373411,-0.6261264868577692,-0.5849067656200732,-1.042226071736985,0.7641020270732742,-0.5374730375453469,-0.46124157262429627,-0.5671334373264093,-0.3329610693687242,undefined,1495702864094
903d185fccf839df,-0.6639822818786579,-0.7272019727440631,0.9470417364468448,0.9239937142201211,-1.2258402867006712,-1.9520875478214663,1.822836132269331,-1.6379978044864067,-0.24873952473526698,-0.7313155826369727,0.23052866604624797,-0.1372517357639182,-0.19074476381461675,-0.5317674453582181,-1.0444431034943802,0.7043351294961793,-0.5444090396156416,-0.615355559197467,-1.0176252848842167,0.7347987831946344,-0.5527150547166715,-0.4496432104205873,-0.49493724411308987,-0.3203370462397053,undefined,1495702865598
903d185fccf839df,-0.5392409470176013,-0.7618359453172019,0.5584927710212065,0.570034662575473,-0.9373470533509719,-1.947792430826959,1.8825958427433975,-1.1672658174167196,-0.2612707405180989,-0.685650180747493,0.21970746064356658,-0.13298793724516048,-0.8043602384135473,-0.5289899445442082,-1.0054957235047939,1.1205804409948212,-0.529539250578709,-0.6135760009223235,-1.0093620512755632,0.9314061355817203,-0.5078636144383745,-0.4214054952899681,-0.4823511541729915,-0.34191096907145296,undefined,1495702867094
903d185fccf839df,-0.5350829416283637,-0.8463661927306587,0.11635089742726296,0.021926920060167637,-0.758447926403316,-1.9881418419089087,1.9259744953959137,-0.8767375826507408,-0.25475129432995985,-0.8061493007831014,0.20699988888103868,0.026092434910283985,-0.8304715352049912,-0.6576808846641288,-1.068653662072811,0.4659033790343809,-0.7080251813658625,-0.6842516523121877,-1.0449688218086224,0.5165104210731066,-0.6355634623237503,-0.442307338586438,-0.5514222160493225,-0.38817667055717364,undefined,1495702869566
903d185fccf839df,-0.5433990214176583,-0.8305167293253966,0.04425580279313637,-0.009876478319046119,-0.7444285225381956,-1.9826308619149262,1.9526906913048114,-0.6902991113053438,-0.2739797065806861,-0.9186467746187581,0.1807487597502378,0.03228547125859976,-0.7738970588235294,-0.6456450370111073,-1.0707589406799893,0.35072882195343913,-0.7564023618557751,-0.699944686761375,-1.0598160547091457,0.36443537567645506,-0.6788048508805726,-0.4388888080695239,-0.5609944427056722,-0.46741700809849995,undefined,1495702870089
903d185fccf839df,-0.35351499252964175,-0.8451921335064235,-0.044427827077653206,-0.13263947200762136,-0.5925293480659333,-1.9700040559704008,1.938331941347825,-0.7500452319980603,-0.25947795573435034,-0.8287338485488108,0.15307501971892556,0.044509245874596065,-0.45620961452762926,-0.6641617112629686,-1.0833905313384862,0.692211542487687,-0.6497569638555577,-0.678779988842041,-1.061838133603041,0.4919345018715872,-0.646306305431488,-0.43652261518723395,-0.5503063418849158,-0.4483130243990393,undefined,1495702871598
903d185fccf839df,-0.5974535400480726,-0.8217115043535758,0.11188469467809614,0.11302728283315021,-0.8219415409095243,-1.970139151592248,1.9006363007891396,-1.0595371705795142,-0.2906956367828648,-0.910775343858477,0.12087368056617152,0.015556935123160621,-0.6476924576648841,-0.6873075621720295,-1.0644431379885069,0.5366247649077037,-0.6793924903959709,-0.6900589610331762,-1.0605647139500807,0.5558226504666021,-0.6319487179988874,-0.43188217266338197,-0.6122936399795654,-0.4573049980271858,undefined,1495702873135
903d185fccf839df,-0.4020254579671931,-0.838147953528967,0.4666187058873556,0.44772983764376323,-0.9610350179616931,-1.964362638750556,1.9039393349870009,-1.061212606075905,-0.2907631969494381,-0.8382739888704344,0.1473141024965076,0.04433066503509535,-0.8826941287878788,-0.6937884146724186,-1.0591799764411722,0.6517994633122531,-0.7092655167568523,-0.6990454086484521,-1.0746492938716914,0.6505384874374243,-0.6100534421848463,-0.44313596417903706,-0.6575953176989306,-0.5127492457326916,undefined,1495702874587
903d185fccf839df,-0.39648147378514953,-0.8058621286322907,0.020011137818144037,-0.016681971808045405,-1.032510327736286,-1.9963221300130334,1.9447907491297574,-0.8099191697954581,-0.2985836116097346,-0.9302413964637676,0.13172897220817156,-0.04331998455088965,-0.8696384803921569,-0.7419317729075681,-1.0812852711368925,1.207466449379378,-0.5287986071002114,-0.7681504913628062,-1.08872687747179,1.1801680193836501,-0.51027904715508,-0.47020021513888355,-0.7925944643456646,-0.5244300857525613,undefined,1495702876084
903d185fccf839df,-0.6043836582972659,-0.81408033860599,-0.289424486978091,-0.30404960264873204,-1.2369899816842134,-2.004528039949245,1.939891413230484,-0.8906665402287932,-0.2832077752193931,-0.685698140740784,0.11563206685627857,-0.05454497111046925,-0.8043602384135473,-0.6808267226224151,-1.0865484326842274,1.3489091080671376,-0.5361308191194292,-0.7564028808246342,-1.0869217001310318,1.4112524870324294,-0.4452991049164884,-0.470634366686008,-0.8629181884128472,-0.5473390081321577,undefined,1495702877597
903d185fccf839df,-0.7069487803868706,-0.7342462257915006,-0.3321713384189045,-0.3083828613131308,-1.296842454483513,-1.982267499977653,1.9523488000941884,-0.7860450995703621,-0.3391467874343535,-0.5883360207788578,0.08222339056954946,-0.006989242367150559,-0.7608414104278075,-0.6604583790027513,-1.0707589296366387,1.27010545333528,-0.5677785318416877,-0.7367454229247062,-1.074397408478268,1.0809558318864878,-0.5047985465632799,-0.46575065060565646,-0.9149038637209542,-0.5894776995357571,undefined,1495702879098
903d185fccf839df,-0.8400061260264022,-0.6321054699784174,0.12273125967948684,0.16970745724891947,-1.400460565340757,-1.9438117615626738,1.9524618894995387,-0.7785641752278256,-0.35495567223719277,-0.5088538810193917,0.07925339153073999,-0.06478414526049128,-0.9262129567736186,-0.6132408586891966,-1.0844431651203998,1.3084970006269823,-0.5090759581165732,-0.7032948150463652,-1.0780777309382295,0.9868867298532691,-0.5093926398541072,-0.4524151667300587,-0.9423437269139631,-0.5963877660054827,undefined,1495702880586
903d185fccf839df,-0.6528942099983416,-0.6062768246750725,0.2088623380302678,0.2821213979174797,-1.2539819553383225,-1.9542118144932774,1.9840958367408468,-0.5566459978434897,-0.38916216633168194,-0.5712783224337302,0.07739452267791859,0.0022534329970280357,-0.9262129567736186,-0.6224991861020465,-1.0739168346634966,2.3410275158824256,-0.19812925269751477,-0.7282782784018064,-1.0427508329136423,1.8399452075166194,-0.30811863291779296,-0.41821560387761114,-0.923057475252564,-0.4449454053128441,undefined,1495702882093
903d185fccf839df,-0.7000186966430869,-0.6432587695567199,0.1278353461717064,0.07145804758882777,-1.2529636688948795,-1.9725569026460663,1.962626095075596,-0.7273737296619885,-0.3013300453675495,-0.6214492762528818,0.07707368045506487,-0.08709494355697017,-0.7826008244206774,-0.5595424923506401,-0.9412851106625771,2.332945303553334,-0.15301198062079663,-0.6748978964828062,-0.9661217603207319,1.770759993082278,-0.3050064429671128,-0.41034723080892366,-0.7861960759688232,-0.27542682955252157,undefined,1495702883627
903d185fccf839df,-0.6792284626644409,-0.7348331969476334,0.08700214596005107,0.0851200924452618,-1.2592585160825784,-1.9978384640339668,1.933593031316248,-0.9471332598775638,-0.26862233305919175,-0.5333633686702747,0.14086696927422507,-0.03721319832777993,-0.9088054255793226,-0.5076957889044987,-0.9233903400511609,1.4378158461884771,-0.21269462716863893,-0.5981236210292333,-0.9601114996859104,1.3102694868844351,-0.38868742667569645,-0.42669809206882187,-0.6637363506462245,-0.17188559269992695,undefined,1495702885092
903d185fccf839df,-0.6321039760196956,-0.7348331969476334,0.5068135140820593,0.46156102024504125,-1.194396910001851,-1.988449300675655,1.8796346693780275,-1.2695464420069547,-0.248160566498719,-0.6670261169770134,0.22260918982202985,0.009499253446599366,-0.8217677696078431,-0.4752916300087499,-0.9265482377157852,1.5105577074160885,-0.16457663055602334,-0.5550089405067689,-0.9356926289555573,1.4885218924476329,-0.3275873571274779,-0.41822316226632716,-0.684068169969633,-0.18005693362323139,undefined,1495702886597
903d185fccf839df,-0.6071556848936974,-0.7788593948767183,0.566787038639538,0.520971120559224,-1.2457533934384357,-1.9963174712781848,1.875545333895993,-1.3135005317999602,-0.272600285419981,-0.6701970468600459,0.25173217142748516,0.12571693554848193,-0.6389886920677362,-0.4910307710696651,-0.8697060650280812,1.7004948554614243,-0.06900653072814705,-0.5797327529776536,-0.9080832133218278,1.734219491165686,-0.28066874938320774,-0.42164245075306694,-0.64029230680739,-0.1885515893515101,undefined,1495702888088
903d185fccf839df,-0.34658499504938245,-0.7753372902739938,0.11890294067337275,-0.005223008510184972,-1.0143869263316647,-1.9786618387842125,1.8840264474474469,-1.1906020120010623,-0.22023657330187815,-0.8035580788044758,0.18228040770560694,0.05432088723837876,-0.5954698640819964,-0.5678750077434442,-0.8949692316206076,1.4519601346690303,-0.13036706693065658,-0.6274958141870072,-0.9101822564135533,1.965627328295882,-0.25402535887280553,-0.4133848483130583,-0.6458809098564674,-0.22305506203470704,undefined,1495702889588
903d185fccf839df,-0.48795848948902815,-0.6321054992064098,-0.06803410003569396,-0.17712134039455338,-1.0960862172660533,-1.971781266487114,1.9229239233780842,-0.9460486512891727,-0.2265080942427175,-0.8219241737978331,0.1441539355323507,0.04542719523032431,-0.5954698640819964,-0.6724942137049982,-1.0602325991797352,0.7164588578282791,-0.6369918432534311,-0.6833713763689065,-0.9979502524298498,0.8615125989975976,-0.5571093990130253,-0.4370336352809672,-0.5226081472218447,-0.3716746202714143,undefined,1495702891094
903d185fccf839df,-0.5503291569195564,-0.6186040957936332,0.023201064807306552,-0.08875367890627912,-1.0802051023930106,-1.9488359307956977,1.9259534569682044,-0.9109243163028059,-0.2549191577246166,-0.6174913071652246,0.12902639727763265,0.05114941304432458,-0.5911179812834225,-0.6724942396065473,-1.0602326139042029,0.5386452967914355,-0.6726732877743289,-0.6898119798341275,-1.0096978977388644,0.7806399642406651,-0.5756518830794055,-0.44035705965016697,-0.5301608622555308,-0.384130866105601,undefined,1495702892613
903d185fccf839df,-0.7513012231824795,-0.73600721232988,0.46087698978903274,0.44745343733500387,-1.1743706623991328,-1.9684085270450096,1.878906236340316,-1.2578435751971826,-0.32955588753979626,-0.8139318624422617,0.16554428987938377,0.0459986476821843,-0.3909313725490196,-0.6891592185890573,-1.074969479488761,0.2739456708405918,-0.7367559277977962,-0.7205710860626904,-1.0215155107957388,0.7363848328492387,-0.5995120378314795,-0.4416708327367781,-0.5973926975737222,-0.38943049417914194,undefined,1495702894120
903d185fccf839df,-0.7208089306217329,-0.7870775902364215,0.8232676390105205,0.7620292327422168,-1.0986987907575028,-1.9523880194345768,1.887844935694444,-1.1589208973981981,-0.3658082187362084,-0.8975592069288787,0.13021938720024795,0.11066050183091693,-0.4083389037433155,-0.671568388734178,-1.0812852674557756,0.08198801917624574,-0.8414902486948383,-0.7279616311847168,-1.0516507761530296,0.48800790895839563,-0.6634810431769098,-0.4729176880982754,-0.6350575766365524,-0.4579443820397758,undefined,1495702895644
903d185fccf839df,-0.6875445769591452,-0.8211244893554543,0.7671226875961052,0.6848412528727041,-1.134966157014752,-1.9692423948190987,1.8897278697368054,-1.1645548776515982,-0.353965774740656,-1.0273961817240516,0.09143108235976478,0.04364218471523278,-0.9784355503565063,-0.6604583919535258,-1.0654957717704208,0.28202808102273424,-0.7107628327226216,-0.6895649927828228,-1.0373353009097193,0.8630370458372066,-0.5554549878207099,-0.4519340540479187,-0.6117612100230551,-0.42425584029636737,undefined,1495702897098
903d185fccf839df,-0.6764564360680094,-0.8422570292878243,0.5431805115445478,0.4543625595538552,-1.2259534308124707,-2.0053875295209913,1.9429551463121322,-0.8437853603468025,-0.3432723348537819,-1.1019644988922335,0.06238884113844496,-0.06320421145152674,-0.9479723707664884,-0.6956400581386718,-1.0265483623318992,0.7750564023106159,-0.5978967687113476,-0.6641445565074249,-0.9954174074124428,1.3397421207441589,-0.4279837022084494,-0.47257425127935393,-0.6374990052123658,-0.28742920301403413,undefined,1495702898597
903d185fccf839df,-0.7873375689360891,-0.7941217848278743,0.5840132034823043,0.5151984666010738,-1.3213224128249095,-2.0021568747688594,1.8852466804446657,-1.2483691075348828,-0.3136306369737128,-0.9483565513307785,0.0502495588214815,0.01793982749301779,-0.9175091911764707,-0.6234250240236412,-0.998127283350281,0.9649935220912301,-0.4771593167072428,-0.6234427261086603,-0.9673601954849972,1.2682317363221578,-0.4173675934301182,-0.4646937789383887,-0.6804026944736801,-0.2961907293226537,undefined,1495702900089
903d185fccf839df,-0.580821449480303,-0.7365942565559938,0.7562763767316639,0.6700074706878837,-1.2114711707746697,-1.9928795143720246,1.9112291659010543,-1.0302348738951381,-0.3032741072897449,-1.087425659951696,0.05355699993239438,-0.041312983695626825,-0.8783422459893049,-0.48362413245077945,-0.968653574267866,0.983179043927576,-0.3867684128486042,-0.5584540581632406,-0.9445855767420556,1.1945809731391872,-0.3939305930720957,-0.44974619285636436,-0.7274880588459581,-0.31807481052032777,undefined,1495702901598
903d185fccf839df,-0.4297458964585568,-0.7471605411361749,0.9917024932537659,0.99276011526969,-1.0311114713866498,-1.9620683377734942,1.9201021385002226,-0.8984115903721895,-0.35607202897869006,-0.9834083668794489,0.07887398958852566,-0.04391100664434526,-0.7390819964349377,-0.4502940967811122,-0.9739167394963177,0.9649935503559517,-0.39686663513948944,-0.5312414002832838,-0.9308578342791457,1.213490263447187,-0.37513913064821836,-0.4196083386226872,-0.7625478366954264,-0.331653486731442,undefined,1495702903100
903d185fccf839df,-0.44360596042989486,-0.7618359160892095,1.2705135990966836,1.186741003678658,-0.9510167474578111,-1.958793427421407,1.9328961381122296,-0.7988517491546094,-0.3848710579165292,-1.1747938442605539,0.07658368165751979,-0.06306459007587897,-0.47361714572192515,-0.4502940967811122,-0.9518114043083115,0.7568709652684346,-0.3863028114475529,-0.5019135380579149,-0.924553707422343,1.1381764668367111,-0.3746377893716876,-0.41349120670986267,-0.8032010283063798,-0.36170272406597903,undefined,1495702904589
903d185fccf839df,-0.5184506785335455,-0.730724121188776,0.9642681554265605,0.9226347097524945,-1.0094086468264891,-1.950755222963935,1.929932350132462,-0.8457673955046502,-0.37108274485953,-0.9244335386211789,0.06499785408995176,-0.08996717291456324,-0.8826941287878788,-0.45677489747840305,-0.988653568269707,0.2820281375521773,-0.6860852083741306,-0.4925724462278851,-0.9659678304386257,0.3684081753420239,-0.5645922955980573,-0.39844749722247086,-0.5929877346557745,-0.4777528916328821,undefined,1495702906099
903d185fccf839df,-0.5198367263371709,-0.7360072415578723,0.55147452502593,0.5069415010634106,-1.0719251176073898,-1.9995062002412982,1.9320598532781381,-0.9038911414636203,-0.31118272954462484,-0.953129003797111,0.042042846730450494,-0.023262625997898724,-0.9436204879679144,-0.5243607808377833,-1.000232528827407,0.4941919277307657,-0.4686609919824706,-0.5129328606434636,-0.9756514172302483,0.7803319915084437,-0.4671758727704488,-0.40155634912027943,-0.796879658532929,-0.5806718723481257,undefined,1495702907628
903d185fccf839df,-0.6362619814089331,-0.7682931249105334,0.2343827704913656,0.18883277756228217,-1.1132221910447964,-1.9998206471248143,1.9076684067736687,-1.0856577833371452,-0.29188457955762953,-0.6335870121862125,0.029163868186259507,0.043816642336713466,-0.9436204879679144,-0.5762075037100866,-1.0065483278377725,0.6113872710779331,-0.607225812791389,-0.613044034838269,-1.0070531043652537,0.9557818802965881,-0.4820095317719444,-0.43238261664450284,-0.7582503429227785,-0.5545661339204366,undefined,1495702909088
903d185fccf839df,-0.7152648429234602,-0.671435533308535,0.09721082721838903,0.06418893403346575,-1.2006711845151397,-1.9642927611939311,1.9291328846419045,-0.9104915945596543,-0.3237308448717356,-0.6679821088957554,-0.019665771258046926,0.05710819835507437,-0.8826941287878788,-0.544729169785158,-1.0044430565928282,0.516418711187626,-0.6126255045324656,-0.6505603932385057,-1.022970848277774,0.9238609036403254,-0.5104033525972751,-0.44911160380510046,-0.7478172440452936,-0.5343441483197439,undefined,1495702910585
903d185fccf839df,-0.7097207552251874,-0.5411180721996215,0.13612935965308848,0.026746509478194867,-1.2398699735461227,-1.894420242823578,1.9556413349811093,-0.6572981348852838,-0.39705359412346425,-0.801184014560861,0.00195224423740744,-0.008931059944464833,-0.865286597593583,-0.5539874907226204,-1.019179933220737,0.684129104040823,-0.5922984454222601,-0.649306470523262,-1.0478864920910063,0.8173652541395314,-0.530491880352167,-0.4432022570236754,-0.7407269889433319,-0.5050205062623883,undefined,1495702912080
903d185fccf839df,-0.5420130081194425,-0.5006140081012534,0.36964157080908283,0.2743826841912048,-1.1379695712455613,-1.8845792076957686,1.8841184973775664,-1.0906404531370935,-0.4229391810685112,-0.9182773371536436,0.024172864586906886,-0.03951142011619185,-0.7869527072192514,-0.561394174669217,-1.0223378308853612,0.6437169966006676,-0.6113598717640139,-0.6426885445963174,-1.0550162426190228,0.8153788543000159,-0.5326042378040214,-0.4618363615548986,-0.7344792880723527,-0.4708931585446892,undefined,1495702913589
903d185fccf839df,-0.4574660934120524,-0.6491289487659262,0.606981338560343,0.5177064442436732,-1.0712668243726815,-1.9337983620726837,1.9098564011603782,-0.9591323929554055,-0.43262218741748976,-1.0197017049076909,0.06438021902033135,-0.0828776230252268,-0.5780623328877006,-0.48547576296625816,-1.0402325941345436,0.48408895740016994,-0.5631797978699498,-0.6071290662740848,-1.0470678652245522,0.9138673121687407,-0.48216848762395614,-0.4593288169244572,-0.6210676895528409,-0.5086852713507942,undefined,1495702915103
903d185fccf839df,-0.35351495802423205,-0.8111452636153831,0.5106423413620723,0.3938203858679246,-1.0348245994192973,-1.9915192388436633,1.9344398217464114,-0.8714229328901368,-0.3366357518598375,-1.0063985064592809,0.13562437370058275,-0.01866702068045413,-0.8913978943850268,-0.46695912756672037,-1.0233904609861582,0.579057460761034,-0.4701331761322538,-0.559258346738582,-1.0570663081202503,0.9928305358401125,-0.4430011906144427,-0.45600349228377796,-0.661163685502567,-0.5709482615383548,undefined,1495702916612
903d185fccf839df,-0.548943109115931,-0.788838664458778,0.5297824115709462,0.49382125202769167,-1.1285478723382147,-2.000377334367366,1.9430024722992603,-0.8447186048205034,-0.3729322491270159,-1.0012953356017213,0.17797216001482868,-0.016947803109536436,-0.9566761363636364,-0.4660333025959001,-1.0423378506550205,0.6113872428132116,-0.49431025239615684,-0.5260420571894179,-1.0524903939108936,1.0394416301252483,-0.41376913358893264,-0.4589685590641414,-0.723227588028423,-0.5692183710979699,undefined,1495702918111
903d185fccf839df,-0.5683472952909515,-0.7559657807219918,0.7817968091927617,0.7293356361438239,-1.1445524187405434,-1.976621423140011,1.902590247381433,-1.0806087291387334,-0.392380817053645,-1.1296141975803018,0.16781472973184153,0.028927880967854435,-1.030658143939394,-0.4938082848344495,-1.0454957409574108,0.6982733642566546,-0.42415165569694013,-0.4815974582344778,-1.036327760883642,1.2012484951440732,-0.36064727137638114,-0.4726652685327103,-0.7787185477208528,-0.5959745926713396,undefined,1495702919600
903d185fccf839df,-0.5974535745534824,-0.6555860845172691,1.1869340557181136,1.0960869665392403,-1.073827967384419,-1.9638455464400473,1.9094934909012,-0.9895089438310071,-0.3869051239923948,-1.2779852171519155,0.11303080160184785,-0.03765091379610716,-1.0088987299465242,-0.42437073858265423,-1.038127300802898,1.260002369945798,-0.292341430229699,-0.4860495191733407,-1.025993471120917,1.4672720397780286,-0.3035700452917064,-0.46923628982290716,-0.7199881013091165,-0.564948530115289,undefined,1495702921145
903d185fccf839df,-0.48102838849253965,-0.48828667852670815,0.6950273388250292,0.6417383205577698,-1.0214429114252535,-1.883295797061144,1.898248445005519,-0.9467268006366636,-0.39403118977413837,-1.1565871678682371,0.04275593159850852,-0.07041865418601072,-0.9262129567736186,-0.5252866705624762,-0.9970746385250167,1.1973635073135038,-0.34667637111436844,-0.5628617928647912,-0.9842994749355198,1.6686529094053377,-0.2819309410801519,-0.4738614365411921,-0.7090828507098313,-0.5775769547780836,undefined,1495702922588
903d185fccf839df,-0.4948885214746972,-0.4178448056821608,0.0818980594678315,-0.10495076151021691,-1.0389800278906276,-1.81632085208074,1.8629012058458472,-1.127378836432685,-0.3365976693304185,-0.8805206921446748,-0.0011126283420172835,0.054439856878378025,-0.7303782308377896,-0.5817624988627189,-0.9886535829941745,0.7063557744387972,-0.5591585317800208,-0.5905874202844132,-0.9610000945510242,0.7198160987371057,-0.5219388392535342,-0.48177157669791953,-0.5782343572290858,-0.4569795543204723,undefined,1495702924090
903d185fccf839df,-0.4948885559801069,-0.4284110756483458,-0.0833468677862515,-0.16721636119363595,-1.1800997933069497,-1.7954601844876659,1.8965758769086176,-0.9292759022319338,-0.28297848983123775,-0.7563393945518171,0.016376964496633235,0.04535040636526309,-0.29518995098039214,-0.6919367323538417,-1.0076009468952185,0.5325834184930248,-0.6646246852670314,-0.6554620936823001,-0.9593418502814958,0.5090267786459448,-0.6013679148532859,-0.4452350428279756,-0.5114595791229696,-0.41373671159930736,undefined,1495702925590
903d185fccf839df,-0.4948885559801069,-0.5088322180749528,0.15399366237585693,0.13292236690222722,-1.180727221320425,-1.8647550510676383,1.949303491873374,-0.6685226259703898,-0.2892106942202374,-0.6849812705061555,0.001964938768774336,0.11542462330158595,-0.499728442513369,-0.6761975524406029,-1.012864119485904,0.4739858174812449,-0.6760069012830058,-0.6643788780866247,-0.9570818798911983,0.533664292221591,-0.6047730821464704,-0.44445349522188615,-0.4711484633759099,-0.40515065310445075,undefined,1495702927082
903d185fccf839df,-0.586365502673166,-0.6855239371054368,0.48129308162096157,0.44922956258387303,-1.2304585645269062,-1.8974459247519575,1.9420610246572327,-0.7728102538953845,-0.3520853497169047,-0.7658449489407789,0.035805615624595506,0.06501208205778718,-0.9088054255793226,-0.7548934325806352,-1.0307588753728527,0.6073460942515834,-0.5664369939018803,-0.7197414700201654,-0.9375677740564096,0.8022131804009586,-0.5642409443164451,-0.4527934546820046,-0.4936966705439535,-0.4615784487236496,undefined,1495702928604
903d185fccf839df,-0.43667592844422587,-0.7506826603528955,0.5202121223295598,0.4870632519050396,-1.2048677476064962,-1.9403155736108313,1.9835935552782689,-0.5306005716683576,-0.3632969661308032,-0.7818470003862503,0.012348336597929404,0.023748239574619003,-0.8739903631907309,-0.7437834293245958,-1.0454957335951771,0.6315932400038462,-0.6118640429323613,-0.7372267267161647,-0.9698160750566935,0.9404604233215482,-0.5541863147303625,-0.4590479089653077,-0.42239666434820466,-0.48864241325816454,undefined,1495702930084
903d185fccf839df,-0.4962744830147983,-0.7500956161267818,0.354966686801578,0.34042309877527327,-1.2097843074180055,-1.9484795564510433,1.9747652888142215,-0.5900074519744367,-0.3499373829301958,-0.8964216666744182,0.012050551263338873,0.08290477832829225,-0.6215811608734403,-0.7030467356098811,-0.9949693488744878,1.1387659345664456,-0.44650122050034385,-0.6824910946896393,-0.9575156811745883,1.0186229327299943,-0.5071226846813741,-0.443901136991582,-0.4017551847985708,-0.46668407377172627,undefined,1495702931598
903d185fccf839df,-0.5115206810532862,-0.6256483196130783,0.12783483789780756,0.0037355726031877735,-1.1871763495165428,-1.8809688884066997,1.948856433664728,-0.6682419668777733,-0.2739089229333063,-0.9154700836904877,-0.04359305430720469,-0.04394250285525014,-0.6085255124777184,-0.6873075815981914,-0.965495669241008,1.0559210182140737,-0.45932749226337255,-0.6614530561698364,-0.9432491842802914,0.9859936261158104,-0.5017021777958155,-0.4463770619072213,-0.43899521268063413,-0.46954746666382885,undefined,1495702933141
903d185fccf839df,-0.49766051356571894,-0.5798610913036254,0.15909724059417765,0.008210565483586198,-1.2050528915175438,-1.8751411317522406,1.9423660703362757,-0.7043704802209215,-0.2865329247512884,-0.9160716301891549,-0.04576628482872556,-0.04782954856262804,-0.691211285650624,-0.6910109073830215,-0.9633904016771806,1.1508895215749377,-0.4334266271631871,-0.6701291892182568,-0.9463277809436882,0.9838686405095999,-0.5063565928262751,-0.4446534725654651,-0.42340472708197413,-0.46795491178735116,undefined,1495702935306
903d185fccf839df,-0.6293318804124446,-0.4207799099007601,0.03404712153479841,-0.10478320878851113,-1.1803466471391184,-1.7836742378090462,1.885677971355269,-0.9627002334335593,-0.31269814743664887,-0.8242510484385529,-0.06786395620540693,-0.1283647560535542,-0.6389886920677362,-0.6937884211478058,-0.9897061983705038,1.1428071113927953,-0.4647610925674773,-0.6856702332683365,-0.9355247052314833,1.2860015380053842,-0.44503336136916044,-0.44175598150798556,-0.47269051404014123,-0.5023288106175365,undefined,1495702936084
903d185fccf839df,-0.657052232640284,-0.6890459978661728,-0.25050544626949267,-0.3611639788200136,-1.285826469790489,-1.657156950850671,1.8491368118983198,-1.079324834586692,-0.3497982678832244,-0.7582985528101395,-0.017583747952987498,-0.1823239235278468,-0.2734305369875223,-0.7271184438666985,-0.9444429862404999,1.468124785444986,-0.4809459499989478,-0.7586004128897225,-0.9403664992390007,1.562018678270778,-0.4060786228981877,-0.4439696992938002,-0.5053247185268184,-0.5039352945906518,undefined,1495702937589
903d185fccf839df,-0.6986326488394614,-0.6673264429356816,-0.24922967878338723,-0.35685863065170403,-1.43875421117187,-1.6695252106163843,1.8968046713812377,-0.8153128087993737,-0.2913754958996635,-0.706070405983295,-0.016617630403165533,-0.0979432979567021,-0.2168560606060606,-0.7197117663954893,-0.9928641033973618,1.082188893703119,-0.4770802973595359,-0.7779602225253995,-0.9903307257093527,1.020717125780176,-0.5533197544578118,-0.43536391198112717,-0.46794295853935103,-0.3901450116082617,undefined,1495702939091
903d185fccf839df,-0.6917025823483827,-0.32803139405761916,-0.2919765302242008,-0.4174994273600102,-1.4001828477937475,-1.7873288128856237,1.9215248427949014,-0.7800506799960513,-0.3549555270930452,-0.7150305849523566,-0.012695483645392766,-0.04908667001173979,-0.6085255124777184,-0.7808167907790932,-1.0391799382659286,0.9730759888028157,-0.5585192415763444,-0.8173258001306247,-1.0230268234498983,0.820367954595994,-0.616523951327321,-0.4335557000046374,-0.639858355795527,-0.45755620432126076,undefined,1495702940588
903d185fccf839df,-0.493502559934596,-0.2435012343281394,-0.11397138673956886,-0.3553726736397339,-0.9454727526390047,-1.5867021215500825,1.731216309361039,-0.8431230820196209,1.2328914094783792,-2.1371853383781745,-0.895406148039632,0.06639841269632578,-0.7173225824420678,-0.7298959252545466,-1.0160220171505283,1.4499394897264124,-0.23542853255890847,-0.6373688731973512,-0.881425364095785,1.2251160893014146,-0.4063832449904989,0.05119384863441224,-0.3192338893870603,-0.1472267253026137,undefined,1495702942085
903d185fccf839df,-0.2384758542723246,-0.13783838852632796,-0.2607136192539318,-0.49686165237491714,-0.7695873339233597,-1.517949966708948,1.6980597169132592,-0.9369115430773786,1.0497497178060395,-1.974916535262302,-0.8552526648043589,0.031210950572752597,-0.8913978943850268,-0.6771234033129722,-1.03917996035263,1.2074665059088212,-0.29142419071942066,-0.6475015832804983,-0.8826148216573182,1.2737751755923736,-0.4021478330079357,0.05618529534741873,-0.31920623395162706,-0.1466164743730153,undefined,1495702943603
903d185fccf839df,-0.30916253248132797,-0.4788944531707621,-0.4144746060374702,-0.5794883671366804,-0.8040341319108276,-1.4256072770548478,1.680745077290831,-0.9628599860363125,0.9763373918165558,-1.9627083120872513,-0.7561904442365756,0.0009376673485606974,-0.9088054255793226,-0.6937884146724186,-0.9539166645099051,1.0175294991870931,-0.41210743014525286,-0.6576089608470227,-0.85720240429631,1.1271203756154693,-0.431816128240929,0.03212683030111605,-0.32664970638734153,-0.10642374813526795,undefined,1495702945145
903d185fccf839df,-0.5683473297963613,-0.7923606959915217,-0.665851119916233,-0.7258909925837858,-1.1305433030271006,-1.6022125247919083,1.8632799033059821,-0.9057376243124147,-0.2895398685961402,-0.6439284300535486,0.029738411109137615,-0.04944165524942095,-0.7434338792335116,-0.679900904126982,-0.9497061514689517,1.0296531427250284,-0.3842168152124028,-0.6845303044694458,-0.854956427533883,1.128460038740357,-0.4421135060173435,0.043680089707917924,-0.2846034091635061,-0.08055856418344444,undefined,1495702946597
903d185fccf839df,-0.8039697630200878,-0.8763039576348495,-0.7487927795517503,-0.8180897909859507,-1.4052639839452237,-1.6028833454112117,1.858485770020473,-1.0123452077781594,-0.3147834597944045,-0.6943814631108618,0.05606629398286693,-0.07842192123123759,-0.6476924576648841,-0.7530417696882202,-0.9454956310657644,1.019550031070825,-0.29035521739427417,-0.7446426056780772,-0.8654726341775387,0.9515011038197175,-0.5134579279155556,0.08201413196675711,-0.1251748502908624,0.0018973385391658536,undefined,1495702948093
903d185fccf839df,-0.6113137592937544,-0.8393219542972173,-0.7609151120392464,-0.8182564613278662,-1.382532594710526,-1.642834456881828,1.8520664108617777,-1.1137469582566535,-0.33126056253487335,-0.6781009556940171,0.061626358647607946,-0.0021621103099164424,-0.8348234180035651,-0.9067302074211484,-0.943390363501937,0.3567905871929637,-0.5629592469599709,-0.8371542471333488,-0.8969792735185138,0.2975753237851163,-0.7025686124068751,0.10631701162719276,-0.35596691386234613,0.2103734976435338,undefined,1495702949583
903d185fccf839df,-1.0700845578153804,-0.9109379009799959,-0.8362001336625355,-0.9392404180950441,-1.584852253316645,-1.5766235013899688,1.8403585300317133,-1.104681731677966,-0.3139044016888936,-0.6880543852372648,0.05885242118895528,-0.10018350173599608,-0.6433405748663101,-1.0196819190624256,-1.111811621363455,-0.18271164917168026,-0.8173285493033505,-1.051106414802239,-1.1263907099682806,-0.1973769050850781,-0.9652582615168745,-0.47510622708993,-0.6460983875565801,-0.26541896880725696,undefined,1495702951074
903d185fccf839df,-1.1366132996459657,-0.9948810457113544,-0.9370060960208213,-0.9963455237437008,-1.4989872544315073,-1.565927634633372,1.8358747072697836,-1.1091958558231656,-0.3108253263007636,-0.684048867312407,0.06140745823572187,-0.03926399780073783,-0.2734305369875223,-1.096526136310043,-1.2118117386173353,-0.7403994073726701,-1.1072427576399395,-1.099401443258347,-1.2092959221194335,-0.786767802071704,-1.1413413936404837,-0.4749478795752052,-0.6595087307785076,-0.42174551078097783,undefined,1495702952593
903d185fccf839df,-1.113051039070888,-0.9807926857564411,-0.9140377068058333,-0.9952814792791003,-1.4253210899574005,-1.5853837697453925,1.8370765374041267,-1.095854850522533,-0.3121151271885694,-0.6991264655389623,0.05413419311412815,0.03139007602712224,-0.13417028743315507,-1.066899458802142,-1.2318117620681113,-0.7302963593140901,-1.0923108269509947,-1.0585919546718499,-1.228600123542283,-0.8397846474412137,-1.1426820553956758,-0.4719086016643419,-0.5995231472331871,-0.5028518442940587,undefined,1495702954082
903d185fccf839df,-0.9702914968276171,-0.3697095466082147,-0.7373088390812057,-0.8481045010689277,-1.3326778172900593,-1.7223779766038747,1.8736965752521586,-1.014806700888986,-0.3322871762728031,-0.7083419973162239,0.021780316601319415,0.026516803368350588,-0.17768911541889482,-0.8974718541067496,-1.1876011837200213,-0.6939254463657353,-0.8958966388434456,-0.9205084515549585,-1.1779781968739917,-0.76103699880206,-1.0442655804100347,-0.40041335168503456,-0.4949912093537275,-0.45851750382425505,undefined,1495702955592
903d185fccf839df,-0.6265598883214228,-0.5393570272052574,-0.30090842744863555,-0.3886380305833768,-1.165771812917213,-1.882154471208456,1.9083968649519027,-0.9418631145266574,-0.3008829323073903,-0.6960391104029084,0.02533234864655594,0.028508833021197007,-0.5563029188948306,-0.8141468102602923,-1.1697064278330727,-0.15442313580619735,-0.5505841884791317,-0.8742019677180686,-1.161801570206636,-0.2807286905281485,-0.9030599226063052,-0.37939826183328923,-0.4907361934660034,-0.4743422427806551,undefined,1495702957126
903d185fccf839df,-0.2204576813955198,-0.7624229164733348,-0.3449315546494534,-0.42101351769016937,-0.8213141054141002,-1.9899586488816456,1.923857490513656,-0.8988281559009217,-0.3686050868790485,-0.722777094387479,0.05537317511397713,-0.03362241801752535,-0.5737104500891266,-0.7882234617749152,-1.1591801010572862,0.4335738230999756,-0.35991117651250676,-0.8529802738371581,-1.1570437389328365,0.029026439819451393,-0.8209064827636007,-0.3871648156639164,-0.5646991830541455,-0.5122747022074179,undefined,1495702958589
903d185fccf839df,-0.045819764282466875,-0.5775130313111398,-0.5529228250704511,-0.6134483925792271,-0.9646555803904712,-1.9385174006542212,1.9024324644112234,-1.0186750027658669,-0.4936940505950848,-0.6676313976191314,0.06490965624327834,0.02107159142429761,-0.6607481060606061,-0.7947042948491424,-1.1570748261312251,0.21332753794508016,-0.5418918848773993,-0.8293647266925267,-1.13586439223174,0.2753707708095704,-0.7490444664796694,-0.40247254835825463,-0.6631340823698574,-0.5789881796777369,undefined,1495702960100
903d185fccf839df,-0.059679862759214664,-0.6520639945285408,-0.5593036955965738,-0.6142938518982253,-1.0306588993445998,-1.9157886834045852,1.902989978555429,-1.015297448148369,-0.519984689750885,-0.6923112289551977,0.03810271868973477,0.010620695983436092,-0.5867660984848485,-0.8243309950208987,-1.0876010554227904,1.3206205593707527,-0.26091471955315215,-0.8343424202956135,-1.0960245516688267,1.0106619373631633,-0.56329005158711,-0.4046629067659545,-0.7919925985669346,-0.47369145413752833,undefined,1495702961598
903d185fccf839df,-0.47271220518701595,-0.7066564770378068,-0.47891407920716633,-0.5398264169016794,-1.2242048592911432,-1.8437290094883958,1.9015725087271542,-0.9806659712374316,-0.31493289333678814,-0.7470031734849343,0.019614296558510103,0.062321305563951976,-0.8174158868092692,-0.8548834877865389,-1.1307590147134343,1.359012163191898,-0.31631781545103554,-0.8819344921530207,-1.128083939228103,1.3602374477694836,-0.530849370463841,-0.44635415226864766,-0.5593606939723842,-0.39804140302681656,undefined,1495702963090
903d185fccf839df,-0.25233591824366264,-0.6755446382953848,-0.3404653519002866,-0.4474774676821451,-0.8120466923764388,-1.9328829685715914,1.890440544904171,-1.070129910972494,-0.2828050222545521,-0.8033436686814841,0.06450573586915612,0.0023087958096452772,-0.7521376448306596,-0.837292644980885,-1.0918115831882114,0.9973233324081293,-0.4419802143176841,-0.8922318573101002,-1.0840809954656365,1.3453625483644613,-0.5453537475943331,-0.4443730880483367,-0.451013678594959,-0.35322264001919934,undefined,1495702964583
903d185fccf839df,-0.345198947245757,-0.7283760611962905,-0.3998007385777631,-0.5483485345021442,-0.9198922245584517,-1.9885797375064784,1.8787799973938866,-1.216880886848143,-0.24368960817867405,-0.8959527046393354,0.08271118377122831,-0.018891105263151547,-0.7216744652406417,-0.8604384958899458,-1.0886537039291717,1.051879784858281,-0.4348648588748548,-0.8754875542492225,-1.068562068690367,1.210918718278537,-0.5714573366512019,-0.4497165137433148,-0.4589386934115038,-0.3569181735936035,undefined,1495702966086
903d185fccf839df,-0.3244086442562915,-0.8692597849643909,-0.4112846790483077,-0.49154717983512686,-1.0533285756453916,-2.067098392139381,1.9350920370983964,-0.9307910478447313,-0.23798570869880425,-0.7190346353669086,0.12260052752998812,-0.011937583640681239,-0.7303782308377896,-0.8252568167540253,-1.0949694918961863,1.4277127910637166,-0.35524708800667804,-0.8350073780750865,-1.0659662518857052,1.0997265434147312,-0.5759699004995132,-0.4525785675174032,-0.49243059903364117,-0.3349966247016691,undefined,1495702967591
903d185fccf839df,-0.8788145156291481,-0.9719875046266088,-0.6543666711717896,-0.7777475720120788,-1.135171871507665,-2.1231282420889794,1.957295496548808,-0.8448291370806625,-0.2513497886338162,-0.6167520659488788,0.09069160383476219,-0.16989085235076154,-0.8783422459893049,-0.8150726255180316,-1.1181274277360542,1.2539404351179444,-0.296756654474413,-0.8677043662039479,-1.127916014990196,0.5337566817634347,-0.7369889661506538,-0.43562796913777885,-0.3594726073642818,-0.37565767309322384,undefined,1495702969127
903d185fccf839df,-1.0437503396546908,-1.0553437220438229,-0.8610826823805806,-0.9032933270455398,-1.3025715860735076,-2.1522600368748352,1.9661053371045005,-0.8345000904085309,-0.24946236828903878,-0.5250421401804884,0.10387121057237964,-0.4158926615255586,0.45768577317290554,-0.8076659707106778,-1.1402326929828395,0.5204598173521718,-0.6087470759572337,-0.9220410227012844,-1.1650061092394814,-0.07834692275456942,-0.9110905976519302,-0.41726055682969926,-0.24264377224695524,-0.3027751910806706,undefined,1495702970587
903d185fccf839df,-1.1338412730495342,-1.0964348047938113,-0.9267979230363822,-0.980406525839786,-1.3421200904802353,-2.1873896228301515,1.959457186615751,-0.9064172695670326,-0.2627107750243624,-0.6732444916904765,0.09006591129469226,-0.7853081133128145,2.8903882575757573,-1.0354210925002771,-1.2739170792943286,-0.6716987512361299,-1.0639757666174576,-1.0641459458948925,-1.2473025984895738,-0.6953472334764474,-1.1219873178551687,-0.4535879472521238,-0.5370311845543787,-0.4739429014845717,undefined,1495702972094
903d185fccf839df,-1.1795797118906541,-1.128133645747108,-0.9714589339802527,-1.018460728608863,-1.4391347803538745,-2.209053876685819,1.9276917523438262,-1.1389937724174666,-0.2820364372955219,-0.6822320834628904,0.09230107322886272,-0.9914848522047112,4.613733845811051,-1.1335594896703063,-1.321285559908439,-1.104108833635794,-1.3075256120868122,-1.1290522856278729,-1.275191886925394,-1.1003879401127394,-1.2446408059337772,-0.4579081938257744,-0.6184142187168016,-0.5098798483925129,undefined,1495702973589
903d185fccf839df,-1.157403499119202,-1.138112907108795,-0.9427480662560936,-0.9898275059663102,-1.448618194043608,-2.213933632852668,1.9228634331845722,-1.1727185299888956,-0.28306867455186885,-0.6825084969746849,0.09338672225943273,-1.0660443807192819,4.0784522615864525,-1.1742961866227146,-1.3307592529023118,-1.1869537535212562,-1.3855812452989016,-1.1993289621584848,-1.3025284272163176,-1.2409757468892502,-1.3163105824454842,-0.47707646541728915,-0.6722654478928314,-0.5274348188743625,undefined,1495702975089
903d185fccf839df,-1.161561573519259,-1.0970218179651832,-0.843856263400865,-0.8890630746868704,-1.4084936931954017,-2.192520936804442,1.8673771423399512,-1.5335110340570712,-0.28352025793490493,-0.6883440993988694,0.08561784484501864,-1.0474331339904601,3.717245989304813,-1.17337035112939,-1.333917150566936,-1.180891921153018,-1.37539541475588,-1.193610314211583,-1.2997017154936816,-1.2034343374296959,-1.3063978707551238,-0.47501214122048735,-0.6666055310248955,-0.5272651153568332,undefined,1495702976594
903d185fccf839df,-1.0132579780831248,-1.0612138647180387,-0.8432183796578122,-0.8959604973119746,-1.4879198460965524,-2.159056757067481,1.8548198114218886,-1.61333218486845,-0.29094151731261625,-0.6756329979225575,0.08524890805747233,-0.8100252023656024,4.017525902406417,-1.1465211671506883,-1.3202329242859667,-0.9606456713290245,-1.277766113847276,-1.1664863166406332,-1.2777107387920612,-0.8618660187496809,-1.2107542724014748,-0.4642939155165639,-0.5903255869492373,-0.4697672891582925,undefined,1495702978082
903d185fccf839df,-0.5960675612552666,-0.8927403995032426,-0.7851592687403399,-0.8495412447391685,-1.0463240183628197,-2.099255869289881,1.8511039038416053,-1.5064356591336259,-0.14733199837892458,-0.6931727047617308,0.079275661328183,-0.4941379741496561,1.0930606617647058,-1.118746157391743,-1.2760223404162014,0.08198796264680266,-0.8513278479705881,-1.1397739600931238,-1.2360657202522156,-0.26505307315806514,-1.0468925347219251,-0.4559169967078395,-0.5316161156255663,-0.34831852392347923,undefined,1495702979584
903d185fccf839df,-0.2911444286153426,-0.6121469746562864,-0.7685712417775759,-0.7788551348142666,-0.9899892529644194,-1.978065552825488,1.9022141985801542,-1.020243183740393,-0.1940595566393464,-0.7866891160708981,0.05622078955310591,-0.22272736653334652,-0.7738970588235294,-1.018756087616218,-1.2381275647595937,1.0397561554527064,-0.42290954065331565,-1.0561221074570935,-1.2111500762860568,0.17809878930990125,-0.8975029220194204,-0.44826568919630516,-0.5424086010505479,-0.37841128971469995,undefined,1495702981145
903d185fccf839df,-0.14838488637207148,-0.607450825443323,-0.5599415793396265,-0.6328836635272643,-0.6744034955799056,-1.9542211307855593,1.915907607737077,-0.8660858158635713,-0.33846314369436453,-0.7625796716030796,0.08840334880098231,-0.024852000997932652,-0.8913978943850268,-0.9372827196129504,-1.1202326768942972,1.1953428906356076,-0.3926615127512705,-0.9805764226949046,-1.1559522353533553,0.6534334043760834,-0.740735654229366,-0.4338123851017155,-0.5449361970142248,-0.31627534323376116,undefined,1495702982599
903d185fccf839df,-0.2648100034221947,-0.6655653394853327,-0.35450133561694097,-0.4213482933975092,-0.8801585778550967,-1.9097396489659892,1.9607089866822296,-0.5750565661585629,-0.3419648740580429,-0.762583511724947,0.08652562384718496,-0.0016636556746519682,-0.8957497771836007,-0.8808068427473033,-1.1233905782400384,0.9670142800927343,-0.5354403070852393,-0.9095081285368188,-1.1273702629832996,1.073071838991706,-0.6080620043545719,-0.4282676844121354,-0.6195554709484068,-0.36887097032915556,undefined,1495702984090
903d185fccf839df,-0.2966883782919765,-0.7365942565559938,-0.09674496775985313,-0.15403708992510765,-0.9014705404383658,-1.9347626669475997,1.9802878876106178,-0.4788372800841479,-0.2685348832556558,-0.7148919929876328,0.08320197149718261,-0.07855008752650233,-0.7782489416221035,-0.7456351116431728,-1.0581273537026092,0.7144381846209397,-0.6663854705602648,-0.781677660375442,-1.0572272337182793,1.0351608638528083,-0.5402078887689161,-0.4046508633663801,-0.7123644792444366,-0.4521843920657043,undefined,1495702985594
903d185fccf839df,-0.25926601924015114,-0.7048954028154503,0.35050099232631005,0.35914786336466,-0.8428214977855027,-1.889118895488144,1.922106062357304,-0.7959067792522381,-0.23767348015291379,-0.947859707824825,0.08725565940010455,0.002992152565255439,-0.7173225824420678,-0.5465808391529603,-1.0128641342103717,0.6659436387339202,-0.7075455257610732,-0.6434105018033198,-1.0367685586292363,0.9852237075994807,-0.49242661042585223,-0.41103190933399325,-0.7623104472037622,-0.48425763680643064,undefined,1495702987104
903d185fccf839df,-0.30223243148483947,-0.7753372902739938,0.8979150310277062,0.9028131500740371,-0.693493750219547,-1.9047760416256558,1.8780068351755748,-1.0760236448829787,-0.25440096133188245,-0.8006789798970754,0.08522860928182731,0.03863507563412635,-0.8913978943850268,-0.49843742263932533,-0.9781272341316867,0.5911811890931339,-0.635601915172699,-0.577047585329056,-0.9941789710369995,0.6170314755043038,-0.5458017025105829,-0.41630890194360354,-0.6149822678584027,-0.4307849101799361,undefined,1495702988596
903d185fccf839df,-0.44776403482995186,-0.700199268216483,0.7945567712863613,0.7334286224070331,-0.5618779743722039,-1.9293192342580567,1.882509061847902,-1.0581509761304033,-0.27648715865660844,-0.7606907775428774,0.10842981290965574,0.02128133746320891,-0.8348234180035651,-0.4891791081772501,-0.9718114314402044,0.5608719954541311,-0.5852409844989561,-0.6061727929581083,-1.001609583924997,0.4946754278265634,-0.585852046744515,-0.4123619364106563,-0.5473824731814567,-0.431272358346237,undefined,1495702990109
903d185fccf839df,-0.2828283143206384,-0.6831758332709628,0.6637649361286592,0.5468959436268775,-0.47884153862172,-1.937832603724817,1.9345318769141395,-0.6978458659005895,-0.2710397279340616,-0.6866633838165064,0.044389931897222144,0.08762086438701806,-0.8913978943850268,-0.4327032345492965,-0.9897062057327376,0.22747178402855103,-0.6281206265143414,-0.5717975748765448,-0.9993286239951605,0.11784466959958233,-0.6559071473508089,-0.435246892673877,-0.46136541191955577,-0.48413095458203664,undefined,1495702991593
903d185fccf839df,-0.4546941703318501,-0.6291703949878105,0.7747785631974852,0.8026696216955638,-0.39446796576514936,-1.934185015300828,1.8603581974192411,-1.1574850679330253,-0.27390503939937055,-0.6948300939464559,0.024830712341436075,0.0522100803157969,-0.669451871657754,-0.44010991202050576,-1.010758874008778,0.019349142411590806,-0.6379225489866183,-0.5820379455060443,-1.020116148577584,-0.043500242486647814,-0.7031063259207596,-0.45392214900848576,-0.4564700875947718,-0.45544468224315304,undefined,1495702993136
903d185fccf839df,-0.5129067288569117,-0.6139080196506506,0.772864911968327,0.7946561464599172,-0.43799702970240406,-1.9083980086279995,1.875482198709952,-1.0593600582805043,-0.2699406015927989,-0.5651421683287274,0.043395402741951465,0.013100912347026938,-0.9392686051693405,-0.5336191471029568,-0.9928641107595956,-0.008939335622990159,-0.5881356826172325,-0.6431951808434954,-0.9954803781292121,0.1026156043068939,-0.6882650049095935,-0.4560830102985867,-0.48888849898851106,-0.4234478102404046,undefined,1495702994591
903d185fccf839df,-0.33272486206722496,-0.6074508400573191,0.6037916657081299,0.5546028568006295,-0.640944118202488,-1.9682967237546356,1.9295378618050445,-0.8076115523597376,-0.22334315997562057,-0.5620680580121769,0.030245211089014245,0.049957532916359224,-0.9392686051693405,-0.5604683237968476,-0.9981272539013458,0.2153480415640904,-0.46768658846607536,-0.6598571554926136,-0.9852440439083894,0.5674330805678456,-0.5792296959202605,-0.4634177739489471,-0.5838143102495439,-0.3637371298333544,undefined,1495702996267
903d185fccf839df,-0.3784632318975253,-0.6602822483442287,0.5061761386129054,0.5274737176748463,-0.6671623620480902,-1.972848057109316,1.9197996927702716,-0.875600207744401,-0.2286138073445333,-0.58713470270814,0.05365322780576389,-0.015915044523697366,-0.9523242535650625,-0.5475066446976187,-0.993916718773691,0.32244030152177583,-0.38692364413781366,-0.6524286120994895,-0.9894561244843433,0.654018540025817,-0.5603339153552728,-0.4813207472112297,-0.5979965320891067,-0.32844611404677465,undefined,1495702998744
903d185fccf839df,-0.3784632318975253,-0.6115599450441689,0.5820995522531461,0.6025416099061265,-0.6814080519082287,-1.9642904323216646,1.9119549811818022,-0.9237863908483894,-0.21845814131236888,-0.5729763868325521,0.05231639737679518,-0.0016534255462102377,-0.9784355503565063,-0.5382483237601562,-0.9970746458872505,0.20322439802615516,-0.37533931167648665,-0.6453103834725409,-0.9932973736434049,0.6082235628108424,-0.5679461678132659,-0.4795859582532714,-0.5896383375459253,-0.3229404716685669,undefined,1495702999136
903d185fccf839df,-0.4339039018477943,-0.6068638250591978,0.5061761386129054,0.5274386778558913,-0.6934526020539927,-1.9658813025520738,1.9256904546238824,-0.8357607835563646,-0.21840090692711722,-0.5783645498108122,0.07311988206575178,0.011092926409596882,-0.9958430815508021,-0.5289899769211446,-0.9928641107595956,0.20322439802615516,-0.43688224657092584,-0.6433471709491595,-0.9909674355725351,0.5624747849574372,-0.5764020107712603,-0.48560226103644005,-0.5754149907991062,-0.32012584055898324,undefined,1495703000634
903d185fccf839df,-0.22184359117750635,-0.7213318373768454,0.5048998628529011,0.4774603123051359,-0.5892276372780539,-1.968147652332795,1.9266371922509693,-0.7946705140021441,-0.2455864709571975,-0.8375326705635189,0.10774821650370363,-0.04751070296544575,-0.9784355503565063,-0.4799207678136257,-0.9812851722885968,0.24161600184730037,-0.5060918416213837,-0.6078573549021815,-0.9933113678707475,0.6750682193934529,-0.5380739008922298,-0.4929031184356086,-0.6423351616890404,-0.32267566983871204,undefined,1495703002085
903d185fccf839df,0.07199164210914995,-0.8252336235702964,0.8347513253441156,0.7746261672616327,-0.2847092923535696,-1.9915332135292119,1.9247148106328917,-0.729905953966544,-0.2501776098805435,-0.9108959923039524,0.1480770668775462,-0.04689246440573771,-0.678155637254902,-0.41326074827738934,-0.9602324672013874,0.6214903544674151,-0.4066969519246731,-0.5260483894188653,-0.9683747339613233,1.0210866887535957,-0.42905337360088724,-0.4947882528738019,-0.6690693149684948,-0.3393727101862873,undefined,1495703003609
903d185fccf839df,-0.01394145842350457,-0.8181894435928397,1.4268261208524329,1.2880435859505148,0.19606475425339082,-1.9633051640400934,1.991177903229815,-0.12410788577877727,-0.3600347688441919,-1.110099345580806,0.21599707204458005,-0.05585595294691524,-0.7086188168449198,-0.44566489422236366,-0.9297061206559418,0.9872202772833689,-0.37478103278895586,-0.49023559196537053,-0.9750426949347768,1.1513267388843575,-0.3863469126183053,-0.49865374247613714,-0.6788033264696296,-0.37267822358565833,undefined,1495703005093
903d185fccf839df,0.060903397701784996,-0.8434311177400518,1.6124876482123436,1.5787039659047792,0.2762623330200589,-1.9635823432737096,1.923242116503163,-0.5154942300804216,-0.35387482409795235,-1.4297700822275385,0.2307657524444358,-0.03484234036983628,-0.7129706996434938,-0.38363403839255217,-0.918127182184943,0.954890636554799,-0.3415983438584851,-0.39526043590682,-0.9448864398238498,1.3256679391426507,-0.2976474357622307,-0.4515726565686777,-0.8023570702194986,-0.4115402395100513,undefined,1495703006597
903d185fccf839df,0.00407671445330021,-0.7882516494606566,1.8300494620116772,1.8081671725577122,0.054708413282005826,-1.9322564056470377,1.9148530387402845,-0.5853591065618833,-0.3316963666804746,-1.5659164242353214,0.12568327133895318,0.08172698862093761,-0.7216744652406417,-0.3688207352532318,-0.9181271895471769,0.42145009476787576,-0.5893525383296979,-0.3062825771508762,-0.9506728020824236,0.7281620600461383,-0.4053916177377015,-0.39240525024516293,-0.611427650138487,-0.4793135109062112,undefined,1495703008138
903d185fccf839df,-0.14284083317920848,-0.8017529944174485,1.5659124777654159,1.5124202986399096,-0.20125115178078942,-1.9333464896426737,1.89019333866474,-0.8531367914973158,-0.2630643779651759,-1.2378775850809272,0.0753508522117111,-0.019239676828054372,-0.691211285650624,-0.38733740302970593,-0.8991798035594314,0.3446670001844715,-0.5835006528808283,-0.3001396209920627,-0.9289197171341218,0.9315139329522398,-0.35524923981999523,-0.3799480043001744,-0.6560855645094715,-0.5153512098064708,undefined,1495703009628
903d185fccf839df,-0.23154568426501662,-0.7506826165109071,1.2047981043039326,1.1333185647797452,-0.3268086529467025,-1.962177812865252,1.8963155336983692,-0.8878273663664746,-0.2466795662641352,-1.0687022867860727,0.039271786578942224,0.06601583940531072,-0.8696384803921569,-0.3345648487111952,-0.8928640008679491,0.49621260093810515,-0.5721789499101748,-0.3405311350411654,-0.9264568392895713,0.9030114043327373,-0.3752142804566398,-0.369895023819005,-0.6335811507187076,-0.5165636316650422,undefined,1495703011097
903d185fccf839df,-0.2911443941099329,-0.7917737540633811,0.2707492596799553,0.309277343671808,-0.6642103655396696,-2.029420619425194,1.894466774007013,-1.0877948476734312,-0.18812710210499534,-0.45464665605566235,0.0689711622099709,-0.054758751462295634,-0.8870460115864528,-0.40585409670772915,-0.9465482538043274,0.10421460478005524,-0.6517807697267733,-0.4350186537887671,-0.9442077486305107,0.8949888144571567,-0.4260532957729354,-0.3378166062407574,-0.6684820408428886,-0.5419873742361165,undefined,1495703012596
903d185fccf839df,-0.1788771444274083,-0.8663247026667859,0.04297952703313206,0.04540006619607538,-0.8091152657216941,-2.0607582039759684,1.8671799180791566,-1.3393201634382292,-0.21512178586770794,-0.5980141194282889,0.08184445178636035,-0.12389353703369903,-0.26037488859180036,-0.49010494609884486,-0.9897061983705038,0.15270917893179622,-0.5480978751230966,-0.5189491558469428,-0.9464537244509105,1.131755311450786,-0.40623583411239755,-0.3679396451690679,-0.7363250042223467,-0.5152841465569177,undefined,1495703014108
903d185fccf839df,-0.0846281021270982,-0.794708814439992,0.05829178650979074,0.07278498000391917,-0.7624079177526027,-2.0418634151344563,1.9439150240526026,-0.7825804287420893,-0.15402251949514661,-0.794253358117024,0.07975682954114678,-0.08436939076273323,-0.14287405303030304,-0.4854757694416454,-0.9981272539013458,0.37901739891454544,-0.48099384616922686,-0.5139904613351115,-0.9615388490191136,1.1872667097078644,-0.3960114245360261,-0.39471669495111333,-0.6206376893362493,-0.5138832940444632,undefined,1495703015591
903d185fccf839df,-0.08601421894154317,-0.740116346544722,0.39898981400239586,0.4206721277783842,-0.5582265458999783,-2.002059046537328,1.9341663295188443,-0.7334277259736329,-0.19778415867036592,-1.2407726688679208,0.1644471836798987,-0.07688112457460422,-0.5475991532976827,-0.42622240147506923,-0.9633903722282454,0.4477179702569211,-0.4141120331694638,-0.5013562389035711,-0.959971563394972,1.090949431906639,-0.4096754207387735,-0.4036007007354796,-0.5556754261405747,-0.42836465662265333,undefined,1495703017083
903d185fccf839df,-0.1303667134952667,-0.7289630761944118,0.8602722660791122,0.8629691722377272,-0.507291773573328,-1.8970220041325916,1.940475228551892,-0.5545134147525125,-0.285394047461527,-1.290140358171768,0.08681991047559175,0.03405759284448802,-0.7434338792335116,-0.3567848940755976,-0.980232505376631,0.5204598597492541,-0.47146437951056636,-0.44464472960132595,-0.9561932858947071,0.9078465133488616,-0.4188759120564849,-0.4373869459162206,-0.5432348367509441,-0.44009099779689476,undefined,1495703018586
903d185fccf839df,-0.4713261918888002,-0.3004417183739063,0.6235696196600565,0.5363750592379236,-0.7845633075650451,-1.706490236182458,1.8930782351594033,-0.6561508311551234,-0.4326693770128583,-1.0159252245978079,0.023533490917236284,0.015122436469557741,-0.8130640040106952,-0.407705707797046,-0.9581272143620275,0.7204999781251857,-0.37017497982112396,-0.4734722891266908,-0.9657929103624546,0.8670098369945963,-0.44199030130746064,-0.419195790903305,-0.4899462919204573,-0.42539286606415333,undefined,1495703020105
903d185fccf839df,-0.46855423430318816,-0.38027575811841496,0.18015197858000748,0.15474530815694004,-0.9168373748386258,-1.5900329350174274,1.8281325512075048,-0.9679648085625002,-0.3827030155112236,-0.8164031556238406,0.0046902263241412655,-0.01327130009852617,-0.8609347147950089,-0.38641156510811114,-0.9244429664708408,0.6922115707524086,-0.46829772688630966,-0.46102172158010496,-0.9719361106792009,0.42693766688722823,-0.5370750390918471,-0.4172111490795119,-0.2950063236226126,-0.4031477075831308,undefined,1495703021647
903d185fccf839df,-0.6917025133375632,-0.47243722973544217,0.009165081090652184,0.00833612192862053,-1.1298747313392405,-1.5368331114441813,1.7990048187135521,-1.1625249465835585,-0.32480686966990746,-0.6345956693740331,0.0072938485139612515,0.06268130333439977,-0.8391753008021391,-0.47621742907802106,-0.966548291979571,0.583098679984466,-0.5846272935576471,-0.5179865509437722,-1.0215644902397063,0.20872629497358552,-0.6173392868973632,-0.4122897476536174,-0.28052114732732447,-0.40463799462184746,undefined,1495703023087
903d185fccf839df,-0.5738913829892243,-0.39964731151240546,0.07998389996477445,-0.0044886099859492,-1.2416391134187346,-1.6379337385351185,1.8376314191260643,-1.0802049676047067,-0.30557192170737457,-0.6792603453959701,-0.06517727633849754,0.0869344469434466,-0.7651932932263815,-0.6280541877300662,-1.0212851971034476,-0.2008971286109439,-0.7371501026293823,-0.6458866821278535,-1.0353132235450893,-0.09781055972378581,-0.7378146966541587,-0.4187907997565338,-0.4623044382305242,-0.44299178839199765,undefined,1495703024612
903d185fccf839df,-0.6847725158573039,-0.38555895155749215,0.04297901875923322,-0.10421288007496834,-1.3094527095161914,-1.672024482903184,1.8474405986157254,-1.0764538903671923,-0.324356981532149,-0.7510547646206241,-0.09058183883101037,0.020475455453045334,-0.9958430815508021,-0.6900850694614267,-1.0728642045626997,-0.35244272936457754,-0.8223533929039518,-0.7478027438422558,-1.0651896055664236,-0.27755660971615337,-0.8305310406643326,-0.44561185461758146,-0.6060204015972291,-0.525002573022864,undefined,1495703026096
903d185fccf839df,-0.7166508562216759,-0.4577618547824075,-0.26837025726616,-0.259432374463098,-1.3015018669957918,-1.6686400985375418,1.874553890133785,-0.9046719313116367,-0.30384327696872776,-0.718302690366171,-0.07501068005817962,-0.07437490715197993,-0.9566761363636364,-0.7224892672094991,-0.9960220047431029,-0.22514437328973208,-0.7354837048663043,-0.7599556626318277,-1.035348207214098,0.10524874753834318,-0.7395118177041001,-0.4734395327838534,-0.6441937784768267,-0.15632548413299882,undefined,1495703027610
903d185fccf839df,-0.5558731065961903,-0.4712631997391994,-0.22753756532840352,-0.2520229941072377,-1.15320268965982,-1.7264122195036427,1.9068268644276927,-0.738527471363114,-0.3408873450419125,-0.5960571386358943,-0.028497903718915977,0.0657338525928886,-0.8043602384135473,-0.6576808652379669,-0.881285040310249,0.33456405811859724,-0.4675509387618382,-0.6903629432764609,-0.9668144446648107,0.5356506990480453,-0.5958964355390202,-0.48728902684944786,-0.5207913434225501,-0.035263387468402026,undefined,1495703029092
903d185fccf839df,-0.39232336487968283,-0.6526510095266621,0.0857263784739456,0.033122748655183734,-1.0121754965791205,-1.7411702794489359,1.931744277910022,-0.5642407525004788,-0.34773687110191126,-0.6170240952885958,0.01312344524634325,0.03353634966297963,-0.6041736296791445,-0.5465808262021857,-0.8949692463450751,0.5992636275399978,-0.36064215757751994,-0.595970417859057,-0.9450403688250993,0.6899739193241912,-0.5119070413818939,-0.4802288804012673,-0.6065215007852827,-0.07681363931537917,undefined,1495703030599
903d185fccf839df,-0.4117276200655228,-0.5446401329603575,0.25352334897413836,0.23637913864364826,-0.8154306868121234,-1.7185883049830886,1.9068005674405781,-0.6336415535750238,-0.34140654318274744,-0.6801401992619941,-0.021248000391599225,0.06168800777857387,-0.49537655971479505,-0.5123249979386345,-0.9349693006088611,0.661902490172292,-0.3363724325608293,-0.5719875600918704,-0.9390301082025119,0.6779015381750764,-0.5025348381599286,-0.4923379347578488,-0.6339251408640794,-0.08606546045336305,undefined,1495703032091
903d185fccf839df,-0.4519220747245991,-0.49709185965654046,0.7288415306305597,0.6668752290353112,-0.7651747715182796,-1.7338098830602289,1.930500383490522,-0.4690508211177171,-0.37076757464507093,-1.0249006296529675,-0.02763955975303756,0.11280469027420902,-0.8304715352049912,-0.3771532247444868,-0.9370745534482209,0.8821486622683014,-0.4262586745025266,-0.4698308446629441,-0.929885276307173,0.7778528474322992,-0.429431086930807,-0.525587747382341,-0.6677964360057356,-0.12113476708297047,undefined,1495703033657
903d185fccf839df,-0.3022325004956589,-0.4747853189559201,0.8519779984607807,0.6407058067126129,-0.7015885900938594,-1.755308760429475,1.8891966431520184,-0.7246153676844986,-0.36008281576739626,-1.4797803881067666,-0.023796355341572185,-0.01028877656275573,-0.9262129567736186,-0.29475403824578617,-0.890758718579654,1.187260423924022,-0.33450343496084173,-0.36326006798363886,-0.9130509491543758,0.8998085320955471,-0.3458852166917156,-0.5343440411162821,-0.7461012433207234,-0.18071046223789197,undefined,1495703035098
903d185fccf839df,-0.018099498318151826,-0.6139079758086621,1.1339792854298103,1.0761869829589683,-0.5378300084346335,-1.9314365122572348,1.8787247615696931,-1.0069111771179071,-0.25939882077514426,-1.6524135859055629,0.04414096646317019,0.07472490241595699,-0.9784355503565063,-0.2938281873734168,-0.9918114659343312,0.4456974383731893,-0.4855249319905024,-0.22984394393619903,-0.9778274247094328,0.49889460318469003,-0.4019275988531154,-0.47552050594542267,-0.42791563520410786,-0.5002726641748013,undefined,1495703036589
903d185fccf839df,0.11357190303398358,-0.37910175735016455,0.7722265199513754,0.6209138528208807,-0.5686150987645339,-1.782523588636731,1.8151228919986517,-1.183119651995458,-0.34204054640048576,-1.523134266403741,-0.016485030570779425,0.038334029045960186,-0.8696384803921569,-0.28456982110824336,-1.0033904191297975,0.46792405224172035,-0.5923001241591791,-0.3073338435146802,-0.9983700620183606,0.39356923443390446,-0.4597959502730601,-0.47911990298811263,-0.5820939023821803,-0.5030811357608946,undefined,1495703038091
903d185fccf839df,-0.07492614706122687,-0.24878434008323952,0.7849867361819243,0.5917736637025043,-0.800351854045492,-1.766044221931015,1.852913210719637,-0.9470980889018158,-0.3376914211864444,-1.3829271044020526,-0.10138921081567985,-0.0015224687757396142,-0.8826941287878788,-0.2132806378655821,-0.9823377876649261,0.28808993105642344,-0.600206707498868,-0.2835093095719683,-1.0052129427621321,0.4396413846092739,-0.4399137703820132,-0.4784700245365611,-0.6339765301469689,-0.49863641539993886,undefined,1495703039583
903d185fccf839df,-0.19689531730421309,-0.19419182834598114,0.8979150310277062,0.6524539295455928,-0.7274468371738003,-1.7597785686728153,1.8498310789652006,-0.9483187522792612,-0.3854694363578564,-1.3952102608505437,-0.08207918100375482,-0.002354416078136077,-0.7042669340463459,-0.0910705502460506,-0.9676008999936665,0.4477180267863642,-0.42973976224339755,-0.2504513441794788,-0.9856428628501732,0.5642148090370838,-0.3925896455050286,-0.5077266301654264,-0.594076560753995,-0.48973489527507286,undefined,1495703041088
903d185fccf839df,-0.2065973758863136,-0.48652563353234396,1.1773637664767271,1.0610001120273926,-0.561692824483599,-1.855449742788804,1.8575811176289787,-1.0253009074827704,-0.30926654668173204,-1.355512213140396,0.03198152690387585,-0.0006712927402638615,-0.7956564728163993,-0.0725539213219001,-0.948653514005921,0.45580043696850664,-0.41620388073461395,-0.23273176866707598,-0.9719710948742767,0.7410351612604347,-0.34920906658762824,-0.4683306550753215,-0.7001418375924894,-0.4960733460870625,undefined,1495703042597
