UUID,iqrAccX,iqrAccY,iqrAccZ,iqrAccXYZ,meanAccX,meanAccY,meanAccZ,meanAccXYZ, covarianceAccXY, covarianceAccXZ, covarianceAccYZ,pressureDerivative, pressureIQR, iqrGyroX, iqrGyroY, iqrGyroZ, iqrGyroMagnitude, meanGyroX, meanGyroY, meanGyroZ, meanGyroMagnitude, covarianceGyroXY, covarianceGyroXZ, covarianceGyroYZ, class, timestamp 
903d185fccf839df,-0.12759459200895842,-0.4448475832797216,-0.02433055004877604,-0.3793939053397779,-1.038665059179983,-1.35949881570023,1.6973055845176772,-1.1532268660262917,0.37768539585478317,-1.1883807475477957,-0.25967637479151623,-0.5919206588806772,-0.07977175245098038,0.28111463653591634,-0.6644426284807001,1.0862300422647473,0.10532242375442116,-0.00029306770018743943,-0.6379247626358003,0.8942762256242637,-0.1333003558721052,-0.017564923736035916,0.4087443412854904,-0.07215997761606531,undefined,1497536088519
903d185fccf839df,-0.3341107718492115,-0.41402923742236414,0.1157127595472608,-0.3044158394090458,-0.9595809322913106,-1.5960637039559473,1.7883830315249076,-1.0699507621223139,0.18025554940330313,-0.9368215966790256,-0.2574624109057006,-1.0300550032330555,1.8872792725044565,-0.017003853238604955,-0.7981270267558191,0.3588112321355816,-0.47247104456680805,-0.12934645957357602,-0.7755496221056516,0.6520321399439799,-0.2826230739374599,-0.09428268917423609,0.15531575288811666,-0.09772846220860018,undefined,1497536089910
903d185fccf839df,-0.14838488637207148,-0.32392234752675414,0.5189358465695555,0.3547523554120536,-0.6469369021924161,-1.7043890258842167,1.88699405186978,-0.5391848087820575,-0.24599517029934145,-0.3913760516598537,-0.33363535588229,-0.6986384660096185,3.0383522727272725,-0.3651174224191762,-0.7097058921463404,0.24363656199575368,-0.6001005739653933,-0.15648865523342162,-0.7435381949216724,0.7279838530294537,-0.27978463452113533,-0.11805010110057972,-0.05821506468021967,-0.1331397955045831,undefined,1497536091393
903d185fccf839df,-0.12482259129158423,-0.17658137840233953,0.8835593430286772,0.7171725182436384,-0.6373526346199352,-1.7255443772256192,1.7881318498860865,-1.244995256655739,-0.3132190734082214,-0.3826774550575504,-0.21900876053290189,-0.33235782070246817,1.3367660984848486,-0.25957236558525293,-0.8107586468632513,0.0617817958678388,-0.6707958384507573,-0.1921170370469091,-0.8143083207430603,0.46242328542432626,-0.3617632070393997,-0.1878976676912472,-0.24816326205102804,-0.1857634223976494,undefined,1497536092905
903d185fccf839df,-0.04027578010042333,-0.11083564015675945,1.1824678529689467,1.1497105157836196,-0.385735404692373,-1.7550012992163866,1.8844761464585345,-0.6300975013437438,-0.3751204089027165,-0.41678524725545757,-0.1200656629372528,-0.08598834367440147,0.03990502450980393,-0.2688306929981027,-0.7791796554925413,0.0294521551392689,-0.6136444836070858,-0.18881732568292742,-0.7803674265509504,0.32433122521214713,-0.37591613810534735,-0.18481546501760424,-0.3161726099239409,-0.2929545743068595,undefined,1497536094420
903d185fccf839df,-0.14838488637207148,0.0024583421646453348,1.3394187667416477,1.286248321047654,-0.37566570534520527,-1.693716686002648,1.7855349538500178,-1.1593548212025064,-0.4592344316170386,-0.6791136203432494,-0.0255526014842532,0.20839344116292705,0.3662962344028521,-0.2873473737253514,-0.8212849478712194,0.0294521551392689,-0.6184237866866534,-0.2740090242345063,-0.8144444134606732,0.3163730682240984,-0.42767825181692576,-0.17837425312270072,-0.38011374418974936,-0.3391023990554582,undefined,1497536095951
903d185fccf839df,-0.2176855512828591,-0.06563542684542795,0.9527837066821171,1.1393795437957797,-0.34059147990440786,-1.6989830952105418,1.825024114085779,-0.9213142373885097,-0.4994369320582798,-0.5851161360462857,-0.021573924996068507,0.1712175705287416,-0.5911179812834225,-0.320677370542695,-0.851811294416665,-0.08774310341373388,-0.6290748779659918,-0.31353379634930006,-0.8424111475221726,0.18005439352398142,-0.47916068833434416,-0.2037753351855394,-0.39683778889170557,-0.35276056316069326,undefined,1497536097423
903d185fccf839df,-0.2939164207063644,-0.22178156248567868,0.9023807255029742,1.0753086570249333,-0.44539244782757204,-1.7454514188150356,1.8198249900193466,-1.0814491992193775,-0.3902435071497402,-0.5136268541641563,-0.03580957834600569,0.05112508518619676,-0.8217677696078431,-0.38641157805888565,-0.874969230256533,-0.22110321059574314,-0.6242227074103371,-0.42558890314463005,-0.8744005663120394,-0.06187058346150558,-0.5884153822320998,-0.2643881170820088,-0.527982961105217,-0.40405247347913636,undefined,1497536098902
903d185fccf839df,-0.2287737266794046,-0.41901877722241887,1.174811469093668,1.1827048558530142,-0.4988986438176844,-1.8252767766776974,1.827427760736682,-1.230401154942982,-0.3435246901019639,-0.20492321109335462,-0.04940374382232358,-0.03519903021209178,-0.9740836675579323,-0.3604882457619768,-0.9202324276620691,-0.3059686870965683,-0.6354458360177726,-0.4876644171147194,-0.894600358566725,-0.12137017736599676,-0.6324339493476642,-0.3292518608782743,-0.5823526628376857,-0.45668616249479665,undefined,1497536100400
903d185fccf839df,0.17594270848615085,-0.3761666531315653,1.1008024690934337,1.1827048558530142,-0.15706378382001643,-1.8411249208650728,1.838969980185125,-0.9567957442583305,-0.3062512592063789,-0.4573089565366998,-0.0597809918607063,0.013065838387205568,-0.8913978943850268,-0.434554955720197,-0.8265481278241387,0.07794675755573142,-0.546534856039678,-0.5271439882431942,-0.8176774181858659,0.22491006156842672,-0.5587250704830152,-0.3818731369152408,-0.44833072279448327,-0.2565961514434824,undefined,1497536101894
903d185fccf839df,0.3727567348544266,-0.362665278946781,1.211178212419207,1.2802157700547572,-0.0621267940213542,-1.8436381711028353,1.8548014127491002,-0.8162679099119899,-0.33983497164104,-0.2804353455646093,-0.057605630389419224,0.045177806100849226,-0.691211285650624,-0.4549232863890862,-0.7833901611712609,0.0981528395405307,-0.5652599937203916,-0.5265043619892809,-0.7964630883907645,0.26842606686492904,-0.5537337307362263,-0.3886089362066134,-0.3982215161189262,-0.2051809444165009,undefined,1497536103391
903d185fccf839df,0.11772987391781137,-0.2658078042567521,1.2233005449067031,1.264039097979001,-0.14048323237596894,-1.797039411447177,1.8385124001438202,-0.8419725577977227,-0.4319481199947819,-0.6188568411933733,-0.0655579724704761,0.03271685094313022,-0.7216744652406417,-0.38733740302970593,-0.7160216285777186,0.2658633454526139,-0.5045974893800402,-0.4816924511992554,-0.7254664486636865,0.3074149317311375,-0.5060252511130214,-0.4066738649716365,-0.3671618890993112,-0.15741469704587926,undefined,1497536104891
903d185fccf839df,-0.2911443250991134,-0.25758950659907565,1.2366986448803048,1.1286945900467822,-0.4589078469783595,-1.7973096031846698,1.8211977615689139,-1.1134358941844167,-0.49516265952031197,-0.931113464405131,-0.11377594448053202,-0.05662021894410767,-0.7216744652406417,-0.3475265537119733,-0.6970742573144407,0.627552034912775,-0.43686228645545827,-0.42602587628051675,-0.6962057854122617,0.46863665601147586,-0.4426915581839244,-0.4186714920515604,-0.40042224351382316,-0.12456731972947357,undefined,1497536106435
903d185fccf839df,-0.13313867108087873,-0.26522078925863074,1.1416351610311903,1.1926492635212385,-0.4350656038158594,-1.8188620527646309,1.9463107750079838,-0.3161744324317955,-0.5569574450285457,-0.6859448656591386,-0.17197704787635323,-0.05412925751689063,-0.5824142156862745,-0.30401235270786137,-0.6833900439173807,0.6073460942515834,-0.4243711335993813,-0.371207915094782,-0.692854313057387,0.431049052521427,-0.41764551013989554,-0.4479903924937345,-0.42825742193988925,-0.10678008351799051,undefined,1497536107897
903d185fccf839df,-0.026415578107446342,-0.3127689748784708,1.5397544156982148,1.4820591336189863,-0.34933432191898417,-1.7693028297527515,1.875624221191011,-0.692422355647063,-0.43549530387788604,-0.3846692045042554,-0.21222679019756113,-0.06062673625650784,-0.9697317847593583,-0.2725339799306092,-0.722337460718136,-0.04531029450151744,-0.5614275640428862,-0.34232335867214403,-0.7521382932364941,0.05534238561806923,-0.49485930400261297,-0.39241120546116404,-0.49574128075753,-0.2484700933854476,undefined,1497536109392
903d185fccf839df,0.020709012053528177,-0.2998546741477926,1.5748448832637496,1.5283566336406924,-0.3119766749804921,-1.7654106713862086,1.7948023943499285,-1.2132601400892018,-0.33844009915204804,0.021445610432907217,-0.2056234223282618,0.06154423032113953,-0.8217677696078431,-0.29660563638432846,-0.7528637999013478,-0.1645261697324166,-0.638973087532501,-0.3301134422489223,-0.7468696949277409,-0.03888070151580317,-0.5012650772791646,-0.4020076231863706,-0.5513828789787791,-0.2617458652995806,undefined,1497536110896
903d185fccf839df,-0.2842143276188541,-0.34505494591510877,1.3828035019255138,1.357562626011576,-0.23290023974968357,-1.7768053101709183,1.894879665197306,-0.5820907103026013,-0.3112288972381191,-0.4087219127173959,-0.11307828268885052,-0.0360253365582766,-0.9479723707664884,-0.41696409996376854,-0.782337501621529,-0.1968558669904296,-0.7048080325372735,-0.38907948207486875,-0.8080358161438372,-0.10286124344903314,-0.5592216188658272,-0.41221408760115485,-0.5807260899168109,-0.29536542510352887,undefined,1497536112395
903d185fccf839df,-0.040275711089603865,-0.131381165091008,1.190123982707276,1.0235047767193437,-0.47831696932308376,-1.6663085299848768,1.7877597654852186,-1.1041906876519896,-0.7641916462725649,-0.28087477385684695,-0.22178917031560336,-0.0019931588761354373,-0.8043602384135473,-0.4049282458353598,-0.8570744670073505,-0.27970079747516224,-0.7415182716856227,-0.41315733424636636,-0.8590215772223982,-0.3451865819546961,-0.6219361886844222,-0.41984285510912084,-0.5581303582268936,-0.41853172864319416,undefined,1497536113914
903d185fccf839df,-0.30500456159750017,-0.03569772039722186,1.31389833428055,1.0600334368926716,-0.8460306334110229,-1.6520792079404856,1.8208453621434155,-0.9558884078228806,-0.5906869681560301,-0.6990258216153762,-0.2418712766679194,0.08230898100486772,-0.6433405748663101,-0.40307660884449387,-0.8981271292852319,-0.23928870416736756,-0.7268890235762155,-0.39423450021592893,-0.8617363402890944,-0.2668700883610335,-0.6069047756264153,-0.40376093158080956,-0.5090936157534804,-0.4341437233645143,undefined,1497536115389
903d185fccf839df,-0.3493569526349945,0.00011025294416744689,1.2768934530750087,1.0430203412919437,-0.8947436977540354,-1.668544599601403,1.8565344605642955,-0.7406752118040187,-0.6229407744019763,-0.7057031258891486,-0.33921912155831657,-0.00992144529751915,-0.5519510360962567,-0.3956699443240591,-0.8876008209150299,-0.13219643007732132,-0.6842409486104496,-0.3863499873861423,-0.8764436360484077,-0.07865488798828463,-0.5783581551879493,-0.3717225907250941,-0.4909372252916986,-0.40524140545581444,undefined,1497536116932
903d185fccf839df,-0.37291924771548174,-0.17482033340797537,1.7764568079803211,1.5808995124885765,-0.7885850139207773,-1.73021819568162,1.7579719554644568,-1.4649382316097295,-0.6238531869506152,-0.4877013064001055,-0.34861390141288345,0.057880786353939666,-0.5737104500891266,-0.3651173576653035,-0.9012850490365575,-0.14027891092126765,-0.638872966893163,-0.3700679896621842,-0.8773532208017332,-0.0609620739551045,-0.5697369598513968,-0.34675319763131424,-0.4978928697540171,-0.3837280783546659,undefined,1497536118390
903d185fccf839df,-0.3285668221725777,-0.26756882002312393,2.015073105628535,1.8611422947075653,-0.6422298269694208,-1.7699177482194781,1.87281822037154,-0.7425826508342487,-0.679264982003203,-0.352458014983832,-0.31320749307520096,-0.16698232838375818,-0.5737104500891266,-0.25957235263447836,-0.802337561883474,0.03753459358613291,-0.5135399512069644,-0.25746824940608193,-0.8323847171627536,-0.03683271064081355,-0.4900479809561483,-0.2916221321041942,-0.48924696071186674,-0.33942700125620945,undefined,1497536119889
903d185fccf839df,-0.22738774788659857,-0.46304496053750765,2.2875035950822795,2.3309947545219085,-0.6527109536619876,-1.7893366154623345,1.751118690257,-1.5924408222003787,-0.6343109475588228,-0.3084159839897411,-0.18326805012710745,-0.23977078950819677,0.3184255236185384,-0.19476399599065705,-0.7402322313295522,0.18301838670315973,-0.39339434180792965,-0.10597790372687219,-0.7922999871058515,0.0944082376496809,-0.3790142808431785,-0.06266542036383872,-0.461967265021608,-0.28831653101980864,undefined,1497536121392
903d185fccf839df,-0.1594729927577975,-0.5287907280110801,2.3532190898750307,2.220761791791016,-0.6615155193052552,-1.8256587721943798,1.8455629252278127,-1.0565168732230998,-0.5647214578599545,-0.403488789807569,-0.15320856410917258,-0.10221913153620729,0.6274092023172906,-0.10958725687484838,-0.6633900278288385,0.3143578913396334,-0.36970904378683744,-0.13963116539871326,-0.7425666565077351,0.30933974058902847,-0.3440585819345987,-0.05703609930021699,-0.5233796046915838,-0.2830142650176164,undefined,1497536122897
903d185fccf839df,-0.1968953518096228,-0.5399440129753864,1.8453619756252853,1.7763291091209212,-0.6621326629600407,-1.8455411587387978,1.796527552230972,-1.4509634584136284,-0.4548142549739085,-0.3641760251706956,-0.12098307481474282,-0.16168521549710704,-0.5780623328877006,-0.14199140281982267,-0.6402321140756719,0.3466875603329248,-0.4328200811891066,-0.17033327415418983,-0.6805399279758847,0.3455260859877215,-0.33079851810976085,-0.11024275577358104,-0.5624215167114224,-0.3048459401894615,undefined,1497536124392
903d185fccf839df,-0.33688286745646245,-0.528203742240951,1.5773969265098593,1.4116376619701396,-0.7738661865540561,-1.8330913746341542,1.81976714219956,-1.3107897436038045,-0.4644401032937498,-0.4826577633881126,-0.07894988650604591,0.2512110070635544,-0.499728442513369,-0.11606805757213924,-0.5644425259512874,0.36083182054875645,-0.42299885686355154,-0.12789621937480283,-0.6229631728927294,0.3427081693536793,-0.3017100786423077,-0.08729702929485815,-0.5226088126055067,-0.25055341116923685,undefined,1497536125896
903d185fccf839df,-0.4602381200084839,-0.524094608026109,1.8664159512002667,1.9441365934848522,-0.7721587592412524,-1.8724392119037878,1.8237249990311515,-1.2718057525610154,-0.476919238029552,-0.44196202104782356,-0.09528363625353221,0.14532822055946357,0.3097217580213904,-0.05125970092831793,-0.529705607467018,0.28606937090797013,-0.3749677287244943,-0.09006321308753999,-0.5597050055120085,0.3872558722721078,-0.2578459241974445,-0.03411597430139889,-0.6011299783255508,-0.31364017735453353,undefined,1497536127398
903d185fccf839df,-0.34658489153315325,-0.46950215474483525,1.8830047405738792,2.144217323763001,-0.8314455194276249,-1.8479705536361393,1.8604528719152151,-1.027275061839593,-0.49483478246121815,-0.39379530058822027,-0.014245704352566767,0.21517421597476225,-0.09935522504456328,-0.18920898141186282,-0.593916212947001,0.21736871477142986,-0.47821673670690995,-0.2258605256574356,-0.5930098247344564,0.4735025638166784,-0.327679642467535,-0.18256167282841776,-0.5879503605281049,-0.31131460259334653,undefined,1497536128908
903d185fccf839df,-0.33965479053666475,-0.4683281539765848,1.5091296426079481,1.5538618648680673,-0.9212293706588814,-1.8580328671533284,1.8618887451301267,-1.0787078902830924,-0.4253286944340446,-0.2304889323753742,0.03273600081627029,0.048800027225343885,-1.035010026737968,-0.19476397008910798,-0.5739162631185629,0.18099775589290257,-0.4734032522785826,-0.2183749843039986,-0.6107537365365889,0.43397475501571403,-0.3371995723626213,-0.17953650586453607,-0.6208246873535151,-0.31322503264067075,undefined,1497536130426
903d185fccf839df,-0.34242688614391575,-0.5123543080636812,1.2692375774736286,1.3540961248977654,-0.6623589423453373,-1.8522307331328134,1.890785050729191,-0.8466029351408862,-0.37011763416976734,-0.2006278830192987,0.13324424911289334,0.0033238250220637895,-1.017602495543672,-0.08921888735363555,-0.6918110699992877,0.08400866411886367,-0.5223561111809728,-0.12672462338263538,-0.6314922837731971,0.4125863152197216,-0.30574689519119874,-0.18540340418701118,-0.6263097016739265,-0.37134545276666264,undefined,1497536131894
903d185fccf839df,-0.32995276645997396,-0.4043434022693842,1.299862096426946,1.4113118506833013,-0.668016072775729,-1.8464169524527627,1.9256694209100214,-0.6164544421053515,-0.300981785150628,-0.16956594079302845,0.07794548265751171,-0.04738868849392886,-0.9610280191622104,0.0005870413701471223,-0.7539164594510798,0.07592608434839197,-0.5491827626952179,-0.047372838590004275,-0.6723046808828078,0.5339722594746525,-0.2507262763119437,-0.25808073179568164,-0.5174638239234006,-0.46758622544130324,undefined,1497536133391
903d185fccf839df,-0.38677934619222953,-0.36383933817101616,1.9965706650257644,2.1341289492717155,-0.7927712921453117,-1.8271727785394893,1.8995633399284502,-0.7439193056546373,-0.40124627077284675,0.2197100400064976,-0.14017846081985816,-0.10556232306790382,-0.7956564728163993,-0.028113869445418892,-0.7949691290911949,0.11431771643425871,-0.5884953418477545,0.024379413258236643,-0.7864646467062444,0.564045419244472,-0.2377593345322919,-0.3797144742204301,-0.426663656394222,-0.5218168205678906,undefined,1497536134885
903d185fccf839df,-0.20936947149356458,-0.4037564603412437,2.6352198685701613,2.4574785966160198,-0.797122140642232,-1.8491980634854213,1.867897856519776,-0.961058243731691,-0.34893337385058526,0.48901652195944306,-0.23740207511865685,-0.10762173250011858,-0.5388953877005348,0.08113456497643272,-0.8086533572127225,0.10219407289632346,-0.49024720763306456,0.09146428624188295,-0.8016407294304695,0.6000623865896875,-0.19869853635414172,-0.33732943836267826,-0.37229779854248496,-0.5075283959023569,undefined,1497536136390
903d185fccf839df,-0.23015967096680087,-0.44954367403670037,3.0856562639193856,3.0149343626241625,-0.823546097540372,-1.8252348494915456,1.8702620487860713,-0.932799636616933,-0.3364935655072711,0.676219768173875,-0.20788356836803226,-0.07587335357202482,-0.8870460115864528,-0.05774050162560878,-0.8381270810196051,0.13452382668377952,-0.5354184647846201,0.16906184532028673,-0.8038027446642395,0.6069916907022644,-0.16573085661444437,-0.35566976761543573,-0.3919399791353086,-0.5126381000029181,undefined,1497536137897
903d185fccf839df,-0.03888966328597838,-0.46598009398409923,2.630753919957944,2.614525647637672,-0.7937175798657865,-1.8463121344554452,1.92326315964472,-0.6143072118442923,-0.2945374059404431,0.6929940059500393,-0.12362074710133096,-0.048069144056028704,-0.8565828319964349,-0.07440550650966787,-0.847600766651244,0.16887411235496733,-0.5493396734612931,0.17198133067795462,-0.8226731429502295,0.6737593504400714,-0.1630054934147996,-0.3629770560854148,-0.41145309301764854,-0.49303791891670334,undefined,1497536139384
903d185fccf839df,-0.14838488637207148,-0.44778262904233623,2.1650057734059596,2.1069400935510174,-0.808549560176608,-1.8570802091649141,1.9734398600121308,-0.3092249333214248,-0.3753043959336764,0.5616936027649282,-0.13817132149071787,-0.04012964275134609,-0.8217677696078431,-0.11606814822756106,-0.7970744113794899,0.26788390560106723,-0.5664151401712374,0.11288863127530391,-0.8252059884937036,0.5358200807498089,-0.2083014668626449,-0.3681927123674341,-0.5055887921497726,-0.42133341079455805,undefined,1497536140893
903d185fccf839df,-0.26896814683307113,-0.2840052838125113,2.04505948670185,2.27347527441373,-0.8983745529396908,-1.837037106935177,1.8330871087894272,-1.1675075255289944,-0.46326957273415126,0.2930988655120703,-0.2510218824530146,-0.06526814467885199,-0.6868594028520499,-0.10958732162872112,-0.825495490361108,0.3426464117712966,-0.529890255353456,0.10405417612984853,-0.7860728250769363,0.5329867708398474,-0.20651199634867395,-0.30131844741276137,-0.502939454674842,-0.35827455902752664,undefined,1497536142423
903d185fccf839df,-0.32163668667067946,-0.3063118683551202,2.313024281680327,2.2848618133684706,-0.9028796868381742,-1.8368833781973664,1.798334220401605,-1.3915027971531746,-0.4546955842331585,0.17873045972534365,-0.3081945490744339,-0.0005185553990038144,-0.9218610739750446,-0.07533140918513541,-0.7865480588358852,0.5568308186277814,-0.4944509294209188,0.11127373237608203,-0.7483600142620174,0.5927943338686614,-0.18900580039804704,-0.2839569443576182,-0.4733782618600416,-0.28402212525236326,undefined,1497536143884
903d185fccf839df,-0.38123536201018604,-0.18362561683578085,1.4740391750424133,1.5120570391671937,-0.77741475173425,-1.6660057303480185,1.746461287372447,-1.3891417878000467,-0.3068439413923654,-0.32976030206953016,-0.338045125143097,-0.11258307802943233,-0.8565828319964349,-0.20217059575721907,-0.7718112227002621,0.6699848438249915,-0.3831095398765787,-0.08845464352208923,-0.7869054448066282,0.6477205917911226,-0.2773999631171495,-0.36617259117614664,-0.3973258313440497,-0.43989925810351993,undefined,1497536145365
903d185fccf839df,-0.23570372415966387,-0.1413604785150563,1.7515740051253266,1.532043746120673,-0.7033783008464145,-1.6365711345046134,1.7310480024631263,-1.379694619909777,-0.5016231664720934,-0.2335420733261517,-0.44494971738625316,0.010230854874485973,-0.6302849264705882,-0.06792470581237701,-0.7802322487821691,0.6760467503881237,-0.3286918063624585,-0.1373703022137046,-0.7970368275127094,0.6403601306271701,-0.29037545307077045,-0.35306254713864743,-0.42315236223792585,-0.44590115119556567,undefined,1497536146906
903d185fccf839df,-0.26758209902944563,-0.21767248672682132,1.3968397397791177,1.5034069552237548,-0.7183645667188402,-1.709460015938781,1.879947622799093,-0.5507564650855236,-0.48215406870863126,-0.28340706962655443,-0.4685248094489801,-0.011892907248134323,-0.5301916221033868,-0.04755634924193874,-0.7991796494943821,0.8417365548281459,-0.22173035138386665,-0.16063120384800203,-0.7728068705414513,0.887643769549286,-0.26074342623640184,-0.29525341020927637,-0.29637471734054566,-0.3776126007449625,undefined,1497536148400
903d185fccf839df,-0.2564939236329002,-0.3585562616439083,1.8102709997858515,1.6916234528063765,-0.783339317893623,-1.7900936188555132,1.9817973822284896,-0.07208333088239538,-0.6074551358424306,-0.09736907147057287,-0.4211206636057897,0.04823589687910767,-0.6085255124777184,-0.08088635901005692,-0.7928638541651337,0.9569112249679739,-0.14940476919138526,-0.17787580938741707,-0.7707847930544801,0.9392285628847928,-0.26236103116755444,-0.262182634147234,-0.1806352935754173,-0.3356833633181017,undefined,1497536149889
903d185fccf839df,-0.17333316024536477,-0.2622857142680238,1.8357919405208483,1.8332343366637347,-0.8451254971649643,-1.7300504903564564,1.8993924079409226,-0.5292847952715285,-0.6636793461021416,0.0022675907973894746,-0.4078452785665237,0.004391026922903116,-0.7956564728163993,-0.024410543660588792,-0.8612850094972391,1.0902713038852616,-0.20966521880397412,-0.1884011628588923,-0.7813849623829175,0.9408299985322071,-0.26185665763057964,-0.30347181493012315,-0.2171137045678504,-0.3717719997900416,undefined,1497536151394
903d185fccf839df,-0.18303525333287501,-0.19243078335161698,1.8983170000505378,1.9193354737318946,-0.9029413968553203,-1.7265193635517786,1.827590814836559,-0.9839978470504538,-0.7196247455356038,-0.21345547360650535,-0.34983773523129913,-0.013335483779222754,-0.9349167223707665,0.08298625377039687,-0.8486533746653394,0.7548504899141458,-0.28008668164917716,-0.14608443302938584,-0.7747030085829286,0.8357818001570532,-0.2757367422071375,-0.25535249587283365,-0.23009848353448453,-0.19420079836591467,undefined,1497536152916
903d185fccf839df,-0.07908411794505467,-0.25641550583082523,1.8511039458605574,1.8793705397910982,-0.7527187902901434,-1.7876875140272308,1.8858594256992167,-0.7035265349091416,-0.6376685807905328,-0.13009193600420013,-0.22155386697538546,0.008675613671842337,-0.8739903631907309,0.0329912132166705,-0.8086533277637873,0.6396757632448749,-0.30867663506211573,-0.15410827048165848,-0.738795375934571,0.738294244257894,-0.29713724135110875,-0.29914982208683594,-0.06850067713029691,-0.2610970981577084,undefined,1497536154406
903d185fccf839df,1.1433807842651698,-0.4783074381726407,0.2509713057280286,0.09712110623770502,0.0827369529297964,-1.8204622403034598,1.8740805255103292,-0.6233647288247581,-0.5877075412358557,-0.710114172070372,0.006291252114878285,0.0325510984107379,-1.0045468471479502,0.007067855018212523,-0.7728638454388252,0.3709349322029599,-0.38997845963840555,-0.32897984321566287,-0.7512636931737263,0.2841170902866638,-0.45437574186733376,-0.33962250512678177,-0.002741054093064549,-0.3764505838876288,undefined,1497536155889
903d185fccf839df,0.9049863244450118,-0.5111802780674384,0.32115274913299696,0.3160255379397498,0.09745578909480934,-1.8292527898935804,1.929653583632663,-0.31701046421176626,-0.4690999039449504,-0.8751163940311713,0.06930707550980458,0.012461742780158375,-1.0088987299465242,-0.31975151967032567,-0.7865480809225865,0.2800075491390025,-0.6798735817390179,-0.4469942498619286,-0.8024943410119497,0.1315954857045177,-0.546458714185081,-0.41679938647908327,-0.19700544253135516,-0.46505341405754624,undefined,1497536157387
903d185fccf839df,0.12743210502696056,-0.45658779555817236,0.5246783250787267,0.5660577589533703,-0.45037072306963727,-1.8108704322384672,1.8792559813455885,-0.7734837421722781,-0.6633525575508584,-0.721013187849524,-0.0786210970199261,0.05310904638442902,-0.9958430815508021,-0.25401726035103683,-0.7907585792390724,0.2840487259653522,-0.5861368219624179,-0.42932533515275856,-0.8488202253248304,0.13185726044832546,-0.550797017355502,-0.4207620483758223,-0.18192861301247507,-0.4768168242731865,undefined,1497536158886
903d185fccf839df,-0.2786701709097619,-0.32216127330439764,1.5359260966921007,1.385759588604153,-0.8331220828175337,-1.7648656278843429,1.8482084881330876,-0.9718062555451075,-0.5797382337159084,-0.3710972952928551,-0.2504288510512,0.02696018669730273,-0.9566761363636364,-0.31049317930670134,-0.8476007519267764,0.12644134583983319,-0.6407394501145949,-0.4685959209226859,-0.8651997595810146,0.07800889836506336,-0.5761730625986561,-0.47345159876332016,-0.22684319287538574,-0.5058503068248094,undefined,1497536160403
903d185fccf839df,-0.11650651150228972,-0.2540674458383397,2.0437832109418457,1.8723719230198936,-0.6845966272925772,-1.7200231147738179,1.8829114081600566,-0.5487894416306784,-0.7077083670210408,-0.33658053135765026,-0.3136409780324431,0.013570534954520553,-0.9610280191622104,-0.2697565050181484,-0.8033901993465046,0.1668535098094317,-0.624754212192293,-0.416216143750367,-0.8574332992754546,0.16865954459376936,-0.5306940357598519,-0.39681298050176544,-0.12818457004284,-0.44584856785900817,undefined,1497536161889
903d185fccf839df,-0.11650647699687998,-0.24467520586839747,2.464232971080806,2.3687114433610494,-0.6934011809727288,-1.6977066754715506,1.828072059966471,-0.8526160183593287,-0.7271776596305854,-0.23346291020412013,-0.27100039228587103,-0.029106882627527326,-1.021954378342246,-0.221613101455288,-0.8381270736573713,0.5063157408570301,-0.645420897303971,-0.19577904073708075,-0.861127616195207,0.4613685938937578,-0.39178032873740026,-0.31250299847745744,-0.07740157869120305,-0.34565704697862165,undefined,1497536163389
903d185fccf839df,-0.15254285725589928,-0.24937132585336858,2.6939168632306862,2.558379517045322,-0.7327233990883609,-1.7276583643539307,1.8152438671480662,-0.9989853386160962,-0.607668388702111,-0.39342896926565646,-0.31721943517948764,-0.022116703822740266,-1.0088987299465242,-0.07996053403923666,-0.7960217739164593,0.4901508074338591,-0.5234953042336387,-0.09999326872386062,-0.8258077145349509,0.5525427890042757,-0.32286143459874356,-0.32581782834409906,-0.038445940534730286,-0.31531041365099216,undefined,1497536164897
903d185fccf839df,-0.17333316024536477,-0.16601510843615455,2.1190687408390336,2.1530196975317195,-0.7784844612814837,-1.7643601863794671,1.921243456966857,-0.4348876614076007,-0.600462279725067,-0.13953156193030997,-0.28769398568142185,-0.0037910093210492737,-0.9218610739750446,0.008919492009078479,-0.7686532955867028,0.43963564486894324,-0.49380477741357304,-0.08230535784125793,-0.7715894272901448,0.5630907241888312,-0.30243690454801964,-0.28283189818354376,-0.050780577436568046,-0.30148265797480134,undefined,1497536166417
903d185fccf839df,-0.24124781185793662,-0.2429141608740333,1.3655770829457983,1.2677527757846818,-0.8354569404284079,-1.7301343448402042,1.875413828533745,-0.7291730686794987,-0.5142574849172314,-0.33634095222162613,-0.3617210165376242,0.026938475582497144,-0.8174158868092692,-0.059592229271896564,-0.7170742954896844,0.39720289248616986,-0.5648368077389985,-0.11751652580042715,-0.7521033087049799,0.4549012438849963,-0.3292318889133527,-0.26855457177086256,-0.026901531991719303,-0.31203279482748897,undefined,1497536167907
903d185fccf839df,-0.1012603307165067,-0.366187427391494,0.8634621930682748,0.9796320873577959,-0.7579439274984964,-1.7347904917122245,1.8366557489470294,-1.0159579933295524,-0.5389837577235403,-0.6922091427958897,-0.16816404826914205,0.023704130476278187,-0.7956564728163993,-0.230871480671236,-0.7360217035641311,0.36891431552506354,-0.6112401472032633,-0.20413219812604355,-0.7578826748377877,0.42664509676030665,-0.3683637015578671,-0.2671383496819629,-0.22925427564212184,-0.4282648885449751,undefined,1497536169397
903d185fccf839df,-0.0874001287235297,-0.42371489720739,0.7058731414155717,0.7494751317781947,-0.6320881369593844,-1.7507644142021548,1.8289635691020167,-1.1206669743914903,-0.37361010642138714,-0.39985435175546,-0.07010631910518843,0.05366191772518218,-0.8348234180035651,-0.3271581841907604,-0.770758570512764,0.3487081770108212,-0.583610361123756,-0.304750007504987,-0.7470865953553388,0.4259213697570197,-0.4094360657395858,-0.26825837143443837,-0.316628821001961,-0.4756412507711905,undefined,1497536170900
903d185fccf839df,-0.10957637600039148,-0.5328998622259221,0.836665738984122,0.8889686707550767,-0.6595200893305553,-1.8146437989378292,1.8309595915022068,-1.245371862856899,-0.2223822065844523,-0.3555000714354418,-0.00831170942779637,-0.026366187056148457,-0.9523242535650625,-0.46418160085116145,-0.7865480588358852,0.2820281375521773,-0.6150347368990229,-0.46214265426646645,-0.7600796734041279,0.2884748443303106,-0.5086310242787623,-0.2514409892922044,-0.4104258390830797,-0.4870577668651695,undefined,1497536172383
903d185fccf839df,-0.10264630950931272,-0.5035490830918604,0.9719240310279404,1.0787651660775148,-0.6744754983419257,-1.8484457199134483,1.8453341077097134,-1.188148233131604,-0.13064560768263625,-0.34464807848469153,-0.07994688440900605,0.05824882769262427,-0.9697317847593583,-0.5493582752130973,-0.8002322869574128,-0.025104184251996644,-0.6738734953429197,-0.5931775905444371,-0.7614370545001061,0.1898939943080538,-0.5841943644884245,-0.31129293105944406,-0.4904397948509464,-0.5007974976231753,undefined,1497536173893
903d185fccf839df,-0.02502949579841112,-0.4947438288920472,1.2781694746980634,1.2764930337809983,-0.6429806913454408,-1.8503906340193277,1.8388200766738492,-1.1964978790370122,-0.22594138462557511,-0.58972531603733,-0.15713276823214842,0.05361451030755124,-0.6650999888591801,-0.48640160736324023,-0.7949691364534287,0.19110078275294143,-0.6567917731148444,-0.589954123447321,-0.746225987574688,0.3188867723904754,-0.5600004397207149,-0.2571583591994432,-0.4586038131902055,-0.5028332917129826,undefined,1497536175394
903d185fccf839df,0.015164889849845698,-0.3697095466082147,1.3056040666622184,1.2245385754532894,-0.622152157365199,-1.7830546569633268,1.786342294609422,-1.4024536959484597,-0.1608813072924551,-0.7074010440223101,-0.17980856302402895,0.06436635051064905,-0.6955631684491979,-0.49473413570681884,-0.7686533176734042,0.2577809070057499,-0.6647068055404128,-0.6403960182874816,-0.7475413869184323,0.3291575368897664,-0.588765410850792,-0.3294796516425833,-0.4295881500456987,-0.4355445100343913,undefined,1497536176887
903d185fccf839df,-0.0028533520377785515,-0.3462288882273745,1.1333408934128588,1.1571910571447126,-0.509894057114631,-1.678394950560766,1.8529500279681281,-0.7869403479085378,-0.24300150299905687,-0.5870894543594308,-0.10444186715431575,-0.058178320375087536,-0.7738970588235294,-0.48917906932492644,-0.7476006346728962,0.24969852508832896,-0.6279607050319558,-0.6027213373140566,-0.717245195608323,0.45488584273362564,-0.5335630379482252,-0.3462232941496702,-0.47602094994067345,-0.4393995638798574,undefined,1497536178465
903d185fccf839df,-0.16224495034340955,-0.21649845673057855,1.2871018801963972,1.227538369794367,-0.35394232344262766,-1.526461006840902,1.8215948451315755,-0.5786993581706882,-0.20694433185125172,-1.0704419184459797,-0.16110208687953834,-0.013855500113221508,-0.49102467691622104,-0.3734498989596567,-0.7328637838128056,0.19514210090289882,-0.5897538596146676,-0.4686465883477711,-0.7018871962845521,0.5425799906945237,-0.4499290866075907,-0.29076257338994427,-0.4434604293432483,-0.457506898944233,undefined,1497536179895
903d185fccf839df,-0.07492597453417821,-0.37440560813720114,0.8857924444032607,0.8241151358034997,-0.5492779924232785,-1.5396258695903073,1.787851799702511,-0.8928385355313307,-0.21499983304302378,-0.9939139636900042,-0.09430068984236871,-0.07184654969575893,-0.41704266934046347,-0.23179730564205625,-0.740232201880617,0.2496984685588859,-0.5500650188530878,-0.39115669046904633,-0.6691001412688413,0.5806141521719218,-0.3886648021905737,-0.24578248686795218,-0.41822534968637126,-0.4480354916093025,undefined,1497536181397
903d185fccf839df,-0.06383800617009112,-0.44719552636023785,0.9904264716307111,0.8306033066636348,-0.5493602733423731,-1.6744096270108042,1.828001037988843,-0.8459487620845827,-0.24090267805287197,-1.2941399548743107,-0.2649731560214214,-0.07773064059275644,-0.4649133801247772,-0.22068727648446776,-0.6791795087897259,0.28606934264324857,-0.5440708372383719,-0.3794027459961336,-0.6154136116261945,0.46843647689378964,-0.3759200702851266,-0.2755476305232829,-0.4178444028273457,-0.5196185503932491,undefined,1497536182884
903d185fccf839df,-0.26065210154918633,-0.4906347531331898,1.20416022056088,1.0639679325959819,-0.784882162266741,-1.7389528445289821,1.8676769284120671,-0.8760122745701714,-0.37752923718364784,-0.6826596175467967,-0.23216395877718052,-0.14590155924870904,0.04425690730837791,-0.28271817116660286,-0.7476006346728962,0.11027653960790901,-0.5804194002375032,-0.40679272712402065,-0.6654687981733254,0.29894578728763455,-0.4335109698256785,-0.28251582253980945,-0.4115906250774734,-0.46833241702423206,undefined,1497536184383
903d185fccf839df,-0.3618310723189363,-0.340358767474153,1.3311244991233162,1.1913228492076156,-0.7826398856617484,-1.8034587935809072,1.8619544792177392,-0.9998703015840651,-0.3098351074729356,-0.8893504919566556,-0.21898813968429393,-0.186657804459895,-0.09065145944741532,-0.29475401234423704,-0.7454953818335363,-0.06349578807314185,-0.6637104362109751,-0.452833226667597,-0.702327998079641,0.04827449398869699,-0.5126518656181663,-0.25326515835949825,-0.34193154241944823,-0.41939646581867673,undefined,1497536185896
903d185fccf839df,-0.6889304867411317,-0.37323157814095836,0.8111450523860748,0.7531847527988272,-1.079166247006129,-1.8218784170384783,1.8789535570898348,-1.0127222826908437,-0.3216009372394041,-0.9609075494894683,-0.10583979696391482,-0.12809263607332771,-0.3822276069518717,-0.6336092023088603,-0.8623376248735684,-0.23524748494393555,-0.8656387005470166,-0.6826367525880026,-0.7829802361436567,-0.19066318204929622,-0.6865131167700638,-0.325058673557908,-0.5164461409052395,-0.40509059043198536,undefined,1497536187411
903d185fccf839df,-0.7318969679966395,-0.5129413230618026,0.5872031304714669,0.4891014803859053,-1.0624931327329346,-1.8771535925700016,1.882764145451223,-1.0734628023718742,-0.391308615906479,-0.8023744272016967,-0.04711408101602722,-0.11468747434565313,-0.517135973707665,-0.5975016787759577,-0.8749692008075978,-0.31000994871708265,-0.8591383459966045,-0.7027565146953703,-0.815543393633391,-0.28704205251493525,-0.7274035574064625,-0.41274263361653035,-0.6301357837489493,-0.5354506956905024,undefined,1497536188892
903d185fccf839df,-0.5447850002104643,-0.46715406552435734,0.8768605471788258,0.8465910996804308,-1.0167423493090457,-1.8066265590512904,1.8947297585434648,-0.8419969742500323,-0.4328464064299651,-0.8203556003114594,-0.10714268544408569,0.042859141836069314,-0.7651932932263815,-0.5345449785491643,-0.890758718579654,-0.30192749613785785,-0.8508269969111818,-0.6834410350785483,-0.8685092528873966,-0.25156403407206784,-0.7357015170742155,-0.43102706916380623,-0.6052144700244558,-0.4723325506090069,undefined,1497536190419
903d185fccf839df,-0.4352898461351906,-0.43956438984064444,1.352179237109146,1.2305240572186957,-1.052238294031906,-1.7993872834697695,1.9168332838909754,-0.6786491181325495,-0.3976436569879783,-0.6855690064668875,-0.19900082478643066,0.08109150326299999,-0.3778757241532977,-0.5030666251980739,-0.8697060503036137,-0.31203055126261825,-0.8292734837083452,-0.6666967329146105,-0.8362049763969013,-0.2594018411887506,-0.7168495691957761,-0.4001780865355688,-0.6256448620540058,-0.48938830162987784,undefined,1497536191908
903d185fccf839df,0.0539732967052965,-0.362078380860629,0.9374714472054584,1.0416381671682273,-0.6489361106809097,-1.6945831664636855,1.8294369363442775,-0.9746181673501324,-0.11763278532760686,-0.6947282780709955,-0.12258498398601018,-0.05723483936817652,-0.4649133801247772,-0.41418654087127327,-0.7823375237082304,-0.3120305371302575,-0.7880259148888377,-0.5833868584841726,-0.7600726786914033,-0.1490257841086079,-0.6325415360450712,-0.3788398825045432,-0.5615845512598073,-0.48889874311476034,undefined,1497536193389
903d185fccf839df,0.009620767646163219,-0.1413604200590716,0.7352218928827836,0.7643478148858259,-0.5721636658332198,-1.634782277313869,1.8336972205741886,-0.7945388267383292,-0.13401492169857693,-0.4985378472352579,-0.17283677676261022,0.0943197617494735,-0.691211285650624,-0.29938317605066195,-0.7676006581236722,-0.019042390747750555,-0.7074540693725748,-0.44702591576516204,-0.7433503003902917,0.029549985928027295,-0.5275078201993267,-0.3974522271279703,-0.5390969083218466,-0.5415581288114515,undefined,1497536194901
903d185fccf839df,0.04149907350512552,-0.2669818050250025,0.9604398364204464,0.8379920580261446,-0.44152502397664833,-1.5354658468014863,1.798202724990814,-0.8089740038284919,-0.3133095705752513,-0.7607144129675092,-0.15112303319011078,-0.02460097705931092,-0.691211285650624,-0.22901979187727184,-0.785495443459556,0.14058559192330405,-0.5906564200989364,-0.36248111807061933,-0.7831551567887144,0.2765564483626232,-0.4557042038623469,-0.41976894486543764,-0.49722507529081184,-0.5763796088189689,undefined,1497536196390
903d185fccf839df,-0.33411073734380176,-0.23293487667797738,1.062521820401787,1.0575385736660017,-0.8463597773726854,-1.5641900228808525,1.834146917490233,-0.7271147997749436,-0.5024843746642034,-1.0275651653262914,-0.22346205296768681,-0.04387660756147997,-0.8130640040106952,-0.2512398113401252,-0.8012849170582096,0.30223419127225504,-0.5652047279606836,-0.3706189510504146,-0.8356382344956762,0.3494834884733013,-0.4609891207906879,-0.38734593514624954,-0.4889847773943384,-0.5967512050144387,undefined,1497536197882
903d185fccf839df,-0.06383790265386192,-0.25758962351104503,1.1422732989111923,1.0647555839083696,-0.6434641166996222,-1.5906804617373334,1.8545226556769976,-0.5890639562815059,-0.4290351187416548,-0.9565274682025131,-0.267139322497331,0.015021992625015962,-0.8870460115864528,-0.23364896853447129,-0.909706089842932,0.449738615199539,-0.5021513373947813,-0.37476703010587625,-0.8969442919537743,0.5846947429884234,-0.43518547066526464,-0.3921048703646497,-0.4809255859113723,-0.5516040627772011,undefined,1497536199394
903d185fccf839df,-0.13729664196470653,-0.1448825685037846,0.8991907985138117,0.780161252162345,-0.6757920649621724,-1.6535303229498248,1.8791507860644776,-0.5144255145096713,-0.46427897356343384,-0.8677356090443111,-0.3005780964266554,-0.0032315245083898423,-0.8870460115864528,-0.3243806833767506,-0.9728640873088196,0.4275118600074003,-0.5361685510149677,-0.4248479489835252,-0.9914921961619544,0.5441044407381628,-0.49888861901102044,-0.40718521827057086,-0.45772949524628526,-0.5071162687073878,undefined,1497536200898
903d185fccf839df,-0.034731657896740854,-0.312182018336334,0.39069580052101377,0.3114951149845677,-0.5939899140406134,-1.7963779062535161,1.8595771416004512,-0.852320977379384,-0.5001545848528274,-0.9047613658670444,-0.2120374060987416,-0.054475223601559125,-0.9392686051693405,-0.4252965894550236,-0.9718114277590876,0.9811584555144013,-0.46147438338735103,-0.46698735702124444,-1.0063534224150803,0.9130511976429561,-0.445434324521333,-0.41878816030832394,-0.45456604439442283,-0.5037013559797929,undefined,1497536202423
903d185fccf839df,-0.128980562175412,-0.4548268090197929,-0.04379045160849932,-0.15637295850344934,-0.6552103813411948,-1.8878820682887636,1.8766656254576581,-0.9333674035606286,-0.5578241974411863,-0.9796425672157898,-0.05399594962624197,-0.02468016717565456,-0.843527183600713,-0.4762174226026338,-0.9970746311627828,0.9973233889375723,-0.5852797273154619,-0.5986049253189917,-0.9973695174390558,1.0580429598574919,-0.4605081382894725,-0.42799490379193267,-0.5611590181496195,-0.5295397454718911,undefined,1497536203892
903d185fccf839df,0.04149910801053526,-0.5170504426626484,-0.015717975901291734,-0.09560442709932782,-0.8896831300798764,-1.9464018740158804,1.8785748580584174,-1.139245447782658,-0.4624650065489908,-0.5810820273432538,0.02994038184787585,-0.025273947636812434,-0.6868594028520499,-0.527138326979504,-0.9760219849734437,0.8518394968940202,-0.6244789143361504,-0.6355893168600407,-0.98723813528351,1.23015138061233,-0.4380634516060018,-0.4444864306830751,-0.5901940596725249,-0.5317741482989443,undefined,1497536205395
903d185fccf839df,-0.1885792720203283,-0.5088322034609567,0.39898981400239586,0.3902498211091771,-0.941245329619794,-1.8962044415431354,1.8650313597454224,-1.1629707628183186,-0.35826232982720274,-0.6064894698901643,-0.06630002242730308,0.03556351944827255,-0.843527183600713,-0.5419516689711481,-0.9802325127388648,0.7548504899141458,-0.6903407313629886,-0.6259062455620584,-0.9666815048544277,1.0185305447497783,-0.47308883375641114,-0.40541335116907884,-0.5970861332500037,-0.5592222462560911,undefined,1497536206896
903d185fccf839df,-0.21214149808999608,-0.44308647982937277,0.7173575901600151,0.6297091039306811,-0.8951859779394427,-1.8642565967481097,1.9151475709668428,-0.7843943554578441,-0.3639962778464445,-0.45756026870096284,-0.039385988392523344,0.01670621638308782,-0.7869527072192514,-0.42714826529821315,-0.9949693488744878,0.8619427216071097,-0.595208838455338,-0.5899921216187587,-0.9648413440832265,0.9408299872238672,-0.4728146431626636,-0.4158430417597189,-0.6328574714475697,-0.5296042225636577,undefined,1497536208392
903d185fccf839df,-0.32718070535813276,-0.5692948505654328,0.8105071686430221,0.7548030012334126,-0.8285140931809868,-1.8504698308917324,1.8546804459798596,-1.1678159298471746,-0.38362707364405707,-0.6002308280020212,0.014549380418446797,-0.10294524853670067,-0.7695451760249554,-0.5002891114332895,-0.974969318061478,0.4537797354964457,-0.7621536614490908,-0.6148425916786848,-0.941080174272626,0.37535287212471646,-0.5983320819258169,-0.3995602038589397,-0.6734122297372649,-0.481900237404161,undefined,1497536209892
903d185fccf839df,-0.3937093781778986,-0.5998196304677449,0.7683987092191601,0.7562960769967243,-0.8723003103450161,-1.8529225186786755,1.8621675032497518,-1.1525062495968745,-0.3169857549416844,-0.6471223284056415,0.011002999043261753,-0.28890978080665386,0.32277740641711233,-0.4715882912731453,-0.9349692858843934,0.21332750968035863,-0.712791111517722,-0.5687070965957811,-0.9517293208734743,0.10415545318638618,-0.6428258203225897,-0.39908955778897254,-0.5363673495229754,-0.47337440172488743,undefined,1497536211406
903d185fccf839df,-0.35351499252964175,-0.5810351505278605,0.8794123362879862,0.7978544239137645,-0.7930798704383885,-1.8456692676754383,1.8515641325417656,-1.1798344483812897,-0.31960021379707426,-0.6556863410169682,-0.10076494469516174,-0.12466490976804621,0.45768577317290554,-0.37993072555849666,-0.919179804923506,0.25778085047630683,-0.5276114481939067,-0.49844308691036726,-0.9176548513474038,0.2343801051005612,-0.579112285528357,-0.35513301212428167,-0.2842698634158228,-0.4069925598536142,undefined,1497536212907
903d185fccf839df,-0.6736843404607584,-0.5622506121319915,1.0318970473115203,0.8755429968315882,-0.9712384260669797,-1.8301402296228775,1.8479402612738178,-1.2152112356113833,-0.2928174818970822,-0.6093793753914007,-0.11848635861114037,-0.20532680984012058,-0.33000501336898397,-0.3734498730581076,-0.9233903326889271,0.22747174163146872,-0.5745702060437753,-0.4907358941560012,-0.9186483986142331,0.250517676560998,-0.5743078925675089,-0.3612741930044243,-0.243211094458605,-0.43493008374129455,undefined,1497536215055
903d185fccf839df,-0.6764564360680094,-0.5334868772240434,1.0867659771028806,0.9907230066781805,-0.9079505313510643,-1.8214335334854166,1.8307413288137029,-1.304528816828963,-0.29901497932830506,-0.5848882267263129,-0.10713097284063174,-0.13044811423977104,-0.5998217468805704,-0.3558590302524537,-0.8928640008679491,0.28404874009771297,-0.5293749193944712,-0.49442166749805,-0.9144852958918107,0.33097455350627736,-0.5600028799646402,-0.357216720744684,-0.24844880692398696,-0.4119033631288693,undefined,1497536215910
903d185fccf839df,-0.738827068993128,-0.4436734363715095,1.0631597041448397,1.0050606060456686,-0.9788189807412779,-1.8001675785284723,1.832645309663948,-1.2605489550385227,-0.37552784888669716,-0.48616136340329996,-0.16920613264840223,-0.09322230277495018,-0.673803754456328,-0.363265707723663,-0.9549693314218709,0.23353356340043635,-0.5043919031413815,-0.4864991555500559,-0.9319143514675264,0.3493141014539254,-0.5650595582161875,-0.38665024420437627,-0.22246906647240644,-0.38732718261835525,undefined,1497536217470
903d185fccf839df,-0.7540731807680915,-0.4084525657122186,0.8111453065230243,0.9117922018137762,-1.047239436801004,-1.7369007808063668,1.8416839562149996,-1.125737605507604,-0.44085111023921847,-0.48896650538958747,-0.11749483146654974,-0.07773058155727265,-0.504080325311943,-0.4632557499787921,-0.9644430244157436,0.12846197665009035,-0.6141304031365955,-0.5544896394242026,-0.9537444013171203,0.293587129362774,-0.6112422908136771,-0.38220288181332607,-0.2305632052897864,-0.39363613846213535,undefined,1497536218896
903d185fccf839df,-0.6875445424537354,-0.4970919181125251,0.5342486143201131,0.547424106722351,-1.187711205274416,-1.7546845230379307,1.8771048068261742,-0.9683259151588033,-0.3571893127311069,-0.5553163860375278,-0.06827121887447815,-0.12168252257699654,-0.7216744652406417,-0.5595424923506401,-0.8876008061905623,1.5145989973013245,-0.1416057853697189,-0.5588783704279917,-0.887890417382537,1.525616750650993,-0.317700034569991,-0.4141125569122143,-0.4812156380653334,0.01442026478410689,undefined,1497536220394
903d185fccf839df,-0.8303040846970066,-0.5100062480711957,0.00023267559231852848,-0.08151185918115651,-1.3512846484440066,-1.7588818130498998,1.867726916152073,-1.0916510693751138,-0.28547319496711226,-0.6642785577934395,-0.004153620485552214,0.019156261265456657,-0.7564895276292335,-0.5734299964206894,-0.9412851033003433,1.7631334919759463,-0.029727485813355676,-0.5626528054244573,-0.8625759560956157,1.6215798625107032,-0.2929232672240936,-0.4404567273309129,-0.47777571038799843,-0.003008867641318184,undefined,1497536221919
903d185fccf839df,-0.7707053921047952,-0.5240945787981166,0.07424192972950217,0.06790810890187002,-1.3700457617066586,-1.7768868353379808,1.904223360046205,-0.8830442711030559,-0.30585899438003106,-0.6798901139020638,-0.052491237034283086,0.026265538532362614,-0.8043602384135473,-0.6187958732679909,-0.9433903561397031,1.3044557672711894,-0.2944009060109547,-0.639420748925416,-0.9038991212800805,1.2800423447871982,-0.3991500653819512,-0.49988814379549823,-0.6089550286894417,0.06843982517341668,undefined,1497536223390
903d185fccf839df,-0.6515081621947161,-0.4853515596941127,0.5993257170959124,0.44516183706180645,-1.0514565787363779,-1.7917031256199698,1.95026337328017,-0.5104863060769494,-0.4239985850193992,-0.5811782173963549,-0.09362412249388659,0.012892396609222864,-0.8957497771836007,-0.5928725344956947,-0.9581272290864952,0.9811584555144013,-0.4920724097680149,-0.615754538126169,-0.9196979204108954,1.1717912738517586,-0.4021816595317193,-0.49175824060306034,-0.7591822820533095,0.019988060912652938,undefined,1497536224896
903d185fccf839df,-0.590523577073223,-0.4119746264729546,0.923435463488804,0.8608039396633627,-0.985237255001102,-1.7848900998644146,1.901590920493965,-0.7773661437875887,-0.5137346199896579,-0.5086091219623621,-0.17641099025206466,-0.025130397678007215,-0.9610280191622104,-0.5910208392263433,-0.9191797975612723,0.7993037459159295,-0.5303667886075482,-0.6082816637120533,-0.9102312352152293,1.2629346729464341,-0.3779737940006892,-0.49311817513506573,-0.787821120571221,-0.021905820645092094,undefined,1497536226393
903d185fccf839df,-0.6237878272195816,-0.24467520586839747,0.9987204851120931,1.0343656509349146,-1.0808633781331622,-1.7932171297842103,1.9073501890318278,-0.7599565376893227,-0.5117686684652272,-0.4880992595896667,-0.1604051699119226,0.02412617596347685,-0.9914911987522282,-0.39752158131492504,-0.9939167555848599,0.06582317054723925,-0.7934370544481565,-0.5173595906768735,-0.957088877809263,0.4938593111871965,-0.5149641289177106,-0.503944754734997,-0.7922749046762471,-0.30772592326590564,undefined,1497536227886
903d185fccf839df,-0.7027907232395184,-0.301028674916043,0.9062090445090882,0.9058439503522381,-1.1705752271745473,-1.7263749507411106,1.7774614435988416,-1.5165407184581237,-0.5219183813085717,-0.6754317217814675,-0.13507595744952158,-0.0406413017617763,-0.9392686051693405,-0.40122485529665697,-1.0107588592843104,0.025410950048197663,-0.888708105815758,-0.45957147830848205,-0.9740351538076287,0.08195090017045341,-0.5902560472762188,-0.4214167160087089,-0.6226731409256565,-0.5323172725448309,undefined,1497536229427
903d185fccf839df,-0.5433989524068388,-0.3697095466082147,0.9872365446415485,0.8731954432736859,-1.1436164177353723,-1.7273625487584168,1.8111492584413216,-1.3012357324762545,-0.5293285138530667,-0.69666487020697,-0.08442555392755931,0.035711076456663216,-0.9088054255793226,-0.354933218232408,-1.01917992953962,0.06582308575307465,-0.8248892793050654,-0.40785666029980266,-0.9694942234936118,0.2699505226300497,-0.5278933582341516,-0.4239287554693259,-0.6576541230228443,-0.5152139399317772,undefined,1497536230902
903d185fccf839df,-0.4671682210049724,-0.6972642662958569,0.038513324283965235,0.21568177129305102,-1.1366118617271324,-1.7463831145887068,1.849623327110377,-1.1412206738503854,-0.4450979324509005,-0.6763583880911808,0.0030201232104240094,0.01311183166167201,-0.9088054255793226,-0.40955740306639743,-1.014969401774199,0.2699045788084067,-0.7240273568796513,-0.5364407484653457,-0.987874845201746,0.5091807695353916,-0.5384213295354104,-0.41308208509042804,-0.7122831884714469,-0.5340032951754788,undefined,1497536232392
903d185fccf839df,-0.4089556624799108,-0.7459865111399321,-0.18861852461980522,-0.18786492732373045,-1.0009435219448142,-1.8101739885901813,1.919681354233212,-0.8106673246037049,-0.3893973213964334,-0.6122362281482249,0.07663841251167273,0.020478631724249748,-0.9349167223707665,-0.5808366868426732,-0.98970619100827,0.41740891794152607,-0.7625207266710886,-0.6399527121414775,-0.987084205334116,0.6857701450905106,-0.5480574126408744,-0.414894029582551,-0.7211979618290676,-0.5363639455597934,undefined,1497536233905
903d185fccf839df,-0.26758206452403593,-0.6820017886607238,-0.07824278129403194,-0.10814001876207793,-1.0252074810465064,-1.8239933646300834,1.9154605086750818,-0.8287120764539564,-0.3871332364203282,-0.7316513840163789,-0.02078483012702612,0.09505177622147395,-0.9479723707664884,-0.6002791795899676,-0.9802324906521634,0.5305629148740145,-0.7388703940129551,-0.6860945394704386,-0.9773516416187553,0.6818127420125892,-0.5742447706572319,-0.4067992687956003,-0.652808022259128,-0.5515041697797051,undefined,1497536235403
903d185fccf839df,-0.0555218228645674,-0.5610765821357487,0.7173578442969645,0.7145137742045737,-0.985226975721735,-1.8336620367815193,1.8665461233979173,-1.0903531621004083,-0.4504086738106286,-0.7345822499357458,-0.10491957847837495,0.022997539418027034,-0.8043602384135473,-0.5141766284541133,-0.990758813746833,0.49217139584703395,-0.6761227904895255,-0.6387494530365563,-0.9938711115602887,0.7280234750602572,-0.5563265803955321,-0.41862704635776593,-0.5342122523207377,-0.5366003535399343,undefined,1497536236895
903d185fccf839df,-0.3188645910634285,-0.36853548738397957,1.5442201101734827,1.5297791555895206,-1.126809593617776,-1.8184614237867789,1.8853886877366588,-0.9345590644398284,-0.5107899828759764,-0.48056670156984344,-0.18317171468038532,-0.04225192120661164,-0.7608414104278075,-0.36974657965021385,-0.9328640256827998,0.07592611261311351,-0.7314418912178235,-0.562443813898064,-0.9778554117694276,0.4402111297428616,-0.5809422757753434,-0.4221345392796965,-0.5552009990973209,-0.5365433745085854,undefined,1497536238389
903d185fccf839df,-0.39509547773963866,-0.37029653237834376,1.4938176372682388,1.4066090407045464,-1.146187846828248,-1.8185499339211717,1.8621832862606205,-1.105600917896201,-0.5293325580807356,-0.2400473180104488,-0.17687388996732276,-0.2108652679622385,-0.2342635918003565,-0.3947440545993661,-0.9076008370035721,0.09007045762310975,-0.6693454341650135,-0.48959596349679074,-0.9571238612702915,0.6112108649834064,-0.5101547276346273,-0.4278062172631289,-0.5375508333529295,-0.42083914285766216,undefined,1497536239891
903d185fccf839df,-0.5752773272766205,-0.44602155481997974,0.6439864739028336,0.6142049129499322,-1.2308082757035572,-1.8629894892762613,1.8979170913403827,-0.9604611609043061,-0.4897142667357283,-0.10480942988063582,-0.13924254816231335,0.019077371463300512,-0.2647267713903743,-0.44381327018227223,-0.9202324129376015,0.8215304445786251,-0.27689957400907295,-0.44089562656781667,-0.9287657868360554,1.267076851513606,-0.33896866531985576,-0.42283555059084904,-0.6264034007528919,-0.21560295667107998,undefined,1497536241442
903d185fccf839df,-0.6265598883214228,-0.4677411389784634,0.46661921416125446,0.467290987162563,-1.2931395972380206,-1.8501926480638045,1.9100746837517966,-0.896326299161273,-0.4567162631860052,-0.23332796628165756,-0.11305380481189269,0.03858676397245186,-0.1820409982174688,-0.44381327018227223,-0.9265482377157852,0.857901488251317,-0.2557852679172598,-0.4355759546926972,-0.9257991391283342,1.2787950688347878,-0.3366277497807039,-0.4359326750718625,-0.5884483764537741,-0.2187125425508348,undefined,1497536242914
903d185fccf839df,-0.7083347591796766,-0.5188114438150241,0.3613470490538019,0.30290326895638425,-1.3133304227671185,-1.7936736588107844,1.8846023843574427,-0.9895969339463273,-0.43145434246799985,-0.6539820330987046,-0.06931976592651923,0.07860070671063113,-0.17333723262032086,-0.4808466316367696,-0.9391798283742822,0.6477581168975742,-0.2768089881610788,-0.49096387891032084,-0.9169761608636439,1.1014357749383492,-0.3871673200150487,-0.4296111111909084,-0.575684624570227,-0.2129238015395372,undefined,1497536244403
903d185fccf839df,-0.6833865370644979,-0.4108006841606888,0.4985197547376267,0.46187493859251966,-1.2167991572353969,-1.7548964847794033,1.8562556987783443,-1.0873115797119453,-0.4806928415897771,-0.7928334317705182,-0.10563804705516822,0.12058648705087816,-0.9044535427807487,-0.5123249655616982,-0.959179859187292,0.4073058628167657,-0.3627853465312588,-0.6126703919419727,-0.9594118186165939,0.9707953623181246,-0.4792231990865875,-0.40698440310738343,-0.5186608136612266,-0.1664219812151156,undefined,1497536245913
903d185fccf839df,-0.5808213804694835,-0.47595937818015516,0.5029857033498442,0.3906198196867854,-1.0903467980325132,-1.7446431735793015,1.8507252131903618,-1.078932504074255,-0.5654594373415461,-0.8024878388085446,-0.1265212100778887,-0.06295891875638261,-0.8130640040106952,-0.5206574874298896,-0.998127283350281,2.2905123533175096,-0.08693157381761446,-0.6351270098565847,-0.9686685994920765,1.453629015833699,-0.3699234949877137,-0.42183284636656504,-0.6652734931261861,-0.2886806153909957,undefined,1497536247395
903d185fccf839df,-0.6182438430375381,-0.4237149702773708,0.3587950058076921,0.3345750535903341,-1.1373935778988884,-1.8584428132502353,1.8765814638904084,-1.071825740289134,-0.44470427076717917,-0.7743992004395357,-0.12147848419039531,-0.010640250477040359,-0.8739903631907309,-0.5002891308594513,-1.0254957322311025,1.4802485985712506,-0.2787160049313017,-0.6533152245133044,-1.0077807725129164,1.2331694710733714,-0.42333430270383743,-0.41644525367832735,-0.7647924646836612,-0.5199603828901955,undefined,1497536248889
903d185fccf839df,-0.7249669532636753,-0.40962661032245756,0.25097079745412976,0.32552868942542146,-1.3344572458284831,-1.8618435025228053,1.8517692498792775,-1.2838476881734415,-0.4283443468844426,-0.5870476312975579,-0.1001854157004043,-0.03545322521365553,-0.8957497771836007,-0.4910307969712142,-1.0276009850704622,1.0518796435346733,-0.35463954250681695,-0.665955780237332,-1.032668428905247,1.2305671323928686,-0.4407788081167739,-0.4152133496858272,-0.7892810814656727,-0.46802631200453515,undefined,1497536250396
903d185fccf839df,-0.755459228571717,-0.40610450571973306,0.3556050788185296,0.34071727666628987,-1.4232022376358062,-1.8645570665663298,1.8874715036026066,-1.0803318796721548,-0.40531038884793524,-0.48746465450721366,-0.06793089706395931,0.0008330234640455724,-0.9740836675579323,-0.5243608326408815,-1.03917996035263,1.1327039714738703,-0.28758822031616466,-0.635791970332414,-1.0451087583014236,1.2460733662033896,-0.42799919592608654,-0.4259588324053378,-0.7824835710559417,-0.4096997748808337,undefined,1497536251900
903d185fccf839df,-0.6473500877946591,-0.2628727438801413,0.6312262576722847,0.566165711579139,-1.2931498848335534,-1.8182284996112983,1.8898067680308022,-0.9555592643263416,-0.49589169066761246,-0.34322966743723915,-0.1302212426238568,0.03996945326403192,-0.9871393159536542,-0.46973662190534293,-1.024443087405838,1.173116248502355,-0.24673773541052282,-0.6192629874396176,-1.0400850477494141,1.3030168169925767,-0.4092822086218792,-0.42822144462618317,-0.7680236658523854,-0.3987677753738332,undefined,1497536253433
903d185fccf839df,-0.5877514987186769,-0.31335598987659213,0.8124215822830285,0.8278647270127433,-1.2262105680510813,-1.8087019103286688,1.9188687538668807,-0.7516333515199911,-0.5208032453795196,-0.4312515115839756,-0.12421289440434263,0.05440893756576252,-0.7738970588235294,-0.524360819690107,-1.0181273031199403,0.06986429084414589,-0.5978556038281894,-0.6294210293306943,-1.0383358448344986,0.7507053812716429,-0.5482165858378758,-0.4285553176472015,-0.6386529740541833,-0.38937656518376623,undefined,1497536254895
903d185fccf839df,-0.3756912743119133,-0.37968877234828596,0.6899232523328097,0.7288802261075921,-0.9673195774458312,-1.8448586911360454,1.925611576756561,-0.6948099411547521,-0.5345198612920486,-0.4388621740413581,-0.11784276269927402,-0.02851546221527316,-0.5606548016934046,-0.4549232734383116,-1.0044430713172958,0.12442077155901911,-0.5618024394850253,-0.5774085626812708,-1.0012457508237786,0.9540572560086188,-0.4855115722806795,-0.4520634382297709,-0.3391748323086877,-0.22486435952184758,undefined,1497536256386
903d185fccf839df,-0.3410408728457,-0.4395644190686368,0.5808230223561924,0.6013833629830131,-0.9360304852023273,-1.8638606258269264,1.8819778295017449,-1.0089965444825033,-0.5019285175230592,-0.4840787651053415,-0.1234454125943773,-0.0021603778941909936,-0.6346368092691622,-0.44010997029899124,-0.990758850558002,0.38709980909668795,-0.33564255025850503,-0.5672821852262111,-0.987301106875019,1.1086884445609617,-0.4325296511788333,-0.4424345753564933,-0.3165162971863427,-0.3057499264664107,undefined,1497536257889
903d185fccf839df,-0.4117276200655228,-0.3761667408155423,0.5387145629323304,0.5818109950272461,-0.8952065539147128,-1.8012040924412585,1.8899961102138583,-0.8634789500806384,-0.5074265552574428,-0.5898453281768822,-0.08891184158988293,-0.05283394387739033,-0.669451871657754,-0.42992574668606115,-0.990758813746833,0.2981930709753484,-0.42187301841947933,-0.5877755901855817,-0.9753365605878712,1.1618130831680618,-0.4303756634660268,-0.4281429503393758,-0.34132064367810755,-0.3493677390829584,undefined,1497536259381
903d185fccf839df,-0.6210158696339696,-0.32744443751548247,0.7460682037472248,0.7411908167381087,-0.984609827859854,-1.7516145892506871,1.8197408394510752,-1.2344741415596296,-0.518991085902747,-0.7039550040338112,-0.1784072596971162,-0.012989186865515586,-0.9784355503565063,-0.4567749363307267,-0.9381272203601867,0.30627550942221243,-0.3935857251412884,-0.5403418411172927,-0.9539962876342201,1.1686191943186826,-0.3981201236263569,-0.42589746229896075,-0.41043060348195565,-0.39807114145624645,undefined,1497536260896
903d185fccf839df,-0.7000187311484967,-0.34211981246851714,0.8532540200838357,0.960842341649809,-0.9813595447069454,-1.7364535707961224,1.7728382470147084,-1.4924858454105556,-0.5919710139231484,-0.6250018179027861,-0.12759565796133612,0.019568255511984683,-0.9653799019607844,-0.3160481938854956,-0.9107587346681963,0.3588112038708601,-0.37147175620023326,-0.4475642155846371,-0.9444806244443301,1.2529872757476657,-0.3345384637095612,-0.46247647929585667,-0.4495654344496029,-0.4233527361391281,undefined,1497536262393
903d185fccf839df,0.10802791885194005,-0.39319016114706634,0.6605745008655978,0.642784106512339,-0.514337471253431,-1.8630197706667988,1.8499231309903634,-1.0068586168027285,-0.7930026971198412,-0.6121050514470888,-0.08608160658911257,0.14593032626026117,-0.9697317847593583,-0.37067234634254864,-0.9391798430987497,0.15877117028909307,-0.7104904287796673,-0.4934907239968035,-0.9521701188331657,0.2746316438126715,-0.5806794407553425,-0.45100387489604365,-0.43747464982983414,-0.4863020101325645,undefined,1497536263891
903d185fccf839df,0.0345691450356857,-0.2793091638275402,0.25224707321413403,0.26703866471224214,-0.44099016346953807,-1.8193814742731318,1.8580413463291392,-0.9114618359367349,-0.7510548787651055,-0.6990120068744043,-0.004755617084453991,0.150039717778199,-0.9175091911764707,-0.4095573577386865,-0.9791798605513666,0.25171905697206076,-0.7232845246678848,-0.502040198088626,-0.9561373109060947,0.38297510772284366,-0.5636757969084593,-0.4603993891003211,-0.44669989377814195,-0.4732521051718184,undefined,1497536266001
903d185fccf839df,0.0803075493713958,-0.26052466927365964,0.3983519302593431,0.3459850865095202,-0.5205191775081586,-1.8169008352585896,1.9536663562462373,-0.31767702363186795,-0.7049765867924153,-0.8165533411156024,0.029668732399394507,0.14612657742919924,-0.8174158868092692,-0.3178998567779106,-0.9160219072588818,0.3446670001844715,-0.7661455908511594,-0.47374460576018534,-0.9541152321223066,0.5152169561789546,-0.5185994088244196,-0.4650639101307706,-0.46757370296478057,-0.4853257554610836,undefined,1497536266899
903d185fccf839df,0.08862359465528057,-0.23997905665543404,0.5151077817003908,0.42045087750312166,-0.5180814671379967,-1.8160553198201528,1.86965719817952,-0.873909373612176,-0.6638759215895302,-0.9032504646376108,-0.02010795669093723,0.14142792800663348,-0.8348234180035651,-0.2243906411216215,-0.9254955855282869,0.3264815066128471,-0.7095725785471053,-0.371195248216364,-0.9513724812003975,0.6345549059106101,-0.44568185621358014,-0.48966024243114886,-0.3339180715460074,-0.4861356711519216,undefined,1497536268436
903d185fccf839df,-0.24263382515615237,-0.29985473260377726,0.793918633406359,0.8052729526755927,-0.7930592942490625,-1.7513280912952085,1.8356406615704108,-1.0925058319151428,-0.5451906841734748,-0.8082486751537602,-0.06170489872028118,0.12546780487664258,-0.8739903631907309,-0.2577206379389651,-0.9033903239626186,0.3992233678404586,-0.6824972574392599,-0.39097936381606657,-0.9702988548236724,0.5896838353147141,-0.46305604282951646,-0.48448977805052307,-0.3565496760843917,-0.47972899582440437,undefined,1497536271010
903d185fccf839df,-0.1068044874255989,-0.2816572384340219,0.8806886120479904,0.8162444131669229,-0.8385529310278905,-1.7475197851663087,1.8185784788904051,-1.2055795852179179,-0.5271506199378924,-0.7944387679180166,-0.053574977258293466,0.00006064577735674882,-0.8783422459893049,-0.32530650834757086,-0.9339166484213629,0.3992233678404586,-0.7213918916721869,-0.42325204470193273,-0.972656780437785,0.5912698747514257,-0.47976751807136236,-0.4794299997026013,-0.34191702391148615,-0.46020706903624453,undefined,1497536271398
903d185fccf839df,-0.4103416757781265,-0.4871126485304654,0.7792445118097026,0.6757402779468131,-0.9443927508770349,-1.8756093071547553,1.850236073936211,-1.1835625501956775,-0.46519722574185834,-0.7263777113944792,-0.08837825622136747,-0.09264665519124651,-0.9827874331550802,-0.513250803483293,-0.8876008282772636,0.93670505818901,-0.4253462934185247,-0.5187211700019,-0.9311656920675476,1.2632426277872464,-0.34900379729674946,-0.47175471239235034,-0.7128627302483871,-0.2993080875228286,undefined,1497536272902
903d185fccf839df,-0.44221998163708887,-0.5158763980524095,0.3473110653371475,0.26376408398576984,-1.019272630580457,-1.8751108502801581,1.8570893543327336,-1.1968106384881436,-0.33731344895981574,-0.6658880195131325,-0.08717959073848094,-0.02038996100085373,-0.9958430815508021,-0.44103574994210054,-0.8812850329480152,1.280208536724762,-0.36158799479211545,-0.5098170507319436,-0.9446555441412433,1.6177456365765244,-0.27450373791671906,-0.46319172178487705,-0.7648167459271574,-0.27134282607998916,undefined,1497536274392
903d185fccf839df,-0.6459641090018531,-0.3967122365217985,0.14506125687752328,0.15113015262449753,-1.0534931471641027,-1.8184474475894814,1.9213828459781261,-0.7368567873178609,-0.20390925653094882,-0.9334195643407639,-0.050258182763642086,-0.09991469708011394,-0.9653799019607844,-0.5308416333381724,-0.8760218750817973,1.0619827269241553,-0.42486239967704054,-0.5273213070617917,-0.9367351544245907,1.5617106904069205,-0.2989542616014558,-0.4574972641349029,-0.7719696920052234,-0.3300676125683139,undefined,1497536275898
903d185fccf839df,-0.5253808830462632,-0.5516843713937988,0.22417510578082533,0.1958527265502526,-1.011568650828553,-1.6855853141052324,1.8320088877980498,-1.1150050593623624,-0.1833440014310385,-0.948262242540411,-0.05788629011197175,-0.026795883805223346,-0.5345435049019608,-0.5502841455116285,-0.8560218442687875,1.033694263021935,-0.33267611790637724,-0.5480173683116984,-0.9026956700417404,1.5442950513669436,-0.2988315617663068,-0.37829175943562154,-0.9324602633829799,-0.3588143976234737,undefined,1497536277384
903d185fccf839df,-0.08740026674516865,-0.6303444395980494,0.39005740850406223,0.24186773575952658,-0.6654343715393449,-1.622141496331794,1.878829957898326,-0.6211876181158653,-0.30266852258782173,-0.6720265396978851,-0.017883997490513195,-0.04997446093472003,-0.5998217468805704,-0.5475066382222314,-0.8497060342150714,1.2701055381294446,-0.3074232019813133,-0.5700940115490366,-0.8435306372196216,1.7647238017403688,-0.24575831179206764,-0.395870175071712,-0.733007985717143,-0.4298849928472876,undefined,1497536278884
903d185fccf839df,-0.013941492928914305,-0.5951235397107661,0.3147723868807731,0.303530984123284,-0.7287325498457499,-1.608634238543698,1.8488843476232442,-0.8313957559621038,-0.35498011837062904,-0.4933176863864372,0.09253127280502342,-0.03489108200771265,-0.8043602384135473,-0.4567749751830503,-0.8612849947727715,1.0559209051551877,-0.49081688918351096,-0.4834086786589954,-0.8446151419573621,1.3532927439594653,-0.31403832821715966,-0.36400921147447984,-0.5279259086629507,-0.6048325538483682,undefined,1497536280381
903d185fccf839df,1.1378367655777166,-0.5223335630317447,-0.024649873125726543,0.011240982822745278,-0.041771412735650965,-1.7029218418941416,1.8612786244414303,-0.6262309039060463,-0.7115781526942914,-0.5795693668729646,0.12049660020012504,0.07766306509905015,-0.8391753008021391,-0.4428874193099029,-0.8254954682744067,0.7609121420947842,-0.4097888726056924,-0.5088291140762101,-0.8538229452178787,0.9816204693457031,-0.4071336858046453,-0.3240757960503872,-0.39603837887793714,-0.5237528222073444,undefined,1497536281929
903d185fccf839df,1.5217628632483968,-0.5534453871601707,-0.3404653519002866,-0.49699660469272594,0.5352767628405968,-1.837470345143839,1.8165193223516958,-0.9040675235000183,-0.9749562933396809,-0.9228702776838449,0.17631669686464058,0.011766703088677872,-0.9044535427807487,-0.5428774809911938,-0.9170745447219124,0.8558807302498129,-0.23331625539624617,-0.5770222527958232,-0.878570664982833,0.6712648040951849,-0.5055529487180821,-0.30283066222192717,-0.24855996538895656,-0.3708559199056803,undefined,1497536283385
903d185fccf839df,0.1149577783105604,-0.8522363280978764,-0.5720634035532238,-0.6691166731660388,1.4567723662504888,-2.0265300337035184,1.7902501898890526,-0.9600117013144077,-0.5174929382633553,-0.9969871572108852,0.1318607076345411,-0.010568359565579761,-0.8957497771836007,-0.7400800841136039,-1.0254957543178038,0.5245011213697685,-0.4279899568147147,-0.731476415329846,-0.911672577472841,0.35185485152216966,-0.65250590612206,-0.3437704942709542,-0.08941211951587935,-0.32346498582689626,undefined,1497536284891
903d185fccf839df,-0.030573618002093596,-0.9138729759706029,-0.6071541252557081,-0.682141069799101,1.6986508214160554,-2.048131397601068,1.7331229142533777,-1.1914145533681944,-0.5959243635857367,-0.8448533001975941,0.09151484379324713,0.007949877531133685,-0.8304715352049912,-0.7511901003204179,-1.016022031874996,0.292131178544577,-0.5238099977340217,-0.7682708177632933,-0.9113927045422919,0.18188680682237618,-0.7012884386342854,-0.34951120523108986,-0.25888054724356296,-0.47489091139169437,undefined,1497536286378
903d185fccf839df,1.6007656902575143,-0.783555485633697,-0.4093710278191495,-0.4941525242279347,0.6324148935539466,-2.0105933786723105,1.8230202080365683,-0.953378965736136,-0.7162371696227141,-1.2210226885385194,0.13461749685306038,0.03352645009390438,-0.7260263480392157,-0.8835843662251686,-1.0212851897412139,-0.2958656461041687,-0.9521706610700467,-0.8853922778007802,-0.9412970745656487,-0.11019090807211311,-0.8190379002256645,-0.3954585917302016,-0.32793224506231006,-0.4073032471485085,undefined,1497536287890
903d185fccf839df,1.700558578718229,-0.5305518022334366,-0.19244633535202046,-0.3950588573691184,0.223733294934947,-1.9016851402698034,1.8440902122426917,-0.8375448981547546,-0.6588100463152528,-1.3449122472460997,0.06486792602868682,-0.0362671389011686,-0.7173225824420678,-0.7928526384321147,-1.0476010011590045,-0.18473226584957664,-0.8650122491497747,-0.8437468403166674,-0.9348740013672898,0.11077678624953051,-0.7514241328862584,-0.44182074390412907,-0.2681275168421784,-0.44074352249135823,undefined,1497536289377
903d185fccf839df,-0.02502956480923059,-0.5381829387530299,0.11762717318726727,0.05916611537108285,-0.6902846121954022,-1.809812958138231,1.8646579318436722,-0.9736636094708735,-0.22430386892271661,-0.9297310807048729,0.055610689498632807,-0.08767995312629963,-0.42574643493761144,-0.6382383789660598,-0.9812851502018954,0.23555425074013656,-0.6350868872182533,-0.6854992435620437,-0.8742326405571013,0.3844071640782477,-0.6094242983980424,-0.4059657190183278,-0.21885876923261532,-0.4209603421975822,undefined,1497536290874
903d185fccf839df,-0.19689538631503256,-0.5563805206067622,0.14187132988836076,0.08877540698288068,-0.7772296053865675,-1.8094309624444151,1.8629643384130843,-1.0348969003131767,-0.22689605490941242,-0.7701092457504087,0.07455666220908624,-0.024728382198314747,-0.5084322081105169,-0.5632458310862448,-0.9128640243187252,0.9185197342057148,-0.279445254452545,-0.6019677161638005,-0.8382060612919197,0.6899277192221946,-0.5024605830051914,-0.3994741030998079,-0.058784815664487344,-0.3889975861212692,undefined,1497536293405
903d185fccf839df,-0.09433029873083768,-0.5135283380599239,0.3766593085304606,0.13235939473773797,-0.7175314201673981,-1.7996458285830632,1.8374736288232019,-1.1677674952944055,-0.2508420428550603,-0.7946390759054415,0.03702962215663694,-0.04092368209005612,-0.5127840909090909,-0.4993632864624692,-0.8791797359352526,1.019550031070825,-0.2528339636198187,-0.559682651434711,-0.8281656372740449,0.8424339225048851,-0.4495353219074549,-0.4068951280656345,-0.13398621636876248,-0.439238174007504,undefined,1497536293883
903d185fccf839df,-0.2634240591347984,-0.28224422420415096,0.8877066039063176,0.9652285031314357,-0.8214581108061061,-1.7642483808638274,1.8429909606800183,-1.0945053488716885,-0.31086816295154956,-0.7309819699933727,0.01147615676535753,-0.08744056015320938,-0.691211285650624,-0.301234838943077,-0.9139166249705868,1.854061101157676,0.04132171742858097,-0.40759067560784895,-0.8729382296518249,1.2383587518736534,-0.31361927461720013,-0.36409600243870094,-0.15311042062361832,-0.3750243441180803,undefined,1497536295415
903d185fccf839df,-0.28144226651701293,-0.3409458117002667,0.9700101256618328,1.034249138341206,-0.9279356449079056,-1.7272996605222526,1.8745722992817915,-0.8547444642691651,-0.3285337221002463,-0.7131876667235919,-0.031934649872042496,-0.050042396116170854,-0.691211285650624,-0.24661063468292574,-0.9002323894868255,0.89023118550933,-0.2120943347835468,-0.32723828647271297,-0.8891008634008896,0.9746911730951151,-0.340392518429148,-0.4021596254241872,-0.2402449665745285,-0.3865492597788897,undefined,1497536296878
903d185fccf839df,-0.3646031334207775,-0.32803139405761916,0.9700101256618328,0.9763461765208756,-0.9062122544230924,-1.6997051643368712,1.875950322581873,-0.7961933055222248,-0.3548340548524513,-0.6032701735911583,-0.14469046937766247,-0.040165081324988895,-0.6868594028520499,-0.12625224880813293,-0.7918112240643369,1.2842495439627823,-0.2505828346479103,-0.14305728635023254,-0.8356172418609041,1.1783356148626811,-0.19149158828054533,-0.38914075656960523,-0.4924731941923316,-0.43447466583966604,undefined,1497536298386
903d185fccf839df,-0.15531498736855998,-0.3450548874591241,1.1282370610575887,0.9105290010174214,-0.7990764279568116,-1.7498536843449048,1.907255534438768,-0.6267342027097135,-0.44841927692216427,-0.5070711561410605,-0.1979797194949565,0.047832476326597685,-0.6259330436720143,-0.13736225206417232,-0.8454954990874165,1.8783083882335465,-0.15107400666175821,-0.07668803667760475,-0.8534171292694723,1.4735700073849862,-0.09962286146979088,-0.3648015029367313,-0.5345770601318405,-0.4736549556399114,undefined,1497536299883
903d185fccf839df,-0.1289806656916412,-0.5446401329603575,0.658022457619488,0.6903364078825185,-0.83027294743258,-1.7800522696768548,1.8910611973769835,-0.8002680478374445,-0.4098497520083129,-0.5353624074759104,-0.20558648644789768,0.036905188908722214,-0.5345435049019608,-0.1818022132852317,-0.9370745387237533,1.6338148160027806,-0.12005955455771505,-0.1682560696633617,-0.9244207672388194,1.1383612444126197,-0.22682988077310487,-0.3643254804319099,-0.4125828883093678,-0.4254259858624078,undefined,1497536303000
903d185fccf839df,-0.06522398496289714,-0.8076231443986625,-0.16501225166176448,-0.35781222193048334,-1.0523617184173313,-1.8118859816401196,1.9079471827011636,-0.8039583466399005,-0.3540439965785585,-0.5968286836454358,-0.10545415933395304,-0.05098816423106768,-0.7608414104278075,-0.10866137362554266,-0.9770746224364744,0.6962527687772995,0.15280876913162877,-0.401580714112107,-1.0178141992917202,0.33970547545336155,-0.5205751298948835,-0.29978725660534966,-0.13729336945347634,-0.29214449677274734,undefined,1497536304375
903d185fccf839df,-1.0007838497728305,-0.9984031941560674,-0.776864746985059,-0.8368032576899573,-1.5353163372316023,-1.825970890959918,1.9076342334701855,-0.9691406080460765,-0.30593483327280635,-0.7502703217452323,0.0063597946149980536,-0.17765183548639132,-0.7216744652406417,-0.3910407352899233,-1.0665484092334514,0.14866803037016807,-0.018038443993631588,-0.5940262053238708,-1.0991871100015729,0.053202000395191545,-0.6969600804277057,-0.23784673950683619,0.043186544849478495,-0.1672401531651379,undefined,1497536305880
903d185fccf839df,-1.2516525241668073,-1.0283409590602581,-0.8585306391344708,-0.8812611062062529,-1.870835773306103,-1.8306386869631857,1.9193158225507438,-0.9967000272694545,-0.2903097387819832,-0.7162470554875424,0.08258314941489768,-0.1445496093589452,-0.6302849264705882,-0.6752717274697826,-1.1981275141769248,-0.6252247584313834,-0.6903764244327748,-0.7991249191270069,-1.1813016818263162,-0.30992414196347373,-0.8983144489756569,-0.35966124210762757,-0.03525295654035383,-0.2706857065254743,undefined,1497536307372
903d185fccf839df,-1.1061209553271045,-1.0371462424880635,-0.8049377309661655,-0.848701795290064,-1.8238301377982906,-1.8410923119169513,1.9107899777236466,-1.0637122868462447,-0.2944258561760175,-0.7109754104876161,0.08564773998426825,-0.043226752613145396,-0.7477857620320856,-1.0326435981616546,-1.2939171036653838,-0.9404395964104055,-1.2438296673193279,-1.023805095278939,-1.2591342063549116,-0.9335611819726612,-1.1630417264125528,-0.4443307391479418,-0.46835715517612736,-0.48557296465942706,undefined,1497536308882
903d185fccf839df,-1.0797866940346528,-1.0342111674974568,-0.8240778011750394,-0.8851461275292307,-1.8224004262520326,-1.8520909785496045,1.9266030000920935,-0.9697804091073272,-0.2903452292263758,-0.7136500690720476,0.08661132580677168,0.02635681514339115,-0.6999150512477719,-1.088193637105707,-1.3044434304411703,-0.9303365624841863,-1.2710301382716216,-1.1107120813361056,-1.287009500630677,-0.9731505860497272,-1.2154063538137772,-0.469008964680777,-0.6568115979588683,-0.5255699307872409,undefined,1497536310426
903d185fccf839df,-0.9799936502995943,-1.0301020040546223,-0.7768652552589579,-0.8205491709196618,-1.6296978895276186,-1.8729423278937758,1.885688477998862,-1.1922102414695797,-0.34246660726133,-0.9967161525520141,0.12073158371229045,0.017833746719181334,-0.7390819964349377,-0.9845002366888115,-1.2760223514595521,-0.7383788048271345,-1.1655957597185247,-0.9720966100423002,-1.1954142486855803,-0.12344897140531538,-0.9379286936427125,-0.34562540084171606,-0.33566378557968723,-0.20276574182106816,undefined,1497536311884
903d185fccf839df,-0.8857446252519892,-0.9126989459743602,-0.4667912384457713,-0.5334904510578927,-1.5174500771866652,-1.8366131832823467,1.8777569855148968,-1.13671070602631,-0.370505824527205,-0.9445284610874795,0.10196845090114051,0.004882334130248426,-0.8783422459893049,-0.7289700938083391,-1.0286536298957267,-0.029145445872510955,-0.33039837431626745,-0.7985802867846412,-1.0855713136927247,0.13920231055264756,-0.7720123405934519,-0.24995865685291252,-0.3668220117837615,-0.2073824749007261,undefined,1497536313377
903d185fccf839df,-0.6833864853063832,-0.6121470038842788,0.32498055986521224,0.30949576450401806,-1.3592149132866929,-1.8042786846204095,1.9136380574935794,-0.8236296380596877,-0.3850676513193186,-1.0167125611069632,0.08100145235458359,-0.028267691426750747,-0.7782489416221035,-0.3956698989963482,-0.897074499184435,0.5083362162113189,0.01182698699386225,-0.6891850166604792,-1.0329063183891363,0.4411042300743557,-0.646910662219897,-0.26914187244261045,-0.29443682956642514,-0.2758535306347488,undefined,1497536316527
903d185fccf839df,-0.6334899893179113,-0.5129413522897949,0.38878164101795676,0.4204558834111877,-1.3007715844945784,-1.7857262944318322,1.8890099255348165,-0.949647389763852,-0.3678926906527661,-1.0112416636143267,0.07305464518902308,-0.017239036923451197,-0.7782489416221035,-0.38826320533667075,-0.891811328434308,0.4921713675823124,0.0023707478587081704,-0.6736629714248216,-1.022187203942555,0.4883774578906262,-0.6277097755024277,-0.27752235435131833,-0.2993363449055063,-0.2994383875565142,undefined,1497536318495
903d185fccf839df,-0.34242688614391575,-0.4119746264729546,0.6644025657347624,0.6716429091949461,-1.0472085778774114,-1.7696918114766975,1.8839238730658638,-0.8885248124204361,-0.4331116607933583,-1.0630945825246325,0.05592699539236286,-0.04332170794516071,-0.0950033422459893,-0.34011982443766575,-0.8791797359352526,1.2418169329036168,0.022433095878028098,-0.6066350951834216,-0.9736573238854338,0.8099893885394048,-0.5143379469424084,-0.26833278623650025,-0.2921174347212013,-0.3486529178285475,undefined,1497536319378
903d185fccf839df,0.1440642646055496,-0.36853554583996423,0.7575521442177694,0.8035566979083202,-0.7700193284297329,-1.7285690939203375,1.9068242257202939,-0.58228254336736,-0.4341655396027783,-0.7201990311506196,-0.1327226390408162,-0.08314493976091783,-0.3125974821746881,-0.24012982103486033,-0.8560218369065536,1.3064762991549213,-0.30062086735486554,-0.3719678664868226,-0.9016741330845798,1.1955818626291923,-0.3049907815164876,-0.3615625878848359,-0.5637310386856762,-0.5862912130777328,undefined,1497536320889
903d185fccf839df,0.04149914251594499,-0.31511706409894863,0.8666521200574373,0.7342149305207758,-0.5534231173589236,-1.7612459901406974,1.8689760659884134,-0.7424234426390841,-0.49240087412566563,-1.0191514701596425,-0.11319054171851631,-0.0491235127623289,-0.6650999888591801,-0.11329056970890393,-0.8602323646719747,1.0478385515024882,-0.4466532748833193,-0.2400336536129755,-0.9006246116671753,0.9961412002379086,-0.2908362078368989,-0.31420343321256466,-0.5925817980790621,-0.6635428623740321,undefined,1497536322378
903d185fccf839df,-0.07354003024678192,-0.2746129707725882,0.6178279035617337,0.4657512961544273,-0.5948333333017111,-1.7088427668814588,1.8562267735590487,-0.7625289208550385,-0.5477899872597592,-0.9376222429359439,-0.1314665073390936,-0.0470787261603537,-0.8739903631907309,-0.105883853385371,-0.9002324115735268,0.8619426650776667,-0.5095757731087317,-0.33191833265312226,-0.9505328650268526,1.1583638244953915,-0.3105525867848895,-0.3712168882093858,-0.5693826353032921,-0.6383387533776611,undefined,1497536323874
903d185fccf839df,-0.39786748708336533,-0.5076582465346947,0.1310252731608689,0.11816341693043794,-0.840568925138777,-1.73684720962674,1.8875135773154594,-0.7189407700036363,-0.5070455797618016,-0.8459290682570306,-0.08157581028031483,0.12372503812026345,-0.6999150512477719,-0.29105066065785784,-0.9202324166187184,1.0256119093692355,-0.46161009658356666,-0.4350629870797917,-0.9669473829398113,0.952825381126805,-0.4034267113388337,-0.3431676617929074,-0.4871371958275572,-0.575924974136703,undefined,1497536325410
903d185fccf839df,-0.6889306247627707,-0.7876646344625353,-0.30537463019780237,-0.4079235545525846,-1.059139987786385,-1.7429288540078505,1.8856621925344874,-0.9237436200159962,-0.34969795443382207,-0.642263195317277,-0.04265934236632143,0.007212274078091871,-0.691211285650624,-0.3401199086177003,-0.9686535448189308,0.8013243908585473,-0.3621210965035425,-0.531520053021892,-1.039007538201529,0.7499200667600069,-0.5085752434669437,-0.3151248577002389,-0.4895689042074306,-0.5201428056338688,undefined,1497536326872
903d185fccf839df,-0.5780493193676424,-0.8739558976423639,-0.4036285493099784,-0.44681319975932815,-1.034989176711512,-1.8304593345435813,1.8723869195094793,-1.1614507152923792,-0.23273624403011434,-0.9642023738355235,0.029698157040314217,-0.012798109036519506,-0.7608414104278075,-0.5243608067393324,-0.8023375397967726,1.3327441463792449,-0.15142460668507735,-0.5942858569835604,-0.9723699120849322,1.4889838622350393,-0.35186979439492994,-0.3195394846957236,-0.5966064366246643,-0.1564088863456421,undefined,1497536328377
903d185fccf839df,-0.17610508332556707,-0.9490938758578862,-0.6524530199426314,-0.7194002248782462,-0.7979655721645236,-1.7801384516932701,1.842049485802424,-1.253256123615244,-0.24960813227875686,-0.9179748918012457,0.06316777647697107,-0.06134910949691127,-0.7129706996434938,-0.7474867615848132,-0.9191798196479737,1.0882507154720866,-0.2163123434376227,-0.7926209854554155,-1.0082845428042813,1.1881136351388057,-0.5251886988546131,-0.38486874329402027,-0.3804576471106249,-0.05577999413838398,undefined,1497536329878
903d185fccf839df,0.15931041088592288,-0.8029269659577066,-0.6288462387106918,-0.6990022870804173,-0.8776282986622269,-1.727709605167663,1.8443531946840999,-1.1355947938261388,-0.3147786276036205,-0.8891146776027102,0.009784664343217921,-0.05554729800397873,-0.9566761363636364,-0.7641517858950341,-1.0476010122023551,1.2458581097299664,-0.21774584195781901,-0.8644428993685178,-1.0435414726528138,0.9759538557184427,-0.6075969729334114,-0.3782729076356924,-0.31017180756246365,0.021162455943030546,undefined,1497536331385
903d185fccf839df,-0.11789254205321033,-0.9279613359255162,-0.6396928037120825,-0.713379749933839,-1.052680572480861,-1.6635646868684977,1.851787659027284,-1.0624516576826233,-0.33626791572092607,-0.6247402690079025,0.00921823891183611,0.043212437796167465,-0.9566761363636364,-0.8687710080450562,-1.067601043015365,0.2395954134341255,-0.3976509171350173,-0.8919278745906624,-1.0773920440228506,0.715381358403106,-0.6904191921505194,-0.38911791677778423,-0.2644692312658876,0.06347876051447697,undefined,1497536332887
903d185fccf839df,-0.1303666617371521,-0.9279613359255162,-0.6173622982401472,-0.6948183670952165,-1.0637274107280792,-1.6630988390140535,1.8544595435364355,-1.0460148073832782,-0.33338889434214886,-0.6240299847145713,0.008265219270073967,0.033584894093981826,-0.9566761363636364,-0.8696968427289574,-1.0654957754515375,0.2395954134341255,-0.3976509171350173,-0.8918138816155426,-1.077944792075991,0.7154429521848912,-0.6905284155703845,-0.38889930131687356,-0.26474085811836995,0.06496095292038778,undefined,1497536334630
903d185fccf839df,-0.8996047754868515,-0.9860758207395336,-0.6977519146295547,-0.7609445023643451,-1.562542576634257,-1.6559131355925085,1.8704461297909178,-1.0218671255059102,-0.2651685150735415,-0.5830393802013767,0.008811309556525043,-0.17409387198881554,-0.8565828319964349,-0.8724743467806609,-1.0654957754515375,0.4780271356312023,-0.30657044264291516,-0.9099324334045844,-1.0782316613464031,0.6062833716622767,-0.7226410217436906,-0.38209527990170455,-0.20477616485363875,0.09651296270425443,undefined,1497536335874
903d185fccf839df,-1.208686034284947,-1.0653230208538749,-0.8642726093697431,-0.9231293442676687,-1.7788302127668636,-1.7056959647647272,1.8896489756328962,-1.0309070273738818,-0.2871469768249124,-0.6087147127926439,0.07798022476320547,-0.5262177589035764,1.602230949197861,-1.0150527553560007,-1.1570748242906665,-0.44539065844462755,-0.9902273923021495,-1.0241977370394875,-1.1958690422183675,-0.5817682958259451,-1.0714642205612765,-0.43403184520853033,-0.4638404389301911,-0.4012476345996565,undefined,1497536337380
903d185fccf839df,-1.2738287283119067,-1.088216605780609,-0.9178660258119474,-0.9750142416226358,-1.9240745409091464,-1.7236008268484975,1.8944062948124798,-1.0440331048001152,-0.2876585826687691,-0.6726592722331471,0.09214722453157513,-0.8215064448297712,4.126322972370766,-1.0909711411574106,-1.2654960117998566,-0.8798213575221882,-1.1391127048436154,-1.0850256616200404,-1.245994195332766,-0.8985297184208116,-1.1745683338300383,-0.43817423061064653,-0.5687857073131253,-0.45018472673018034,undefined,1497536338916
903d185fccf839df,-1.266898679073533,-1.0811724258031523,-0.9350919365177642,-0.979831355049736,-1.9081317101494288,-1.7148452160971683,1.8883551112812602,-1.0711112727937324,-0.2840633091483122,-0.6701580969693746,0.09299543612644132,-1.0460770027068318,4.191601214349376,-1.1131911492883362,-1.3181276585626978,-1.1020882098917173,-1.3062185517708438,-1.1437890461686604,-1.286596688678846,-1.0962611571639285,-1.258603517114194,-0.46702846445444013,-0.6422484767832829,-0.5068565058290871,undefined,1497536340364
903d185fccf839df,-1.2779867768329065,-1.0529956474373412,-0.9255221555502767,-0.9719560628196213,-1.933876809956747,-1.7315202396782015,1.889998735827235,-1.0826524726557383,-0.2838569179766645,-0.6720768315655247,0.09251510376577372,-1.108866259764721,3.7607648172905526,-1.1576311736444214,-1.338127682013474,-1.1748300993840504,-1.3642562014474577,-1.1728572575593028,-1.31079166070263,-1.1883900564440708,-1.2969820334586268,-0.47453273262131923,-0.656796529476515,-0.5228095963773404,undefined,1497536341884
903d185fccf839df,-1.272442715013691,-1.060626842412919,-0.8145080202075519,-0.857720605909489,-1.957297342475434,-1.7328362604120882,1.8406504198845464,-1.4111170147613659,-0.28215864567923565,-0.6627544065325479,0.09406939325256967,-1.0423435097416676,4.444010416666667,-1.1668895172457394,-1.3454961111246362,-1.1950361813688497,-1.3778851077503642,-1.195256879252115,-1.320608186356491,-1.261163109407824,-1.3248124192674797,-0.4764145626547833,-0.6718665149732184,-0.5296476124101934,undefined,1497536343380
903d185fccf839df,-1.3542175772455924,-1.0782372923565609,-0.8527886688991986,-0.8967322307353158,-2.0077486871873145,-1.7732811691308972,1.8196225009140157,-1.601673257599723,-0.28728504884978273,-0.670069484128537,0.08071799460755816,-0.9068461777343149,3.364743482620321,-1.1530020083191497,-1.3381276838540324,-1.1667476750695471,-1.3578874557770202,-1.177879281607568,-1.3096231933168099,-1.2157684922321714,-1.303445596910953,-0.47356281179960047,-0.6699690707776328,-0.5245996968960818,undefined,1497536344875
903d185fccf839df,-1.2461084494080632,-0.8170153843686047,-0.7979194849708888,-0.8542752149659653,-1.7917490499456226,-1.8349640827967864,1.8457285866094348,-1.4440667223884531,-0.39591253619287214,-0.6967349596134647,0.03459819089830027,-0.5630634976740271,1.3324142156862746,-1.091896972603618,-1.3181276622438147,-1.0313669512096415,-1.2493868138124038,-1.111522698320595,-1.2536347123635518,-0.2367969176328944,-1.0228752097905742,-0.4430221361033545,-0.4322481966046999,-0.23543436436942478,undefined,1497536346383
903d185fccf839df,-0.7166508475953235,-0.7418774061530824,-0.5707871277932196,-0.6272681878714286,-1.5086558080352477,-1.8283793241181943,1.8642529431577923,-1.2261266866514662,-0.3310982031302397,-0.8283949690270556,-0.03190278657448559,-0.24156550691047063,-0.7390819964349377,-0.9845002334511178,-1.2223380690742387,-0.11603160971303639,-0.6940915129580867,-1.0404607374328498,-1.1970654964256169,0.02739420970436031,-0.9151307162657105,-0.4269025278665228,-0.45784978548612343,-0.20866788196019168,undefined,1497536347878
903d185fccf839df,-0.3729192822208915,-0.5781000755372536,-0.2817683572397616,-0.33005936604231206,-1.1549409752720536,-1.8459184955111179,1.9257430590733293,-0.7586964295710055,-0.29441514002581287,-0.7398566626502995,-0.09727647654010832,0.08218806967751802,-0.9827874331550802,-0.8030367843403975,-1.0612852403238828,0.4194294992885205,-0.2649822979526354,-0.9086088494937358,-1.095373847774048,0.34236941330057324,-0.7596663920325112,-0.30943795655588396,-0.4856334575027769,-0.23059606085303844,undefined,1497536349383
903d185fccf839df,-0.5253808140354437,-0.43252020986318784,0.22608875700998352,0.06422415528529643,-1.1176038953865077,-1.8007079625253446,1.9133277396373471,-0.7760270567453941,-0.3055945000643762,-0.6007022475059717,-0.11517203694135851,0.044024170044812815,-0.8783422459893049,-0.6530517241953975,-0.9728640836277026,0.6315933671950932,-0.33623238765864694,-0.8080797017747459,-1.0380279863059325,0.621004282695304,-0.6354259371872355,-0.33061474872887764,-0.6641741856430894,-0.31109456350611625,undefined,1497536350929
903d185fccf839df,-0.6917026513592022,-0.32450930406889084,0.45513501955376046,0.3959053498010311,-0.981009837517333,-1.7901821304848933,1.9112265240510897,-0.7461085263791172,-0.3155202181124244,-0.5723156904104847,-0.1031961693509562,0.05372021862801049,-0.8739903631907309,-0.6623100418951664,-0.9928641033973618,0.7770771037826769,-0.46354076050062776,-0.7356371591542559,-0.9904916527081887,1.00230058801505,-0.5102205247001569,-0.36160414592729345,-0.8079118132912251,-0.4233184114630745,undefined,1497536352373
903d185fccf839df,-0.8261459412861302,-0.3820368907967562,0.5674246682456414,0.5405709895641981,-1.0663399824850768,-1.7964244907805542,1.9100220761597835,-0.7944825052322944,-0.2799049272623989,-0.5140885917683172,-0.06334324757572105,0.08737719970811594,-0.8348234180035651,-0.6160183530278192,-1.0002325214651733,0.4052851896094262,-0.6036694386366851,-0.6722570587257204,-0.9777084791753288,0.9234451473229891,-0.5017924162074804,-0.3873476487084806,-0.8503547991473089,-0.5143613519623232,undefined,1497536353886
903d185fccf839df,-0.5544871968142038,-0.4260631033398372,0.5144698979573381,0.47791855995201743,-1.0311011802261882,-1.708104398106026,1.8835241617947822,-0.840153279851577,-0.1428411352778516,-0.6854585461693242,-0.07587429057844171,-0.024300103325819063,-0.9218610739750446,-0.6437933805940795,-1.0118115041095748,0.08804978441577029,-0.8113081516530991,-0.6718580828311115,-0.9622945046916678,0.21608675240847824,-0.6671180933739427,-0.3882704891309294,-0.6773986346875032,-0.40301489422989867,undefined,1497536355373
903d185fccf839df,-0.31609256446699696,-0.5640117448103327,0.17696205159084497,0.032502748021882376,-0.7325691135747688,-1.657592516566178,1.8601846356282494,-0.8727881150455572,-0.12348685058196203,-0.7543130095651056,-0.008526246435712445,-0.07144892005566997,-0.7956564728163993,-0.6900850629860393,-1.0454957409574108,0.1628122905859997,-0.7996593213329346,-0.6965185650790158,-0.994605776714574,0.1646559478488356,-0.7080565322380348,-0.439122362932507,-0.617802514048448,-0.435636120125166,undefined,1497536356874
903d185fccf839df,1.629871969520045,-0.6309315130521554,-0.29133864648114804,-0.27166539192879174,0.44167691291674244,-1.7248772502135115,1.7643965789439269,-1.0911479565205986,-0.5362072943546231,-1.095982900119281,0.03201976653760776,-0.0455394623978594,-0.7564895276292335,-0.6280542006808406,-0.977074600349773,0.9164990044689323,-0.46851203669433156,-0.5997068562841814,-0.9449983873664843,0.7387253956685617,-0.5509602066755747,-0.40981704945772846,-0.13145575572920756,-0.24318447440872482,undefined,1497536358383
903d185fccf839df,1.523148945557432,-0.7500956161267818,-0.41575088179747455,-0.47333335585142655,0.7894157580572,-1.813388341224216,1.7745397335220139,-1.057162373564348,-0.3957658964018723,-1.1919627325553155,0.07956425562910055,-0.07624043121241328,-0.7608414104278075,-0.6900850824122012,-0.9412851033003433,0.9124578841720256,-0.49281535215088806,-0.6605094487356782,-0.914954081810705,0.7047256265884578,-0.5831075479430262,-0.40673170528021424,-0.044026380740359985,-0.20959662500016418,undefined,1497536359884
903d185fccf839df,1.7767895861633731,-0.6913940578586584,-0.4100084032883034,-0.44323875925865497,0.7157907411164833,-1.8462445898043807,1.8222049626777073,-0.7912684604503455,-0.28792456713988107,-1.3353645794736086,0.052591058108448635,0.047726615008098584,-0.7695451760249554,-0.7113792510026852,-0.9170745299974449,1.0316737311382032,-0.4615761159682561,-0.6776273953295687,-0.8809495813293116,0.5844483701498754,-0.6030567722845577,-0.4014763369747061,-0.022458717006550263,-0.22818601087587312,undefined,1497536361381
903d185fccf839df,-0.11512049820407395,-0.7272019727440631,-0.2760258787305905,-0.30486515279708976,-0.5357008657207778,-1.792998181217093,1.8754085663080133,-0.8740629620993794,-0.40267048285118695,-0.9228593712345571,0.034085745405053755,-0.05639218090473261,-0.7738970588235294,-0.699343409825051,-0.9160219219833494,0.9104372109646861,-0.4407065680216735,-0.6948340029024028,-0.9143803442180255,0.6274254318077928,-0.6157930386940081,-0.3883569797980882,-0.01723460146484732,-0.19015445307297574,undefined,1497536362891
903d185fccf839df,-0.6029976967571647,-0.5047231130881031,-0.22051881105922805,-0.1454628849577679,-1.1072050541282117,-1.6644451404661864,1.8743198329116726,-0.8934962979102901,-0.20972204232036357,-0.5476909863120114,-0.029635431478417122,-0.028300594812135604,-0.9871393159536542,-0.6752717274697826,-0.9044429687878831,0.7326237064572856,-0.44461194272513943,-0.6810471848655305,-0.9201177294916902,0.6118114067386404,-0.6143658844405754,-0.376902900699945,-0.027307856095194597,-0.18177154273868712,undefined,1497536364434
903d185fccf839df,-0.6154718164411066,-0.5616636263618624,-0.03677169733932387,-0.0409719673457042,-1.0863559473975397,-1.5407695245037207,1.8425018067605625,-0.9028183267479238,-0.20719392189816527,-0.534927011956653,-0.0036023347055954024,-0.029415618451426317,-0.8609347147950089,-0.8058143175313437,-0.911811372131227,0.11633833311215509,-0.8446550031158567,-0.7909617547766787,-0.9316344804577346,0.2557531504359512,-0.7293943895075851,-0.3834615631575037,-0.3897589815123874,-0.2229151478025253,undefined,1497536365890
903d185fccf839df,-0.6695263695769307,-0.6849368928793231,-0.0922787650106863,-0.034857853099545755,-1.1021547782406773,-1.4489742062003663,1.7937267974006448,-1.0566985741320924,-0.27650301132311206,-0.5576156151962968,0.06213055681025554,-0.040416081146611674,-0.8565828319964349,-0.8761776887539592,-1.0749694721265273,-0.23928864763792448,-0.9912867176150767,-0.8924155121784447,-1.0370274421548218,-0.058328942045457584,-0.8575611873788064,-0.44981530243580303,-0.6362259134494113,-0.4794496345802323,undefined,1497536367385
903d185fccf839df,-0.6625963375912616,-0.6174301680953636,-0.01826951087350267,0.0015641861068775252,-1.2051866020561264,-1.4520627772990504,1.7914862058971404,-1.0820501437863537,-0.2291361298797367,-0.6892846001553736,0.09681775717957798,0.01558325679752836,-0.7738970588235294,-0.8659934910425783,-1.0665484092334514,-0.15038190951658498,-0.9973764765529741,-0.8896986791913536,-1.0256156435170882,0.022959452084755437,-0.8326422512325067,-0.4590914115121332,-0.6294639441885442,-0.4932182855788283,undefined,1497536368885
903d185fccf839df,-0.5669613164981455,-0.6021676612322382,-0.06165424605736894,-0.03426094533909166,-0.8920385494483175,-1.4876186135369833,1.7760203165383726,-1.1001388607023805,-0.5669630949980301,-0.7780739238898056,0.1113720099598145,0.08449039338414706,-0.6563962232620321,-0.8298859934112248,-1.071811574461903,-0.04328967782362105,-0.9601762772822877,-0.8554881178336488,-1.0346555231881063,0.18228716465387945,-0.7882172779156996,-0.4632019522772153,-0.49324646162587366,-0.5149767117740023,undefined,1497536370431
903d185fccf839df,-0.43528991514601006,-0.54992326794345,-0.10950569226430087,-0.06483216290477066,-0.7623359125019343,-1.5144025350390207,1.7791261170477428,-1.0619830540274575,-0.7164735699241229,-0.8332639790074197,0.11324678710020042,0.04536009178746978,-0.6128773952762924,-0.8095176303653993,-1.0697063068980754,-0.059454554717349076,-0.9369506628403531,-0.8385728252768715,-1.038181915796547,0.2796207375794295,-0.7615465500530123,-0.4671710435044766,-0.436674223923358,-0.5314653943694352,undefined,1497536372184
903d185fccf839df,-0.07908408343964493,-0.4800684247110202,-0.10121117050901995,-0.1283929459357628,-0.4595249905691284,-1.5466857901110798,1.76115664641141,-1.08553062614993,-0.9215392705502342,-1.0914590429723443,0.14237595140837694,-0.06512168779967244,-0.5780623328877006,-0.8150726514195807,-1.0707589369988724,-0.10390792377801883,-0.9415481561609249,-0.8465523342882387,-1.0302755191021757,0.31123374535369097,-0.7559079437782039,-0.46794071213304267,-0.4272165598445458,-0.5072785792461878,undefined,1497536376482
903d185fccf839df,2.3104051200413545,-0.22471666670427798,-0.01954553249655756,-0.10673600872843378,0.5555190218301829,-1.6749127392646836,1.6657104725575358,-1.2564228726403779,-1.8270592592053725,-1.6267825268336975,0.2278046503538261,-0.1499029706596222,-0.7651932932263815,-0.7984076271093599,-1.0612852440049996,-0.031166034285685804,-0.9457390456756896,-0.8350833737314153,-1.0200181944915423,0.3635884590364021,-0.7371194693582502,-0.4677428904266706,-0.4306966289673156,-0.5247213801296841,undefined,1497536377999
903d185fccf839df,3.0255888790613357,-0.39201614576481975,0.060205691875898366,-0.09264229424713837,1.46308778201153,-1.741512675877964,1.646313024401813,-1.0868911187667736,-1.5330128858585803,-1.6923603174624833,0.20955739997963885,-0.1587169465331166,-0.36482007575757575,-0.7900751246673303,-1.0276009997949298,0.1385649187159646,-0.9354642914494297,-0.8289340857916242,-0.9613989123060982,0.37529127657936895,-0.7065583575075043,-0.4791821369036902,-0.447224547162642,-0.5374499993883818,undefined,1497536379431
903d185fccf839df,2.1981381118966983,-0.34681593245348824,0.049997518891459244,0.014180678417238867,1.7644484212560667,-1.735433361208578,1.6250221208948301,-1.0887265946112323,-1.4212568015077143,-1.125878457420371,0.17547706564641877,-0.21742497810057582,-0.3909313725490196,-0.693788401721644,-0.9760219481622748,0.2274716568373041,-0.7874845566014991,-0.7305264732024239,-0.8757719419350961,0.5004498395782334,-0.6057037341566501,-0.32635615917043687,-0.4518246036051847,-0.5373075511259192,undefined,1497536380930
903d185fccf839df,2.120521229174977,-0.4113876407028255,-0.0169937433873972,-0.0246731561201068,1.7248896285576247,-1.6907678691587287,1.6295795760586984,-0.9976756853640878,-1.537903482001173,-1.1509863125534643,0.1786227639741609,-0.08817862315563842,-0.8348234180035651,-0.6641617371645178,-0.9686535374566971,0.2880899875858665,-0.7472542431314194,-0.7053276905094013,-0.8749393215631127,0.396125372285446,-0.616619646661041,-0.3317684480223383,-0.44283014079491045,-0.5062187036072089,undefined,1497536382380
903d185fccf839df,1.7629292461487571,-0.4348682698556734,-0.20839698684563074,-0.12724261245561658,1.4876500276396794,-1.6484968362738317,1.6836878310329768,-0.8245877389066725,-1.340708637583678,-0.9302825252138658,0.11056632243765185,-0.07229377387624894,-0.8174158868092692,-0.37900491353845095,-0.8865481613652979,1.4337745563032414,-0.16223685960502585,-0.480723509366008,-0.8433627139787956,1.1389155775576776,-0.36459283308194923,-0.40374747587530924,0.3057213302985106,-0.6152074828701531,undefined,1497536383913
903d185fccf839df,2.2799127584697887,-0.18773466336664588,-0.3423795114033436,-0.27411743990295656,1.754327308385604,-1.7157862283298349,1.6681141171133953,-0.8340061201555576,-1.6424458247674092,-1.0070134479436017,0.13207865528064927,-0.031359072110498716,-0.9044535427807487,-0.41603821023907556,-0.8328639010666858,1.3468884065950766,-0.2770944220285673,-0.44292850132215944,-0.8195945473389673,1.178027628048884,-0.33546201781207907,-0.4181275882883449,0.23372220793991239,-0.684783864294145,undefined,1497536385422
903d185fccf839df,0.7913330959696812,-0.49533081466217627,-0.44254708174467783,-0.44739092309465606,2.6274595550021886,-1.815896930052915,1.603626005346388,-1.0861397323354662,-0.9093014678718015,-1.0905276025355295,0.12774564729443522,0.01782339968174649,-0.8696384803921569,-0.5456550271329146,-0.7760217431034495,0.6881703091318943,-0.47962311582620587,-0.4934527261520292,-0.8163830115992349,0.7236195088119975,-0.4452218659331624,-0.4086354937555065,0.2575743468843517,-0.532150390073015,undefined,1497536386877
903d185fccf839df,0.7511384342781464,-0.3855590100134768,-0.31622068692529426,-0.3165784429875031,2.6065590144709407,-1.7905571380492544,1.6374163840952325,-0.8899839663915421,-0.9706911143839266,-0.966735606646804,0.16333453602351472,0.18028995167974463,-0.7956564728163993,-0.5049183010412635,-0.8065480970111288,0.7144382128856612,-0.5496294326825037,-0.47825366137058173,-0.8255068541018442,0.7933898686427846,-0.43211878286635536,-0.4027938310687904,0.22895794735974587,-0.526452344282617,undefined,1497536388377
903d185fccf839df,1.1142746085188682,-0.5998196012397526,0.03277109991174352,0.027205150589103038,0.8395173970718572,-1.5458752167750365,1.7020280940062271,-1.0264811029900849,-0.86306905681982,-0.8928011430029285,0.1466706788495657,0.044809360405901624,0.022497493315508033,-0.5984275296483271,-0.9012850416743237,0.8033449227422792,-0.652252094190137,-0.5675165039651013,-0.888471153761904,0.8478695708934146,-0.4841404696925815,-0.5308210835147452,0.248445997114874,-0.5436228142320413,undefined,1497536389882
903d185fccf839df,0.28682377234341105,-0.564011686354348,0.2484192624819188,0.2529064189219241,-0.4225993408617192,-1.4594348216483843,1.7563756637145018,-1.0457387785220256,-0.2535657102925828,-0.6036803688143572,0.06027621671360065,0.0695441623593724,-0.3038937165775401,-0.7187859284738944,-0.9170745447219124,0.18301830190899512,-0.8868565021703368,-0.6714717749111804,-0.9126521327572894,0.13964887465188497,-0.6749619048822861,-0.5013156524119474,-0.3223896862428613,-0.5141152771721297,undefined,1497536391376
903d185fccf839df,-0.24263382515615237,-0.4407384198368872,0.41302605185599967,0.5364376393183453,-1.0178943442525403,-1.4657913134674656,1.8133109558409168,-0.8601115152315554,-0.16004964166854194,-0.6126586310495054,0.01785688328757072,0.007420628967244086,-0.4779690285204991,-0.7808167972544805,-0.929706150104877,0.07794674342337066,-0.939796340668536,-0.7254411205589579,-0.9346361128070769,0.023667783913937264,-0.724830163355111,-0.4818136752752253,-0.5685280398156165,-0.4906016401093675,undefined,1497536392873
903d185fccf839df,-0.33965479053666475,-0.4830035581576118,0.15590731360501514,0.06327729663390098,-1.0327983174508097,-1.587468440261083,1.8074359769981756,-1.1129792623548027,-0.19519499526777792,-0.6802096549744128,-0.043367428906267984,-0.21266029457339874,-0.9653799019607844,-0.774335957704866,-0.9633903869527131,0.3285020667613004,-0.7719774983041467,-0.7294435404315498,-0.9389881286707712,0.40189980157850497,-0.6519320095983903,-0.4659038356551328,-0.575179696925749,-0.41758898990444615,undefined,1497536394380
903d185fccf839df,-0.34381286493672175,-0.5710558663318046,-0.22370924632228942,-0.3439410983763678,-0.8536214781534982,-1.5688950867079816,1.8712166637770484,-0.6864905672118184,-0.20896294745321828,-0.6608250333391164,0.009596995503358142,-0.08964034602697732,-0.3778757241532977,-0.7502642818249848,-0.961285104664418,0.334563888530268,-0.8124601299596667,-0.7463651655389012,-0.9632740588811622,0.44763318357122744,-0.6569333652264698,-0.45041553643449034,-0.5799386316088775,-0.4293036929420409,undefined,1497536395878
903d185fccf839df,-0.2869862852044662,-0.6532380829807682,-0.410646795305255,-0.4993341806194748,-0.44142217335191647,-1.581873609969316,1.807967213010659,-1.028639347786926,-0.175134787468041,-0.7965658964126892,-0.0013697559731046108,-0.06461047931565805,-0.7260263480392157,-0.7623001230026191,-0.981285164926363,0.007225498873655559,-0.9637735650452481,-0.7370494050240376,-0.9969357156357155,0.1379088482432589,-0.7240876186226854,-0.45075793161876265,-0.5723145381135023,-0.44357986017430356,undefined,1497536397393
903d185fccf839df,-0.20382541830070158,-0.8187764293629688,-0.32451520868057515,-0.32012930082141233,0.05209585461641795,-1.5495693927287226,1.7694773644733,-1.0906278854789178,-0.2711203981377361,-0.8980558858728355,0.0518023342378344,0.02005771432707894,-0.7826008244206774,-0.7511900873696433,-1.0107588629654274,0.25980138236003864,-0.7935934079154219,-0.7428123824195179,-1.017520333644743,0.3490523333874231,-0.6890137561137862,-0.4538480117702121,-0.5719072022851442,-0.44076406127307904,undefined,1497536399056
903d185fccf839df,0.7594546520890799,-0.6585212179638607,-0.4974162656729875,-0.44866633705713,1.1252232053398232,-1.6635879808616716,1.7182171934590413,-1.0905082820543013,-0.6055208715735919,-1.0569319024811226,0.06845282767406766,0.08711314212786005,-0.6215811608734403,-0.6299058506224812,-0.9854956816484334,1.1104773576053393,-0.4319439991685975,-0.6319225391543678,-0.9969567054382883,0.9007478383312935,-0.5249468592070836,-0.4121434113739599,-0.20831532975530567,-0.5030332720498939,undefined,1497536400394
903d185fccf839df,0.79133323399132,-0.7225059112150766,-0.130559413702333,-0.39955396982102526,1.4744740618705623,-1.7188119127743229,1.740954490966073,-0.8697459169563889,-0.3324831433550492,-1.3245204268318775,0.05776470624261247,0.12762002064486605,-0.5127840909090909,-0.6234250304990285,-0.9728640836277026,0.7205000063899073,-0.5128314851200584,-0.664746186256437,-0.9571798348886822,0.7075743397499102,-0.5655251416157507,-0.40512012239642015,-0.16319322031960698,-0.5435067705220556,undefined,1497536401882
903d185fccf839df,1.2071373614776848,-0.6567601145135118,-0.17075473017093562,-0.34862112352071717,1.165399147762631,-1.6805518265195627,1.7653485688452886,-0.7640020060516167,-0.5678890911565329,-1.4035239918788405,0.11325383599191786,0.003420311111011761,-0.5693585672905526,-0.6123150078168272,-0.9865483007058795,0.17695657906655288,-0.644977794431354,-0.6186803537090112,-0.9675001310296539,0.4573496005611763,-0.6052609039635735,-0.41557686699782576,-0.12735362823534155,-0.5997158579358822,undefined,1497536403377
903d185fccf839df,0.2937537698236703,-0.7741632895057433,0.1629260678741906,-0.02359448430173993,0.25245094912724153,-1.6192159706383076,1.7999988886128977,-0.8834203899794318,-0.18853418891366727,-1.232028393740109,0.023841785298667963,0.06493239951000021,-0.9088054255793226,-0.5882433643138826,-0.9391798136498145,1.148868933161763,-0.3183553670816703,-0.5911890453604794,-0.9363853127491004,0.904150898005877,-0.49302503519808605,-0.4145765522624522,-0.15718249934268766,-0.5845750531460084,undefined,1497536404879
903d185fccf839df,-0.12343657799336848,-0.6919811313127644,0.03021931080258316,-0.11550021867461344,-0.23998709095273635,-1.6346937636422458,1.829776178896044,-0.9420431453043089,-0.15148394332360532,-1.0167527041623496,0.022724921027088462,-0.062409662199746474,-0.9523242535650625,-0.585465824647549,-0.9065482069027753,1.3852799821515003,-0.3759684605308813,-0.596255400767473,-0.9189212731985231,1.3831195466281767,-0.38889480266762644,-0.4198040695238377,-0.23636580020358527,-0.637855985391403,undefined,1497536406374
903d185fccf839df,-0.07215401694856617,-0.5452272064144635,-0.0189073946165554,-0.11608957297775475,-0.33447149979902807,-1.7558933991764252,1.8698754692481985,-0.8611644047092056,-0.09441949598024234,-0.8436440920798594,0.006647177201195342,-0.006275048278862037,-0.865286597593583,-0.6632358992429229,-0.8254954977233419,0.9003341841046473,-0.5434894955367163,-0.6713451133246662,-0.8853715653568262,1.0052570894734254,-0.4913779088525244,-0.3958243267580219,-0.31321403344656146,-0.558634994295351,undefined,1497536407882
903d185fccf839df,-0.31193466259398867,-0.46598003552811457,0.0034226025814810424,-0.07643931528165918,-0.4465547324471415,-1.8339601802965853,1.9043180371609836,-0.7793943548805436,-0.2506439857768113,-0.7458113399295472,0.02468380640606478,-0.16321222833300267,-0.6563962232620321,-0.7511901132711925,-0.9370745681726885,0.5851193390594447,-0.6459521638757284,-0.793121288277226,-0.9752665919958566,0.7017383340952943,-0.6329518575607903,-0.4518770683870736,-0.48687874572535167,-0.4168288527618615,undefined,1497536409375
903d185fccf839df,-0.2731260832114892,-0.3867330253957234,0.1112468109350434,0.11048161275576054,-0.4473261607672981,-1.8752226533023406,1.9257904060108932,-0.6567506389812985,-0.42158270353439753,-0.6828963379485705,-0.04753815641657095,-0.19583117635642128,0.17046150846702318,-0.7826684666222828,-0.9454956310657644,0.7386855847556962,-0.6480702771300674,-0.7982699715644591,-0.9756094356309408,0.7191231790445388,-0.6304213576874298,-0.4457276936658813,-0.4835999309421403,-0.44246888407819096,undefined,1497536410887
903d185fccf839df,-0.2980743915901922,-0.47713340817639793,0.21651897604249598,0.27568637705260435,-0.544495141623954,-1.8553635595197708,1.9004364346783809,-0.829438306866686,-0.4653159197656718,-0.7064418094490802,-0.09678326246298599,-0.31212113249689105,0.0007380793226381577,-0.795630152196899,-0.9328640477695013,0.5406659982634965,-0.6854001424488853,-0.8322778788905874,-0.9586561632070734,0.3988355115404981,-0.7041406888157108,-0.44091483761115735,-0.47690559675734834,-0.4478863083946381,undefined,1497536412433
903d185fccf839df,-0.30777648467770247,-0.5728168967121726,0.2267271490269351,0.2570211683168459,-0.4001148160899591,-1.899428106781364,1.8904642136591046,-0.9042044109155033,-0.45911235929634375,-0.6602565353728765,-0.0687113728446866,-0.27746582259522456,0.33583305481283426,-0.791000962588925,-0.9476008765428905,0.08602913947315237,-0.7972666777199157,-0.8333798118489767,-0.9804162453271583,0.1051101598600004,-0.7726157859600893,-0.45949590054343975,-0.5051767545882965,-0.5583742198304011,undefined,1497536413887
903d185fccf839df,0.4808658411260748,-0.6350405595830205,0.41238842224989636,0.46370192787118797,0.2862806072569132,-1.937895492821731,1.8824564563509327,-0.7100971368779141,-0.3014776180265067,-0.8300826211261454,-0.03504022937215816,-0.4025877267597506,0.5012046011586453,-0.8011851408741443,-0.9191798122857399,-0.12613463657307525,-0.8423323806539221,-0.8267048890358322,-0.9555285888063692,-0.030319167759315938,-0.7918473865909039,-0.4790069630533131,-0.5384964273601792,-0.5668818386262838,undefined,1497536415379
903d185fccf839df,0.6125371044565713,-0.6990252382202402,0.15080373538669442,0.0734612725305645,0.4157878181141266,-1.937385389465185,1.8142629583125398,-1.1184371690861863,-0.2071063710691004,-0.6750192445907441,0.010698262420768132,-0.35023696164351614,1.0321343025846703,-0.7669292931844313,-0.9328640109583323,0.13654440096459358,-0.7719596881121455,-0.7925196590929537,-0.9543881094103377,0.20236674559322262,-0.7216214211953672,-0.4868483787449251,-0.43400166636107934,-0.6130263644133398,undefined,1497536417009
903d185fccf839df,0.6693636496834171,-0.6908070136325447,0.18461767305527546,-0.0037585158522699274,0.39550441946520143,-1.9053909602536598,1.817313527187804,-1.0723610098037453,-0.2550974601322739,-0.8104476559131075,0.013312963950123583,-0.24590097593208368,0.45768577317290554,-0.7641517794196468,-0.9328640404072674,0.5184392430713578,-0.6855347027964362,-0.7798094412210147,-0.9392190235703939,0.4128634948708842,-0.668946006761992,-0.4849255935857567,-0.4208262844301236,-0.6176487307399564,undefined,1497536418380
903d185fccf839df,0.6014489290600258,-0.5792741055334963,0.1335773164069787,0.0035266831786009752,0.040370158576194914,-1.8415930987551556,1.7907603790936526,-1.2907236649517064,-0.35276412329553836,-1.055343263652253,-0.010481333953661052,-0.18803006689609406,-0.7347301136363636,-0.7456351051677854,-0.9023377012240557,0.48813010596179807,-0.7157960394853825,-0.7534770612886124,-0.9059631813756742,0.4389176620620115,-0.6401979342584632,-0.4820038210491203,-0.4555275578509114,-0.6294976579404734,undefined,1497536419881
903d185fccf839df,-0.20521143159891733,-0.5886663747314309,0.05254981627451845,0.018021159139684266,-0.5550791349854314,-1.7343316325145577,1.835619614762527,-1.1015078995927396,-0.2682001191046663,-0.8739473095054532,-0.03215859172467852,0.00605742208823833,-0.8739903631907309,-0.7067501002470349,-0.9065482069027753,0.4073058345520441,-0.698424183814807,-0.7329456589052541,-0.914653220857648,0.4009758921727283,-0.6437244727516467,-0.4828838804900571,-0.4524471968832499,-0.5907201093658735,undefined,1497536421381
903d185fccf839df,-0.12343657799336848,-0.4524786613433303,0.1303873894178162,0.07033292494262758,-0.4674552761112063,-1.79902625145216,1.8604134280058258,-0.9674726298076719,-0.40164000694126994,-0.8660204233170585,-0.05301361528319807,-0.0578094587042309,-0.8043602384135473,-0.6419417112262772,-0.9076008370035721,0.5669338737525418,-0.7152077262991057,-0.6850559391434794,-0.9094755799769866,0.7206938169125482,-0.5579012958736468,-0.4952718576932398,-0.25941769330315434,-0.5638163821664397,undefined,1497536422891
903d185fccf839df,-0.06245185485023643,-0.32627037829124733,-0.0010436001676857852,-0.029547028987094232,-0.5221134682171187,-1.7290605626727285,1.8807786438361702,-0.7508066610786477,-0.46540103486616197,-0.8243692467304429,-0.02723384837799175,-0.054265893375839744,-0.5737104500891266,-0.6113891763706197,-0.9876009528933777,0.742726705052603,-0.685835712285264,-0.6874181274894933,-0.949910149629578,0.7309183851600631,-0.5705366124228181,-0.47253968215203423,-0.23502189380426464,-0.5167155505960291,undefined,1497536424385
903d185fccf839df,0.029024988326593486,-0.1366643000741005,-0.0010436001676857852,-0.053331204402635425,-0.6287864270517344,-1.670182054646975,1.8675454560467555,-0.7387475820155293,-0.5843049144753373,-0.8304866735070036,-0.04504611710267541,-0.08741104935316299,-0.6476924576648841,-0.6187958797433781,-1.013916779035636,0.41942939329581475,-0.7327895438566693,-0.7145357920337156,-0.9705997187985576,0.5747319494577916,-0.6177651900214904,-0.4550805754679648,-0.382323440392313,-0.5127139560370166,undefined,1497536425874
903d185fccf839df,-0.5032045667585819,-0.4466085698181011,0.0008710676092701086,-0.1172239405100166,-1.0860062333141316,-1.5945819366484935,1.883773995742633,-0.6762224230951028,-0.27246413735943337,-0.795453775032138,-0.06580410525547702,-0.09119332093483816,-0.8565828319964349,-0.6197216917634238,-1.0318115275603508,0.2618220273026565,-0.7355683870636675,-0.6977281594806973,-1.0125176129197742,0.526427023763811,-0.6398009702269197,-0.4523089374167235,-0.34935266099191487,-0.4719425044328356,undefined,1497536427435
903d185fccf839df,-0.3479710083475982,-0.5510972979396928,0.15909774886807648,0.06623297767322532,-0.9189973700864097,-1.6521630609962943,1.856894748876424,-0.9247493804379128,-0.2439151636484232,-0.8688678132598736,-0.04034761685021944,0.061473102415305445,-0.7826008244206774,-0.6845300872595688,-1.0149694091364327,0.34870823354026426,-0.7375063833859852,-0.7300831684184396,-0.9860556747836531,0.5382376324307862,-0.6415802443949087,-0.46070462748036106,-0.3297249371111428,-0.4802294177890193,undefined,1497536428895
903d185fccf839df,-0.24817791285442511,-0.726028001203805,0.15271738661585263,0.018227499965775433,-0.5311751598840757,-1.716245089984717,1.879858210528851,-0.820444457379127,-0.233635549788902,-0.781830405496427,0.021521348642262197,0.006504963903188811,-0.5693585672905526,-0.6715683693080161,-1.017074654613559,0.40124404104779804,-0.8137023549382899,-0.7127625683466392,-0.9924577571089535,0.7624235997371208,-0.5917995455905272,-0.4778233670435232,-0.30996581498674336,-0.5303117422793794,undefined,1497536430379
903d185fccf839df,-0.3050045270920904,-0.7870775610084292,0.0691378432372826,0.07849326299874373,-0.020829732453039033,-1.7240131028473995,1.8340943193259165,-1.0393944709966756,-0.25013721703320707,-0.5765522008752992,0.06913548106696794,-0.05273182723414663,-0.3735238413547237,-0.7197117275431656,-1.0097062291835135,0.4477179702569211,-0.7990783899697348,-0.7736284894819234,-0.9854679428474069,0.502944394498611,-0.6686897535913854,-0.46522552478406426,-0.5460016912985671,-0.54442715824598,undefined,1497536431877
903d185fccf839df,-0.3812352584939568,-0.7219188962169552,0.053187700017571185,0.09945626691949896,0.12281002403048193,-1.7083769193676903,1.8393486750264556,-0.8834265029185067,-0.15249331008451344,-0.4615342615211179,0.0012307224320166404,0.06154782599415573,-0.5737104500891266,-0.776187594695732,-0.9897062351816727,0.45984169858902096,-0.7548306730021013,-0.7828745865145391,-0.9479580404715879,0.45202173595969625,-0.67101809363434,-0.4622162844047869,-0.5138804953563415,-0.5904119960962064,undefined,1497536433378
903d185fccf839df,-0.32302256194725626,-0.6326925580465197,0.22481273538692864,0.2662637346255969,-0.01742517666989417,-1.7188072524158278,1.811249198305593,-1.106230881434611,-0.1714608563892991,-0.39150264305718613,-0.0054812993951411995,-0.028608966423865827,-0.7303782308377896,-0.774335931803317,-0.9949694004101244,0.05167891033140762,-0.8665339292979379,-0.8014554432861537,-0.9426264707487205,0.05625089274164163,-0.7620139173673623,-0.46327671476038396,-0.525406459026298,-0.5352475965208073,undefined,1497536434892
903d185fccf839df,-0.4020255269780126,-0.5822092097520957,0.33072278423743395,0.39302043819422305,-0.2595196216127005,-1.7236054861052323,1.8274119861059877,-1.0504734343894668,-0.23125165695974798,-0.5307441453493578,-0.021641592953755333,0.051687427490986176,-0.8261196524064172,-0.7826684407207337,-0.9918114806587988,0.22140997639194418,-0.8119233095281052,-0.7860917215040142,-0.9218949197908046,0.22875967630903796,-0.715296525314494,-0.4703124744751681,-0.4936206334893761,-0.5091384960354133,undefined,1497536436379
