UUID,iqrAccX,iqrAccY,iqrAccZ,iqrAccXYZ,meanAccX,meanAccY,meanAccZ,meanAccXYZ, covarianceAccXY, covarianceAccXZ, covarianceAccYZ,pressureDerivative, pressureIQR, iqrGyroX, iqrGyroY, iqrGyroZ, iqrGyroMagnitude, meanGyroX, meanGyroY, meanGyroZ, meanGyroMagnitude, covarianceGyroXY, covarianceGyroXZ, covarianceGyroYZ, class, timestamp 
903d185fccf839df,-0.16917503408719317,-0.794708814439992,0.36964157080908283,0.3372883483920821,-1.0309459478976226,-1.5399089697119341,1.890939498104321,-0.5594234236270527,-0.36182010873078974,-0.725990255384134,0.07064621323525744,-0.27385256636884553,-0.6542202818627452,-0.4651073999204326,-0.8107586174143161,-0.09178433676952666,-0.8534260142662424,-0.3803667523531011,-0.7552433181389734,0.37506541859385234,-0.4280468020665142,-0.4294280295598184,-0.9478667980893172,-0.03854137069864945,undefined,1497375230608
903d185fccf839df,-0.1636310671578545,-0.38673292309775026,0.7613802090869342,0.7961300262020942,-0.8698610522010009,-1.7605833705889566,1.8579610152129444,-0.9961378685177232,-0.4563982877279286,-0.9628322287416322,0.09018659304405109,-0.7153457047082235,0.7405581550802139,-0.21976146446442205,-0.9423377113144388,-0.2695978130122057,-0.43297828343726663,-0.25235597531699727,-0.9131419081866667,0.15025454513520214,-0.45586647568413174,-0.36191572125529414,-0.7237141106788233,-0.38649550607516125,undefined,1497375232124
903d185fccf839df,-0.26827514018396326,-0.37587314563250457,0.8417699525448163,0.9289170766777558,-0.8927988090920734,-1.6982946836472972,1.88362847699504,-0.7185923935550169,-0.447719594060497,-0.7891034427041217,-0.006946700393910686,-0.6704086642760806,2.2006148340017826,-0.22809400575877525,-1.0044430860417632,-0.39487548174735093,-0.4731148166987785,-0.27564985453497814,-0.9536215011710067,0.04254827845770405,-0.4883820855017005,-0.4442316446567301,-0.6969708867226156,-0.44249280967155413,undefined,1497375233614
903d185fccf839df,-0.15115684395768353,-0.37968880157627827,1.5046636939957307,1.410719486056537,-0.8182386765441774,-1.7348440616197534,1.8324217559428633,-1.0189977986013443,-0.41836155995373114,-1.1530203180105376,-0.15764978263985846,-0.497664834469513,2.468255626114082,-0.07162805749875621,-0.9939167482226262,-0.2837420449633158,-0.4637429444211066,-0.1685843019123352,-0.983357080534755,0.11127065083058078,-0.4300347343289444,-0.5147360508553347,-0.5088679348433631,-0.49662223396072624,undefined,1497375235126
903d185fccf839df,-0.2703541601312869,-0.3292054532818543,1.0682637906370593,1.170547735043362,-0.8527060510950687,-1.744009617917109,1.8266414458347258,-1.0924137782764167,-0.3611318386632178,-1.020217683020076,-0.14007663554366984,-0.354428083779524,-0.05583639705882352,-0.15310138017431296,-0.9254956002527546,0.06784367416624949,-0.47590885913933617,-0.208148316529551,-0.9370046028215298,0.3537296926603414,-0.3961997751877837,-0.5004557921368102,-0.6003406774585687,-0.43660582090417244,undefined,1497375236624
903d185fccf839df,-0.2038254528061113,-0.5739909705504039,1.1646038043831277,1.1311596961251094,-0.8930774122731364,-1.8395293891594586,1.898395710333157,-0.791064625869152,-0.3194471926502934,-1.1897979070812037,-0.24180146804527117,-0.12140014777764682,-0.7042669340463459,-0.23550063142688635,-0.8665481526389894,0.07996737423362782,-0.5232484927893357,-0.2639468484571177,-0.8813274101443185,0.3737052464585757,-0.4122045924560351,-0.4646891201707696,-0.5327257115196903,-0.410361173317758,undefined,1497375238103
903d185fccf839df,-0.2758982133241499,-0.582209151296111,0.9406616283315703,1.0081852459353486,-0.9989172378997857,-1.8574179476319566,1.8669406080590085,-1.0813363707845258,-0.3111962226753506,-0.8645532176911032,-0.1563923617101538,0.021854289942677654,-0.8261196524064172,-0.24198144507495176,-0.799179656856616,0.13856494698068614,-0.555007862784458,-0.3038507281573875,-0.829474044547635,0.34387846153318863,-0.4257345542618588,-0.4709084839047774,-0.4526047072404594,-0.4411933834117835,undefined,1497375239615
903d185fccf839df,-0.583593407065915,-0.5734038970962978,1.3572828153274668,1.2821128078874198,-1.2004346135852815,-1.8624630821417292,1.9558911605487856,-0.5582614589076424,-0.3181102409981166,-0.8961771275131711,-0.1407100745409032,-0.038614084146759466,-0.8826941287878788,-0.2679047903226352,-0.7960217665542255,0.20928627632456584,-0.5696337730735554,-0.3110386185114608,-0.8016267364448906,0.3780014171402651,-0.42325744348791317,-0.4675582834013803,-0.4013838869399729,-0.40641651825110126,undefined,1497375241180
903d185fccf839df,-0.5711192528765635,-0.5211595914914867,1.4268261208524329,1.2716836484121157,-1.179678076021407,-1.8049075814952025,2.0147067731506865,-0.061789227340695675,-0.3380844330010843,-0.7531664718558283,-0.14610306513503543,0.040061785816229316,-0.7434338792335116,-0.3067898664726458,-0.7633901377204849,0.19716257625718753,-0.5909568245637228,-0.41653912642478025,-0.729657539070044,0.45942839426393706,-0.4417775971532532,-0.3794199156785951,-0.38183599529112267,-0.43523949713726684,undefined,1497375242613
903d185fccf839df,-0.4935024736710717,-0.25582854928868853,1.4242740776063232,1.2905030893151224,-1.1340918671150102,-1.7620076535362925,1.943815086283375,-0.40485685371498276,-0.3340994129175147,-0.8457837999234756,-0.24858576068361654,0.04111767969422866,-0.8174158868092692,-0.423444939513383,-0.7539164594510798,0.09613219459791277,-0.7002835022708064,-0.5278216128567919,-0.7151111703462691,0.37861734810580094,-0.515245475401547,-0.3267904760242494,-0.3924000081069227,-0.39633175953471933,undefined,1497375244101
903d185fccf839df,-0.32856678766716796,-0.21062827752137234,1.2666852800905695,1.2404352223774626,-1.0166909256471097,-1.7504499680525416,1.981629062760315,-0.07886754238821912,-0.3643616466918646,-0.5377467596015694,-0.3179032146374341,-0.04881741297746504,-0.7434338792335116,-0.4558490725075828,-0.7991796789433173,0.0819879909115242,-0.7221034944974859,-0.5332552784323341,-0.7570640475431393,0.41084629330750677,-0.5296279217722661,-0.3686517917259106,-0.3942146427662938,-0.37054044457955276,undefined,1497375245592
903d185fccf839df,-0.34658499504938245,-0.18186454261342436,0.9208831661057448,0.9349621521806328,-1.0211034900607128,-1.7155043915917896,1.9231342856572187,-0.43419362397175126,-0.2946010259277953,-0.46781929375491005,-0.30029481008392145,0.025816920390474167,-0.6215811608734403,-0.4651074128712071,-0.7591796173172977,0.10825589466529109,-0.7264433620517698,-0.5376376748480561,-0.729874440898449,0.46494102810815624,-0.5180926111803031,-0.31829796655814724,-0.35070226223800677,-0.3572885434448822,undefined,1497375247118
903d185fccf839df,-0.4020255614834223,0.07348727384930256,0.5131938763342833,0.5831708648693317,-1.0178017776724164,-1.5876105239525853,1.847322242270795,-0.6711231992896468,-0.27278429682925365,-0.4291163161641726,-0.2243808530727065,0.039838207367085536,-0.5650066844919787,-0.40863155866941536,-0.7802322635066368,0.2618220838320996,-0.7270176736827086,-0.4905332383139349,-0.7324002922369145,0.4143263356645444,-0.4943683834233184,-0.35496567432922144,-0.4642236797383075,-0.4204695033663594,undefined,1497375248726
903d185fccf839df,-0.5711193563927928,-0.07737578526384037,0.613999838692569,0.7225846033191425,-1.0508805794561595,-1.49174602433108,1.8286269542586702,-0.6121251434573106,-0.3369083824459781,-0.3271840693416078,-0.21079734810345435,-0.11104347507278398,-0.49537655971479505,-0.40955739659101015,-0.7676006433992046,0.14058556365858252,-0.7924250562440324,-0.4816607831533323,-0.7534187119636434,0.2992075575888803,-0.5116912869834577,-0.3741040033477093,-0.5561623747402215,-0.40757346516542303,undefined,1497375250151
903d185fccf839df,-0.5766634095856558,-0.11611877513985194,0.5820990439792473,0.5831708648693317,-1.0574737087831734,-1.4999146657756692,1.8457627803395926,-0.5418079686429006,-0.3259973301772539,-0.53057709262372,-0.15802099012133405,-0.051926222397461703,-0.24296735739750447,-0.4132607223758403,-0.8328639010666858,0.06784378722513563,-0.7746392279114452,-0.47497952847616026,-0.8008500926030191,0.1873532516306174,-0.5436435460843809,-0.40701890660248036,-0.4920258428293834,-0.4293540317920611,undefined,1497375251607
903d185fccf839df,-0.45469403231021116,-0.28635329996300835,0.6535562548703212,0.6606647957583847,-1.0399880241918742,-1.605520040735645,1.8492577975229527,-0.7002436248523403,-0.5153976874895478,-0.4727698562172029,-0.0942096666066026,-0.10595809099782323,-0.7869527072192514,-0.3299356850047703,-0.9202324423865367,0.013287306510262416,-0.7095928753378707,-0.4057351230771531,-0.8361909844940422,0.04479444179071105,-0.5384362792280133,-0.4426497654404981,-0.4564686816753222,-0.4551119073419696,undefined,1497375253105
903d185fccf839df,-0.37291921321007204,-0.3385976786378003,0.8615480335652177,0.9724248034509544,-0.8378020801893964,-1.822672686460628,1.9756962392403523,-0.25730225088371855,-0.4282803628585848,-0.41754609648620616,-0.1205858045885948,-0.0014915214799981922,-0.8565828319964349,-0.18457979180388884,-0.967600914718134,0.03753459358613291,-0.6628904920725539,-0.281096459536855,-0.8827407666999229,-0.008083815321576239,-0.4934283015476103,-0.49688773239666767,-0.39060500819434085,-0.5419212106694131,undefined,1497375254595
903d185fccf839df,-0.32579465755450726,-0.3104209148859852,1.3253825288880439,1.4009668280446865,-0.6476606856164959,-1.794717157024499,1.9077394250849704,-0.5939855105458217,-0.45443036648614116,-0.31050061025836956,-0.21414860771568814,-0.017585306858116143,-0.9131573083778967,-0.1456947933585255,-0.9844430552287534,0.06380244081045672,-0.5665166625657323,-0.23217446958470883,-0.9294164912874866,0.038650468613787556,-0.4728917241049062,-0.5153591379631469,-0.32756320791805155,-0.5059683073096828,undefined,1497375256118
903d185fccf839df,-0.21629953798464335,-0.27872216344341494,1.876624124184706,1.8361891796850875,-0.25661905777256194,-1.8161927433506793,1.8901591653612566,-0.5957629304440857,-0.5829664386108725,0.4783257487427763,-0.32586075530418934,-0.0210592014666147,-1.030658143939394,-0.0281138435438698,-0.9781272304505698,0.16685343914762787,-0.49311868919293916,-0.2115290749127775,-0.9251974135703348,0.11986186849742257,-0.4473657535526976,-0.5636063420517434,-0.31282986466475,-0.4824926626886113,undefined,1497375257615
903d185fccf839df,-0.2856002719062504,-0.30748581066738595,1.819841289027238,1.7797677470136524,-0.3524200390966257,-1.8139426975821584,1.9607694527827402,-0.16442350724071508,-0.5554006455178316,0.3872555367468066,-0.3031306072563236,0.04140599689103197,-0.9349167223707665,-0.0012646992269152097,-0.9728640652221181,0.26384267224527447,-0.45045340207470513,-0.10099387398545176,-0.9393379679789586,0.2692883834312825,-0.37586032386372553,-0.5478412612589716,-0.35082230814339405,-0.4513424597487369,undefined,1497375259101
903d185fccf839df,0.02209488733010499,-0.3092468995037386,1.8045290295505794,1.907805323472185,-0.2523916362477404,-1.837484318344367,1.96522171423678,-0.08308927127455133,-0.5349421290596579,0.08023491071455777,-0.4137008630728419,0.023915928685092562,-0.9175091911764707,0.08946706741846226,-0.9307587802056738,0.4153882729989081,-0.4272480105817223,0.025810656430930893,-0.914338362716591,0.4518985464037042,-0.27213420398019134,-0.5563655998733816,-0.3354298731339334,-0.4569364138918376,undefined,1497375260626
903d185fccf839df,0.12743203601614111,-0.3033767202945324,1.9161813027733063,1.7847674532441795,-0.32826921848926993,-1.866194522046354,1.915797140278777,-0.4647646198033866,-0.5491428970356323,0.2754384011715468,-0.3790837765725256,0.12391518275429396,-0.9436204879679144,0.04039787773710525,-0.8644428997996296,0.2699045505436852,-0.4313350915744693,-0.00008474910876162685,-0.8778639879467942,0.3615558678319288,-0.2922863597339222,-0.5058544506520395,-0.4369049381691326,-0.42128391424532985,undefined,1497375262107
903d185fccf839df,-0.030573583496683862,-0.25641549121682905,1.6852208807264724,1.6351819626989816,-0.5561488321854492,-1.8872135763677649,1.9883298239836427,-0.09057164128667755,-0.4218555334603324,-0.18989421156532382,-0.3718152187661143,0.056679128104352966,-0.6172292780748664,0.052433731865513984,-0.8181270354821276,0.24161605837674344,-0.5367509649636971,0.004607961298002539,-0.8612465625489971,0.45967476361574683,-0.26901454657689183,-0.53699332874833,-0.4073053943570359,-0.4665741956490841,undefined,1497375263605
903d185fccf839df,-0.365989181224403,-0.3884940265480991,1.4651067695440796,1.5022987540360777,-0.5336128694760348,-1.9013776807329126,2.005668126599635,-0.07751208504439479,-0.4348493007808359,0.3088546011371783,-0.19033180102549252,0.06427881410131576,-0.7782489416221035,0.12094542724493994,-0.8602323720342085,0.19312142769555937,-0.4540833883791938,0.05439756492151806,-0.8853505763555884,0.36252597258750685,-0.2674497659506722,-0.5095155720635015,-0.28227435908313797,-0.4802335880998876,undefined,1497375265094
903d185fccf839df,-0.47548423178344745,-0.3650134558512359,1.2603054261122444,1.3198713864867044,-0.6394321258891751,-1.8597774680138395,1.9405646439646993,-0.4768094423294896,-0.47100596051766314,0.09529917886268,-0.22231640239995643,0.1459244769623816,-0.7303782308377896,0.07928291503479222,-0.8623376322358022,0.23959538516940396,-0.4713099305377762,-0.010008473567601359,-0.8704263781867494,0.34675796610637344,-0.296078686028148,-0.5501962804166108,-0.25384485496570636,-0.46700982617198844,undefined,1497375266616
903d185fccf839df,-0.1774911656346023,-0.42371492643538233,1.266685534227519,1.518401101201386,-0.46195241906324674,-1.8826179880437417,1.9025560541750357,-0.7118254600070641,-0.5248964518615384,0.05423648607448759,-0.09295692114455432,0.18343862905831826,0.15740586007130128,0.08576379343673035,-0.7939164769036967,0.20524509949821615,-0.5572999113387476,-0.03423198186019228,-0.8309363772134084,0.431156848249545,-0.28209732488075245,-0.5682661475757546,-0.3240679516804965,-0.3881733345118535,undefined,1497375268102
903d185fccf839df,-0.13452475338991396,-0.4442605390536079,1.1728975637275603,1.3308861293856622,-0.2611036129350563,-1.8800278736384444,1.8837476945654312,-0.7630298527121172,-0.4498188177599231,-0.7203006399332197,-0.02607902043792529,0.21706192783638834,0.19657280525846704,0.060766221356768985,-0.8928639861434815,0.37497605249986654,-0.5361537825766762,-0.10146251244875865,-0.8737078815214152,0.6119038013153878,-0.3015939884155916,-0.5991942302670635,-0.05105026105945115,-0.3883229047332357,undefined,1497375269599
903d185fccf839df,-0.041661724387819614,-0.5205725180373806,1.1709834042245033,1.2585996211320456,-0.39191710817837944,-1.8810713735691291,1.9180429997693833,-0.5692841267275539,-0.38899212629598307,-1.2399040088381033,-0.021436193133009658,0.12946010477019626,-0.6085255124777184,0.031139524422706358,-0.8749692081698315,0.4436767934305714,-0.45105600828287545,-0.1437539085546491,-0.8381430916701045,0.6242687479065405,-0.3121608224238859,-0.55335574058502,-0.01320220879222763,-0.38611423370914755,undefined,1497375271100
903d185fccf839df,-0.24817791285442511,-0.35092503744033793,0.9770278633832106,0.9782535358043226,-0.6714926416835933,-1.8031396883684545,1.9432865146425746,-0.3750606071608662,-0.4080496059421256,-1.245623259060515,-0.10077599839510679,0.0721234725399152,-0.7521376448306596,-0.0901447382260049,-0.8707586804044105,0.6619023771134058,-0.4809726239025877,-0.16431064208707366,-0.8305375584612535,0.8006579364281354,-0.29406700365614774,-0.5114692912495379,-0.08642958953579888,-0.3382236846281945,undefined,1497375272626
903d185fccf839df,-0.4269737663458961,-0.3550341131991953,0.6707829279869864,0.6985287947593917,-0.8050524224713429,-1.7728339568038758,1.868434339045164,-0.892099459046786,-0.4310692566888947,-0.48622586110336957,-0.037156507474645814,-0.0011348832548145123,-0.8000083556149733,-0.10680973015928943,-0.8760218603573298,0.7710152254842662,-0.35743735305822805,-0.23178182372149103,-0.8338540471043003,0.9819746282195063,-0.28517414838468386,-0.46920062562467785,-0.03610135869071614,-0.25928791354916025,undefined,1497375274096
903d185fccf839df,-0.44914997911734816,-0.3609042339524169,0.6427101981428293,0.6530026624894217,-0.9727195697733871,-1.721485877927713,1.8637085691269697,-0.9093254284997201,-0.398859046811771,-0.25769449327328325,-0.06897637366524884,0.002505855213989851,-0.7260263480392157,-0.2179097756704579,-0.8876008135527961,0.6760466655939591,-0.4329874436802056,-0.354203957998985,-0.8919625622119712,0.9645281869710248,-0.3645055773232534,-0.4203549728208258,-0.09941713552343574,-0.3029594807205,undefined,1497375275616
903d185fccf839df,0.004076783464119679,-0.3744056958211781,0.47236118439652675,0.4960727633413524,-0.5877053617263428,-1.7880415602276325,1.852392515395205,-0.9969053288277264,-0.4433619686996227,0.17896860856603236,0.0476162008151068,0.01639852495920911,-0.669451871657754,-0.37067237224409777,-0.9160219219833494,0.5608721085130173,-0.5110057902900069,-0.42338503598763805,-0.927863199230045,0.9626187770028367,-0.4003930476658737,-0.4104096249747157,-0.34801861051858324,-0.36262812892929164,undefined,1497375277105
903d185fccf839df,0.11357197204480306,-0.5047230838601108,0.7977469524124732,0.8397978499029538,-0.6452229799975715,-1.8588783820318249,1.9546683092708428,-0.4372819831754757,-0.38587838340617575,0.00982200750504599,0.10645275969872132,-0.042190037120968256,-0.7173225824420678,-0.48454994447082517,-0.9360219307096579,0.9326639378921033,-0.3938005276301108,-0.48558720797309196,-0.9243438036710464,1.3700154503426711,-0.3374213244225992,-0.3997284722114548,-0.4195088030419093,-0.2826114107865548,undefined,1497375278628
903d185fccf839df,-0.36737519452261874,-0.3920161165368274,0.5929451007067392,0.6051243559018972,-0.858013476328367,-1.8107562991113335,1.9142902723218038,-0.6836041686891091,-0.46251405375702304,-0.554683165410085,0.06656303731248642,-0.013476782816734166,-0.6520443404634582,-0.5438033059620141,-0.9823377803026923,1.5812788671716391,-0.34593708060616407,-0.5940642019837987,-0.942682444942115,1.5283422705947052,-0.3506248890837654,-0.4057692713048395,-0.4064350520762613,-0.24287805085572786,undefined,1497375280113
903d185fccf839df,-0.5489430055997018,-0.4648060055318718,0.08955469748005969,0.12721477694768507,-0.9390647682713118,-1.807562911559699,1.9482910295863705,-0.5008974206801421,-0.4869290270632696,-0.9255289810881331,0.0024530267570632785,-0.057855176503642185,-0.9088054255793226,-0.6113892087475561,-0.919179804923506,1.7308039925709842,-0.23958032661683967,-0.6499017672787668,-0.9311656940678266,1.941821322979658,-0.28101177467891586,-0.4198851713967198,-0.42459242010824016,-0.14556986646331183,undefined,1497375281602
903d185fccf839df,-0.8552522895594804,-0.6896330420922866,-0.23583157880978559,-0.21988935797583678,-1.1650826728860706,-1.8026738388758667,1.9697502457526357,-0.4476752998165002,-0.42238316633189427,-0.8074195562769195,0.004605390910832094,0.045455897530255446,-0.8826941287878788,-0.7437834228492086,-1.0065483315188894,1.5630934583941793,-0.18922008473026522,-0.7368594173006026,-0.975735378826193,1.550238860827063,-0.41876571501792276,-0.42277788742376676,-0.37840675486104813,-0.14118971971830746,undefined,1497375283093
903d185fccf839df,-0.8621823560505592,-0.831103744323518,-0.3678994355905426,-0.4116767411479446,-1.3204789843954234,-1.8422941987354382,1.9420794139023247,-0.7518844755179426,-0.35694993661592417,-0.7343983327219575,0.04817203068179438,0.006097498121464614,-0.7216744652406417,-0.830811792480496,-1.016022024512762,1.6338147029438943,-0.13796803442681804,-0.8152929239422854,-1.0189126984586663,1.3564802223687815,-0.5031757293395468,-0.40416802153828174,-0.3278384215229505,-0.031810033415755445,undefined,1497375284602
903d185fccf839df,-0.9813796722241626,-0.9162210359630885,-0.4163887655405273,-0.4762960266711521,-1.5875779630458426,-1.8336224412392494,1.959486104502394,-0.6999700610120236,-0.28163720714483603,-0.7084686568899602,0.05086216379642745,0.019277657113576225,-0.8913978943850268,-0.8919168557164235,-1.068653665753928,0.23353353513571481,-0.7377147997486885,-0.8843156778240936,-1.0813172543496627,0.6118268007280622,-0.7117784328150017,-0.43256482139693864,-0.44791407211390155,-0.11400304728906793,undefined,1497375286107
903d185fccf839df,-0.8677264264961271,-0.8575194776949651,-0.3698135950935996,-0.431259658597231,-1.5751939845077079,-1.8409781789057924,1.943436397727175,-0.795610832605678,-0.3225338745853831,-0.7204701054257714,0.033010179786344365,0.04786962548500293,-0.8348234180035651,-0.8900651863486212,-1.0833905313384862,0.18503893271925229,-0.763163238683984,-0.9133648896971573,-1.095625732433424,0.6785020662526039,-0.711118740016296,-0.4476575249103073,-0.4579989937716612,-0.08088943016981368,undefined,1497375287607
903d185fccf839df,-0.8206019225986768,-0.8334518627719881,-0.33982746815723386,-0.4150521901368646,-1.4853072778504692,-1.8640260002547955,1.9628391149175213,-0.6772485978373306,-0.34462875606181903,-0.7385047109027004,0.032541541726889014,-0.09960297242279972,-0.8609347147950089,-0.9076560291542751,-1.1423379679089007,-0.1402789391859892,-0.9679142975035682,-0.9375757329107468,-1.139726631970241,0.24090904575438987,-0.8316142466182223,-0.4645378698295593,-0.5807864285374817,-0.31642099511957544,undefined,1497375289127
903d185fccf839df,-0.7069487631341657,-0.744225466145568,-0.4348909520063485,-0.515130650010882,-1.345514370172844,-1.802848532776263,1.9340532589688864,-0.7733986798309301,-0.306475328207482,-0.7544928130308401,0.02521870850923107,0.013068432495759504,-0.9218610739750446,-0.908581857362789,-1.1518116572216566,-0.07966062256978756,-0.9241952625248634,-0.9559666012170132,-1.1463945929926311,0.1478562396666963,-0.8603881824714027,-0.4618904759562257,-0.5584669921455658,-0.3012084129287623,undefined,1497375290593
903d185fccf839df,-0.6071557021464024,-0.6121469746562864,-0.3404653519002866,-0.3790723459131798,-1.3018310141242788,-1.7454304552489146,1.9491956746452122,-0.5721768336307057,-0.3487121766399948,-0.7687528355628211,0.05510299135809096,-0.02128139935063129,-0.9044535427807487,-0.8363668200100647,-1.1107589875815413,-0.04328973435306412,-0.8645548381505923,-0.8854176089996767,-1.1110257142618274,0.11308654774886123,-0.8198932001050677,-0.44966286886710605,-0.6047531119959416,-0.27797650831792536,undefined,1497375292111
903d185fccf839df,-0.4588520722048584,-0.5041361273179741,-0.004871410899901033,-0.10763033001004747,-0.9871812583390911,-1.755611560501239,1.9479938549860871,-0.4814129295982436,-0.4989022843555831,-0.3007357476035921,0.06439486905164603,0.036433286019804334,-0.9088054255793226,-0.6669392056015913,-1.0391799456281623,0.2537396453852356,-0.5089600126185553,-0.7163470125911133,-1.045185724823737,0.40497947948058316,-0.667965138136355,-0.3709568799762151,-0.47685635789580844,-0.2535062399878783,undefined,1497375293598
903d185fccf839df,0.04565718241059225,-0.3039637206786576,1.092507947338153,1.0421398943962552,-0.7462799458085477,-1.8131624026303694,1.946897220656616,-0.39876634145513357,-0.4651221387427538,-0.4202202385395464,-0.08949399110448285,-0.00981164871628738,-0.9610280191622104,-0.3558590302524537,-1.0412852205542236,0.651799350253367,-0.43242948123702707,-0.5237685308964608,-1.028631269800154,0.6123503465539296,-0.5383392692505445,-0.3944152608226742,-0.337227889966782,-0.3252061598189052,undefined,1497375295107
903d185fccf839df,-0.1719470434309198,-0.4419124644471262,1.7579543673775504,1.7810794814824724,-0.6040287549663191,-1.908533105031317,1.8843472887076207,-0.8740187381070236,-0.28129545496143366,-0.31551968520280405,-0.18019473304710754,0.019784783519450868,-0.9784355503565063,-0.07718303970061409,-1.020232559640417,0.5083361879465973,-0.44699287185812947,-0.35984661691141046,-1.0168836245156079,0.39674131746718067,-0.5147101378150608,-0.3845441197696085,-0.1563307421340709,-0.3700050259967092,undefined,1497375296605
903d185fccf839df,-0.20243940500248583,-0.44602155481997974,2.0680276217798887,2.112734860068647,-0.6675943600793817,-1.9116379808684028,1.9597333044566942,-0.36122048134385837,-0.32323038508280993,-0.6863870462564647,-0.36444811038656316,-0.06423624306183158,-0.8783422459893049,-0.027187992671500454,-0.9760219702489762,0.6396758197743179,-0.4656365131546159,-0.11678190858047244,-0.9786040722521264,0.560072627669751,-0.35267903695500247,-0.38678169991730893,-0.1809036793126717,-0.38810106834064373,undefined,1497375298106
903d185fccf839df,-0.33411080635462126,-0.5006139934872573,2.0661139705507305,2.112734860068647,-0.7964741442154563,-1.8957898375979527,1.9683012146164702,-0.34693640650365454,-0.3828766240594615,-0.6943888514770029,-0.255609783730538,-0.03288851445391459,-0.9305648395721926,-0.013300436798353025,-0.8939166236065121,0.4456974949026324,-0.590099913237258,0.0043989692345526845,-0.9199638004170361,0.7113161604721169,-0.24958816556617008,-0.41003778449548983,-0.264157591465366,-0.4423728837705064,undefined,1497375299640
903d185fccf839df,-0.23015977448303007,-0.48124245470726296,2.1401232246879145,2.1338559387928053,-0.9356293418955346,-1.8663925087049742,1.939886152052274,-0.5025622852204347,-0.4248664141438572,-0.6397063985937127,-0.3464360102245878,0.04437732005270064,-0.7826008244206774,-0.0447787966248307,-0.9581272290864952,0.47196537039167774,-0.583188100344922,0.02175123678199962,-0.9645054974486479,0.5823233848532979,-0.2744038976002608,-0.3846900511648186,-0.1795228293010261,-0.45087115684220286,undefined,1497375301108
903d185fccf839df,-0.36876113881001504,-0.4219538814410182,2.039317008192679,2.0909243251931766,-1.0563628543692445,-1.806836189213664,1.9703051201419208,-0.2419405501191912,-0.5720575116283125,-0.3284862671180637,-0.34827079143986417,0.05909525854353011,-0.6607481060606061,-0.04570469930029823,-0.9528640712202773,0.30223416300753353,-0.5188227402123222,-0.06573837821655719,-0.9599435769283321,0.2830084029414959,-0.3663673241454082,-0.3791612540944704,-0.2416757178659236,-0.4148366211415796,undefined,1497375302608
903d185fccf839df,-0.5336969455828529,-0.30748583989537825,1.7949589944461424,1.8403659735274307,-1.182876928534562,-1.7677492244785467,1.9401097005357502,-0.4220398310136471,-0.5350277630230708,-0.374976419119505,-0.4032081381020436,0.027802583690285574,-0.7782489416221035,-0.06514720499836717,-0.9223377025881303,0.07996737423362782,-0.5716015158746889,-0.14505216519209743,-0.9439698572197474,0.2240939480388533,-0.4131156771890817,-0.4012330418691897,-0.27533370708804505,-0.42348368562581223,undefined,1497375304099
903d185fccf839df,-0.3382688807546782,-0.3051378383588774,1.874072080938596,1.7280460460774707,-0.9755789899771508,-1.7950199563913538,1.897154454097295,-0.6851438956013692,-0.632883861256343,-0.342312241754134,-0.36928074118151666,-0.05437473693949082,-0.8348234180035651,-0.10125472853126974,-0.8823376483243444,0.027431594990815586,-0.6154260309723363,-0.15215772604922478,-0.9309627853289908,0.15920489814738784,-0.424843760922237,-0.4258088873648264,-0.3017794355042086,-0.4545793086671382,undefined,1497375305619
903d185fccf839df,-0.31332060688138497,-0.42312795527924946,2.216046384191206,2.24076148666416,-0.7598056375881791,-1.8742560172071223,1.9346160405764332,-0.4894485588246109,-0.5504253797187405,-0.5455232526449137,-0.41294828804559325,-0.010158682462247113,-0.8826941287878788,-0.15680475776224126,-0.9328640183205661,0.00318430791494509,-0.6930498618861424,-0.2312625260716577,-0.9730835864579149,0.06515119206908812,-0.4864282144935103,-0.4769390933113493,-0.469686078970244,-0.48575610774912514,undefined,1497375307089
903d185fccf839df,-0.4838003460781517,-0.44426050982561555,1.9627557108093856,1.992315986959819,-0.8082821271923413,-1.8584707650921382,1.9310868322817196,-0.5400563587415439,-0.5368574717285207,-0.4203279108965372,-0.394944091819086,0.02043364784630703,-0.8696384803921569,-0.2021706346095427,-0.912864031680959,-0.006918718945093771,-0.7440575857175035,-0.3233561943349449,-0.9435920284414429,0.11638181865534072,-0.5189605459809784,-0.5162145891755914,-0.4658349507259818,-0.496920189609612,undefined,1497375308595
903d185fccf839df,-0.554487162308794,-0.397886324974026,1.990828694790492,1.9510714922495211,-0.9224019341957234,-1.8313863726719324,1.8157803606724334,-1.3080054547249935,-0.5130937820276608,-0.4270125843239293,-0.39534314710381196,-0.1482793162197377,-0.669451871657754,-0.15310143197741116,-0.8897060811166235,0.04157571388303954,-0.6856709711646595,-0.2807101520487839,-0.9351188900354754,0.1559404264742426,-0.49096788905212124,-0.5212514551928098,-0.4536861151990208,-0.5143655092557009,undefined,1497375310139
903d185fccf839df,-0.5087486544568547,-0.2986806441515498,1.7751802780833674,1.7216167169008527,-0.8944454087609356,-1.8189249436183812,1.785987285807135,-1.4672359754946844,-0.549598187984645,-0.20329519853230663,-0.33567852256142766,-0.11087810276926063,-0.27778241978609625,-0.16791472216595701,-0.9128639875075563,-0.015001213921400854,-0.6814765602615772,-0.2804441682205502,-0.916941176478939,0.045487378149617216,-0.49983565871758207,-0.5358166681655139,-0.44319919807134917,-0.5060396006394048,undefined,1497375311608
903d185fccf839df,-0.6043836755499709,-0.29750659954131087,2.041869559712688,2.0585640652288792,-0.9615904375276675,-1.844798132275913,1.7672630526728006,-1.6074899373022251,-0.5153467781259713,-0.19316665261890678,-0.35855891544447377,-0.09357623673407622,-0.26037488859180036,-0.16884059893987544,-0.9065482142650091,0.11027642654902287,-0.6117883967624413,-0.2315411791812224,-0.9088458670470221,0.12093975846705457,-0.4659885664475311,-0.49080938253535433,-0.3131153575449435,-0.4885463984028925,undefined,1497375313103
903d185fccf839df,-0.44499193922270086,-0.3879070553919662,2.1860600031178907,2.264370679019125,-0.8581574701253529,-1.864093549143016,1.8703777465206886,-0.949826549922723,-0.5016912319403701,-0.15497141024956457,-0.2282419587484312,0.00008397857519559358,-0.7216744652406417,-0.2623498145961646,-0.9033903166003848,-0.015001185656679319,-0.6646316970159767,-0.22480292509313107,-0.8879254023667137,0.08070362058321956,-0.46886633334545963,-0.4758526233235014,-0.34188970871164726,-0.46813492142858315,undefined,1497375314597
903d185fccf839df,-0.23708977196328937,-0.4471956432722072,2.514635952259949,2.676720262585487,-0.7613176324501564,-1.8237068705004125,1.905824907213,-0.5874320566029907,-0.5205802234086423,-0.40288234493061753,-0.2802326311359132,0.0026345063204007333,-0.7390819964349377,-0.1743955876171206,-0.827600743200468,0.0536994422151394,-0.5718569315271914,-0.1191440918493637,-0.8461264541343907,0.22106045071842284,-0.38093885128206023,-0.46570199667833706,-0.29970285698556376,-0.47165910890867474,undefined,1497375316099
903d185fccf839df,-0.22877365766858512,-0.42312799912123794,2.5458983549563188,2.676720262585487,-0.6277681434270254,-1.841462661230749,1.8874899132743734,-0.7226785595431493,-0.54581887016587,0.22696330350815164,-0.20272179494482326,0.0191983862759199,-0.7390819964349377,-0.14199142872137177,-0.7791796554925413,0.22343050827567595,-0.4991043262361805,-0.007019325508355491,-0.8281236602992358,0.3477588572253179,-0.28890618419013153,-0.514233256807377,-0.2827960744483313,-0.4926686345074258,undefined,1497375317613
903d185fccf839df,-0.19689542082044229,-0.4642190489897351,2.3251463600308737,2.4098814664600776,-0.5234814621602548,-1.839815889665023,1.803564909442254,-1.2621838474545732,-0.5395220390563257,0.3511123411698005,-0.22840350362808007,0.06278197303231528,-0.7608414104278075,-0.1012546896789461,-0.7812849156941349,0.3264814783481256,-0.5617197322877849,0.037817915960119707,-0.8456296801217182,0.45083605096198615,-0.2546197422925906,-0.5254271089121645,-0.3083850075008652,-0.46357799171206365,undefined,1497375319227
903d185fccf839df,-0.20659744489713308,-0.5593155663693768,2.064837948927676,2.077632773819066,-0.5293751755036259,-1.8848424128821508,1.8969309092801452,-0.764274012533064,-0.4918595052104153,0.5475359552985567,-0.13443406567782976,-0.008605620228938302,-0.6302849264705882,-0.056814728457886716,-0.7918112240643369,0.32041965657915794,-0.5345024306529387,0.022378200570217867,-0.8661303358252217,0.5392847244863901,-0.248754186865486,-0.5673989572612032,-0.33995377221450046,-0.49331159467113694,undefined,1497375320599
903d185fccf839df,0.4808657721152553,-0.5123543080636812,1.84919004049445,1.7004933442583743,-0.2334453892246843,-1.8477935337864029,1.8918790510651118,-0.6140687549836363,-0.5627924022363097,-0.29582737380652074,-0.2923352280411447,0.09866344870584902,-0.6041736296791445,0.09872536892976297,-0.7928638541651337,0.49419204078965184,-0.4642677105081111,0.023771446850444196,-0.8583638756970564,0.6904358643544103,-0.21610360612679563,-0.5927500231782246,-0.2463087860737879,-0.48504573163344433,undefined,1497375322133
903d185fccf839df,0.5432364740511934,-0.45365274979555775,1.6469402320348256,1.6374650347081672,-0.2554567818712633,-1.858973881151439,1.9548366140737115,-0.22025953528069014,-0.6058125147142025,-0.3391987825551101,-0.1751175021842326,0.01949624025307995,-0.7216744652406417,0.1255745520990412,-0.8623376175113345,0.4578210253816815,-0.45903210136274614,-0.060444040640867086,-0.8902833269409259,0.632352930029203,-0.27308163678574465,-0.5958278720699776,-0.26978755140295124,-0.4757069556892364,undefined,1497375323599
903d185fccf839df,0.27989367134692256,-0.45365274979555775,1.76561049711588,1.7141915486753156,-0.449259876731812,-1.8543759612764044,1.9150397610713343,-0.5559836200617836,-0.5224598539496049,-0.5272819622764586,-0.18451278326547765,0.024254226223278632,-0.6868594028520499,0.053359492082461504,-0.8960218617214044,0.42347068318105063,-0.5347194642950942,-0.12001803983750348,-0.8954819582481004,0.6748834358402787,-0.30549185894499437,-0.5754561499143752,-0.21164813178040812,-0.4829726881706556,undefined,1497375325102
903d185fccf839df,-0.14006880658277696,-0.40669146226186975,1.6329042483181713,1.6933114530381872,-0.7970912933196611,-1.8243497374924358,1.8907166805529847,-0.7992247710214334,-0.5899893053400174,-0.36428853260688576,-0.10127001045621381,-0.020886927621087646,-0.6389886920677362,-0.07070224547871051,-0.9076008443658059,0.5810781057036519,-0.5421277978653313,-0.17217616435760694,-0.8961886364892003,0.5192975445049289,-0.35851145276122737,-0.561440851028564,-0.1855525880190247,-0.5209482770711721,undefined,1497375326617
903d185fccf839df,-0.1386827932845612,-0.44719555558823015,1.5971756428726342,1.5666563969348657,-0.7202468465421678,-1.810723688072495,1.7943868775462595,-1.3783558044085173,-0.6703043737299047,-0.6160109651860128,-0.13338731931872438,-0.03520727892654484,-0.5301916221033868,-0.09940305268808014,-0.900232404211293,0.6093666261353152,-0.5513194403111836,-0.2014406975780618,-0.8973221193863253,0.6084545412157123,-0.3558446380656328,-0.5595316484500222,-0.19628321566115328,-0.5138841101779984,undefined,1497375328099
903d185fccf839df,0.21890901721460995,-0.485351588922105,1.42108440475411,1.3458549731442293,-0.4043216660366558,-1.8344306857333792,1.8059106909892606,-1.2319066325053216,-0.6764738203450621,-0.47018355401079853,-0.18474095696364315,-0.02590584064432944,-0.6389886920677362,-0.22901979187727184,-0.938127205635719,0.48813010596179807,-0.6982378439405372,-0.23442900064546662,-0.9214471234236835,0.3958636029130997,-0.41710222444606737,-0.5440993641438422,-0.2743692587865356,-0.522107661050862,undefined,1497375329610
903d185fccf839df,0.14960824878759313,-0.4624580039953709,1.3968399939160672,1.342956037672148,-0.4372358959876061,-1.8290641183036178,1.8517771371946248,-0.9238979300259825,-0.6545956181083584,-0.30124882859059704,-0.19933823460693603,-0.1163213659871622,-0.8565828319964349,-0.30586398969872736,-0.9497061441067178,0.48206839725171663,-0.7338578955690094,-0.29117850809146606,-0.914380344774678,0.41560440958483197,-0.4361925767224045,-0.5400656212920344,-0.3900325318676607,-0.4956113357285954,undefined,1497375331103
903d185fccf839df,0.4406713864669985,-0.5692947921094481,1.6909628509617447,1.7485409094393591,-0.16832663541461368,-1.8593255944648543,1.9127912691584599,-0.4867872422927824,-0.4653780937807598,-0.06875228156332358,-0.21769093676371737,-0.03035577843425126,-0.5693585672905526,-0.30401235270786137,-0.950758796294216,0.29617239776800897,-0.7201183797843201,-0.2513569576168455,-0.9265967753664124,0.4332356285034583,-0.42204849529519306,-0.544475928053427,-0.30660000725956044,-0.5241515125225249,undefined,1497375332593
903d185fccf839df,0.2147508738037335,-0.2781350899893089,1.950633632458839,1.810464074785212,-0.22021798034856652,-1.790377786503085,1.839043619919716,-0.8577110687296355,-0.6815700748647531,0.18339294997404212,-0.2377981941326708,-0.09136266728678853,-0.5954698640819964,-0.3345648357604206,-0.9391798210120483,0.31839901163654,-0.6642010428317184,-0.25278820112727646,-0.9186414008062754,0.3806807324855692,-0.42999527741766624,-0.5213745613039833,-0.30693117777753404,-0.5514275520298132,undefined,1497375334136
903d185fccf839df,0.22583918722191793,-0.29398449493858636,1.9940183676427052,1.77590256153316,-0.10137703382533471,-1.7849413424993128,1.8513405903434208,-0.759100873296468,-0.6832672497991644,0.09458913290694033,-0.24779558659642018,-0.02749024844225471,-0.8348234180035651,-0.31604821978704467,-0.9349693226955624,0.304254836214873,-0.6488834529928057,-0.2547387477079364,-0.8988124389775183,0.4460317356192623,-0.41474772359300605,-0.5004073727049945,-0.3301579906425624,-0.5672525164955322,undefined,1497375335633
903d185fccf839df,-0.013941527434324039,-0.34388088669087363,1.8249456296564068,1.72294850776784,-0.09419761073877667,-1.8050333609738134,1.8095108950735577,-1.083445267157411,-0.682145597578162,-0.16436531606293964,-0.2827258401306979,0.11487362036908891,-0.8870460115864528,-0.30771570439424056,-0.910758749392664,0.1830184008355205,-0.6714280107491599,-0.27671406268373655,-0.894684321483955,0.3667451396932377,-0.4409575774007131,-0.4661770873680842,-0.33971822534189733,-0.570772251719264,undefined,1497375337102
903d185fccf839df,0.1399062937217218,-0.3791018158061492,1.4229980559832682,1.404338575577504,-0.13238840101587426,-1.8475792422919803,1.9559043100898648,-0.19204617245307262,-0.6190073855473186,-0.6129596208995038,-0.118460726978526,0.10075024720258174,-0.4692652629233512,-0.3021606768646718,-0.8833902637006736,0.328502151555465,-0.6680889227992081,-0.24029963514349287,-0.8900384388783295,0.5860190070216736,-0.3838974686732575,-0.44882201167522645,-0.15017011478451234,-0.5888273987085695,undefined,1497375338612
903d185fccf839df,0.026252927224752247,-0.418431806066286,0.9381093309485111,0.7920480483918085,-0.4447238752094697,-1.8665532251300856,1.9863574624819733,-0.14448169664311666,-0.550919893912429,-0.8964747084389182,0.013349636525721366,0.08219478663539773,-0.29518995098039214,-0.37622737387211747,-0.8591797345711779,0.20524504296877308,-0.7097144691010162,-0.307409838888639,-0.8945303917792434,0.39410818328240343,-0.4541507669186651,-0.43303368234043055,-0.17088358452278699,-0.5950504245711988,undefined,1497375340099
903d185fccf839df,0.07476353068394252,-0.5311388172315579,0.6095336359434022,0.5543334971897532,-0.42496505654396377,-1.871309531128214,1.9567511104714852,-0.38222937594411066,-0.5189893503264928,-0.6915826863850335,0.08212952161784629,0.014620994324680356,-0.7826008244206774,-0.3753015359505226,-0.8370744361943406,0.23757485328567218,-0.6504818460735963,-0.343089643838362,-0.9128550395447828,0.3348549639396357,-0.48752656060282873,-0.40752047227176097,-0.15652699449669602,-0.5534599843665579,undefined,1497375341590
903d185fccf839df,-0.38400738860661754,-0.4730242155055712,0.3492252248402046,0.42261923223778936,-0.7557942131364976,-1.8053268425248588,1.9029715746450317,-0.80179181889928,-0.43899106865997345,-0.5678910416106374,0.12651684301798677,-0.1229952508511624,-0.31694936497326204,-0.43825824265270347,-0.8591797419334117,0.13654437269987205,-0.6594652648901411,-0.417685388637965,-0.937987584782694,0.19140304815445222,-0.5590038221406513,-0.3875977980943384,-0.12673639408091247,-0.525306179572422,undefined,1497375343104
903d185fccf839df,-0.2786702744259911,-0.4683281247485925,0.30583998138243945,0.42261923223778936,-0.7111028592902959,-1.6766852890029458,1.8725236860499377,-0.8091961012408658,-0.33338795335309124,-0.4821667752504035,0.06894605527906598,-0.09635154253592679,-0.4649133801247772,-0.49751159766850506,-0.8928639861434815,0.05774067557093217,-0.7385042388236305,-0.46541678427074834,-0.9537024213877707,0.13884815268851777,-0.5957898795310781,-0.41691906371575194,-0.11057230552502458,-0.5300625645066707,undefined,1497375344595
903d185fccf839df,-0.38400728509038834,-0.5892533312735676,0.37984974379352193,0.4232798993550082,-0.7609987750497574,-1.6019260282118177,1.8517035084590125,-0.8667471186737652,-0.236780814067269,-0.48615489161684966,0.0953638870560222,-0.08468938961877999,-0.8261196524064172,-0.5419516754465353,-0.943390363501937,-0.18877351333773018,-0.8758207321442792,-0.5456425144049931,-0.9734894022962143,-0.05441773622898518,-0.6777826693989415,-0.43518976679223775,-0.16426002061990036,-0.5268570932371541,undefined,1497375346144
903d185fccf839df,-0.4297457929423276,-0.5552064029265424,0.3358268707296535,0.4164733640967855,-0.6042138963327042,-1.648799638934641,1.8447713381486677,-0.9436632061639854,-0.26698425280821475,-0.507362800914598,0.07343966777858321,0.10040891988193999,-0.8217677696078431,-0.6206475361604059,-1.0023378074345852,-0.37466939976255165,-0.9265764862102955,-0.6732893283734986,-1.0024212154853716,-0.4498960138973033,-0.8175762170876427,-0.4396412063192621,-0.5681114481665128,-0.5205148402363818,undefined,1497375347598
903d185fccf839df,-0.5045905800567977,-0.5563805498347546,0.4602388519090306,0.3976020390694393,-0.7333816828025896,-1.733509411266361,1.8295579109699316,-1.1919846440485493,-0.22405491712440154,-0.6324837680131794,0.03798040977359945,0.04191300755486268,-0.7129706996434938,-0.6299058635732557,-1.020232559640417,-0.4736791930086516,-0.9501308496424827,-0.7022245485338026,-1.0159530476352265,-0.4901783460270303,-0.841513822351191,-0.453631981162763,-0.5760087902433482,-0.5277602146741096,undefined,1497375349097
903d185fccf839df,-0.39786748708336533,-0.6737836079150168,0.427700681726555,0.49775988097283563,-0.745734805159846,-1.8586757388495778,1.9192579679220656,-0.7669794121420797,-0.2357798033969653,-0.5530753036304484,0.018154295754239075,0.03493291004469021,-0.7564895276292335,-0.6382383789660598,-0.9591798371005906,-0.3585045087364629,-0.9447872363548844,-0.6492051434631804,-0.9830400491306446,-0.3858538752475048,-0.7891979136654697,-0.434081043267316,-0.4686199848183894,-0.5152002016373148,undefined,1497375350600
903d185fccf839df,-0.36321718913338125,-0.5980585562453884,0.4289764492126605,0.48299729132476915,-0.8172203976607033,-1.8344097239163932,1.9044863508677878,-0.8198370246441051,-0.315498732078387,-0.5051981452803415,0.0031086229580424758,-0.06474510018188934,-0.865286597593583,-0.626202524837651,-0.9212850798495673,-0.3423396601074564,-0.915326097590758,-0.595552444639389,-0.9594188146200184,-0.3057357651924909,-0.7473774831670209,-0.3787580685408295,-0.22030662777571844,-0.445924895287444,undefined,1497375352100
903d185fccf839df,-0.35767306692969875,-0.65499909874714,0.5355243818062185,0.5946637589162317,-0.9346521978101335,-1.872844499869277,1.9100641666329854,-0.8470101415501583,-0.3089185468215779,-0.44973430331634345,-0.0010553127829798757,-0.07566461462042205,-0.7173225824420678,-0.6336092023088603,-0.9381271909112515,-0.3120305371302575,-0.8952643862652376,-0.5937855542281899,-0.9555285873994451,-0.3045654838905277,-0.7464463870971454,-0.3663796486699114,-0.2309667364411773,-0.41996506461188376,undefined,1497375353592
903d185fccf839df,-0.4505360959317931,-0.5499233117854385,0.9145028038535209,0.9481873581295859,-0.9538864561253337,-1.9038024184198394,1.9192421807211095,-0.8242008457938257,-0.33615356480246716,-0.6572787064424955,0.02335633718808185,-0.06193770266081312,-0.7782489416221035,-0.5271382816517931,-0.9023376717751205,-0.27768025145906966,-0.8759403791937933,-0.544090943934872,-0.9210902838056605,-0.1847963747381302,-0.6940717383999454,-0.3486627019431946,-0.20038112272096065,-0.4156436780128737,undefined,1497375355107
903d185fccf839df,-0.5018186569765954,-0.6685004437039319,1.1990563882056098,1.2215323915611302,-1.0168452091441766,-1.9634821861391056,1.9734319611740438,-0.5614019504888612,-0.2726170142620323,-0.3141260696821358,0.06519126646187827,-0.003988138346099947,-0.7956564728163993,-0.451219934702707,-0.8865481908142331,-0.1928147184288014,-0.7912133444638834,-0.4409716228774718,-0.8712380055936393,0.009716788839401172,-0.595390061573019,-0.34364140022913997,-0.132924796723772,-0.37334179714044485,undefined,1497375356600
903d185fccf839df,-0.3479710083475982,-0.6955031482315119,1.3942879506699573,1.3987264371149941,-1.0061069442087376,-1.9413404376167889,2.010364962394598,-0.29382039071694505,-0.28111722734110534,-0.22917971488748717,0.1401321751756566,0.026668177261623245,-0.8261196524064172,-0.400299108030484,-0.8697060576658474,-0.15038190951658498,-0.74409501855312,-0.4104025035861375,-0.8623240690444686,0.031182220149122728,-0.5686778480613568,-0.3513893473793449,-0.14915462365019247,-0.37131066014125513,undefined,1497375358139
903d185fccf839df,-0.32579469205991696,-0.7641839760816951,1.6054696563540163,1.6654920954873944,-0.992262392398022,-1.9108064409599554,1.9304109727915626,-0.8041279610788588,-0.30631298054384454,-0.1656929040991971,0.21423735283560727,-0.052386461109094874,-0.9349167223707665,-0.2632756654685339,-0.9339166852325318,-0.010960008830329618,-0.6819633411338313,-0.4056274625141909,-0.8918995893725816,0.081966293150202,-0.5615505236691588,-0.42331158790297296,-0.26148446006055337,-0.385231924534022,undefined,1497375359610
903d185fccf839df,-0.43113180624054337,-0.7407033761568396,1.746469918633107,1.7182938897303721,-0.9426030428631933,-1.907028414802715,1.934347787529119,-0.7627701714760354,-0.3355883662472314,-0.7793318186658709,0.3465735896361368,0.06076920605493672,-0.8826941287878788,-0.17809892635272523,-0.9244429922386591,0.15472982387441417,-0.6145927981198542,-0.3317220078113637,-0.8740367311065518,0.2499941320275125,-0.49187954873967515,-0.4091060236161417,-0.18721026181242664,-0.37148258289932107,undefined,1497375361131
903d185fccf839df,-0.40479751906903433,-0.6814147736626025,1.5193380697293366,1.5388627152089902,-0.8677848792444975,-1.9326407297573756,1.8886996092498674,-1.0583460594058962,-0.40582244429956565,-0.9273979052408547,0.3791013200265677,0.0497559162226243,-0.9436204879679144,-0.0308913314071051,-0.8770744683714251,0.27394578389947793,-0.5604734278156037,-0.2762644195578255,-0.8280606871111738,0.3901661810596817,-0.4279089334722085,-0.4272489548589621,-0.13515703268233825,-0.377295949292236,undefined,1497375362600
903d185fccf839df,-0.4449919737281106,-0.6203651554019934,1.1786400422367316,1.206546289533482,-0.9281413518008392,-1.9255225739066497,1.9110661034210028,-0.9153859611388341,-0.3980325362024604,-0.7854110495635485,0.30515798630348334,-0.0670781794679447,-0.8957497771836007,-0.016077989415461062,-0.8781271205589234,0.2941518941489987,-0.5009184299663251,-0.28112812037957596,-0.8304815831851391,0.3525323794600582,-0.43414303608912547,-0.4346774134316915,-0.1218116630547067,-0.3382079013320296,undefined,1497375364101
903d185fccf839df,-0.33549688866365646,-0.6233002450065966,0.9776660012632127,0.9384771225313102,-0.8770214417167437,-1.9538158429509946,1.9964112042660564,-0.3768524428795006,-0.3988370109219948,-0.7213610009899544,0.2480537738887973,0.03961502121115608,-0.7826008244206774,-0.08644136063807661,-0.8918113339559833,0.2961724825621736,-0.5171193279748607,-0.3512781370123567,-0.8562158533448754,0.35376425450341953,-0.47618350939457016,-0.45053476944860066,-0.14587141080928773,-0.36860728005648735,undefined,1497375365624
903d185fccf839df,-0.31747871578685166,-0.6773057125177413,0.4130263059929491,0.46687100847402246,-0.7066285868220581,-1.9619774974326722,1.9583421447095564,-0.6108704542206707,-0.3710286726156757,-0.594152414534478,0.1705977884462535,-0.11125078962680571,-0.4692652629233512,-0.35215574331994726,-0.9560219615226677,0.23757476849150758,-0.5531280228641647,-0.4553410680286347,-0.8974900403883069,0.2681642955943972,-0.5585902866447577,-0.4012441688819378,-0.15335184812159416,-0.33988954289028234,undefined,1497375367111
903d185fccf839df,-0.37430526101369754,-0.7465735115240573,0.5501987575398245,0.5448984426210147,-0.5942882058324421,-1.9916287122293237,1.9263610759813086,-0.821579635072463,-0.316396931025899,-0.46477348388419815,0.21321825954566034,-0.14309179917523585,-0.13417028743315507,-0.4299257402106739,-0.9665482772551035,0.13654441509695436,-0.7055097606647683,-0.503553769368563,-0.9120014265135592,0.1585119653425316,-0.5998314596734594,-0.3889710972230327,-0.27568113052230947,-0.3574927740805061,undefined,1497375368599
903d185fccf839df,-0.13036664448444724,-0.5563804913787699,0.45258297630765065,0.5567536172236661,-0.6318721442233741,-1.8809549105893797,1.9002208044121451,-0.845530015975494,-0.3070104423744175,-0.05808355340897244,0.16420658446875622,-0.032925532004948334,-0.34741254456327986,-0.5493582752130973,-0.9707588050205245,-0.0372279125840965,-0.7933728102647981,-0.564236038929819,-0.9160245938381342,0.009393416328964527,-0.6564140487785676,-0.38984643312538586,-0.36637171157084886,-0.41572671271069656,undefined,1497375370092
903d185fccf839df,-0.3022324659902492,-0.5370089672127718,0.5712532413887049,0.5933675616792611,-0.8786363019472926,-1.8673498246934286,1.8954476938415181,-0.9238267537990393,-0.23646950563509114,-0.00026111775707476665,0.11023605937647309,-0.005308200707477899,-0.6476924576648841,-0.5521358213548181,-0.9665483067040386,0.031472800081886826,-0.8289657587021928,-0.6148995880721213,-0.9452782610127295,0.13570687102908316,-0.6570737612085004,-0.40090796079419205,-0.4985674348782365,-0.4955883645438833,undefined,1497375371632
903d185fccf839df,-0.28975831180089767,-0.5311388172315579,0.4742753438995838,0.44738864905433695,-1.0007892352929255,-1.8614382157628193,1.890558890773883,-0.9900549454834816,-0.2077643404094325,-0.10759914778875453,0.06574168858910433,-0.03184514403409033,-0.8174158868092692,-0.5743558472930588,-0.959179859187292,0.01530786665871573,-0.851475931205357,-0.6127907175064232,-0.9529257762001456,0.09015826915664614,-0.6656923988939187,-0.39657558802607756,-0.5312835333409592,-0.5387999423187024,undefined,1497375373114
903d185fccf839df,-0.3479710083475982,-0.7160487023937528,0.4742753438995838,0.45365190497714764,-1.0563834280719226,-1.9553345078198423,1.9479570283098997,-0.7511878560921041,-0.3010587476534401,0.09855825044644309,0.08612065571114101,-0.028425877404484358,-0.6215811608734403,-0.5438032865358522,-0.9497061514689517,0.09815286780525223,-0.7855126505180586,-0.5775225537351675,-0.9378756362735639,0.1919881885294565,-0.6233428523074317,-0.42398730001546797,-0.5135295113817405,-0.5475129724548985,undefined,1497375374596
903d185fccf839df,-0.37291921321007204,-0.5681207767272015,0.5482845980367674,0.5836197779830099,-0.8714980230432516,-1.9374645846890266,1.9415481894125814,-0.7317980508010209,-0.33998162454467246,0.3533690730555557,0.13085828527885837,-0.047547008899605045,-0.6215811608734403,-0.5975016658251833,-0.93075877284344,0.053699413950417864,-0.8136367717047459,-0.5755213439926549,-0.9188373145020655,0.1639784177031285,-0.6285428208077135,-0.4259041606887288,-0.46130569756798284,-0.5670112821242891,undefined,1497375376113
903d185fccf839df,-0.4879584204782087,-0.5992326008556274,1.005738985244319,1.123119372298274,-0.8666328886581378,-1.9390414799321718,1.8915555784301912,-1.045940395588363,-0.348166796262929,0.34920985743638716,0.08784142760147731,0.11045051888863311,-0.6825075200534759,-0.5363965961138684,-0.9149692624336174,0.3527493538371709,-0.8060723186838585,-0.5522984401809852,-0.9106160609328687,0.28582631398867964,-0.5998949980276226,-0.4260736295910648,-0.4206218942421635,-0.4871536319849111,undefined,1497375377601
903d185fccf839df,-0.4089555589636816,-0.5481622814050705,1.4210838964802113,1.4329636246692403,-0.8362900778454707,-1.9298293383032028,1.8904300235952727,-1.017009548748275,-0.31071337473724947,0.18804409497558772,-0.04123560179323955,0.14806852854230687,-0.19509664661319073,-0.4669591016651713,-0.8781270911099882,0.5063155430039794,-0.7597411926535846,-0.5161309975161364,-0.8747224193309817,0.4109694770881682,-0.5479225411010119,-0.40131986674200243,-0.3336952900474748,-0.33869817525890683,undefined,1497375379113
903d185fccf839df,-0.289758277295488,-0.37968877234828596,1.3253822747510944,1.3741490822905245,-0.7306662541812349,-1.8002164915567487,1.8571682463415993,-0.9603089437128919,-0.2567740696633847,-0.2755772258870082,-0.05243960174136691,0.04621491587542405,-0.4300983177361854,-0.45121990880115787,-0.8697060503036137,0.38912039750986277,-0.7225022361216334,-0.4668353645292773,-0.825660781628882,0.414695903174762,-0.5171527906107434,-0.40864019728752493,-0.28532610700683064,-0.288495863695381,undefined,1497375380595
903d185fccf839df,-0.24956392615264086,-0.3262704075192397,1.2201106179175407,1.2274179665996492,-0.7231165515747435,-1.721588363156737,1.886080336522816,-0.6443244525063201,-0.277302523982715,-0.46744283446633206,-0.07245345683588356,0.010186296206632556,-0.9044535427807487,-0.4169641129145431,-0.84970601212837,0.5224804198977074,-0.6757168524612573,-0.40665973540091865,-0.791824203427936,0.6376961925107125,-0.44603083108528657,-0.427821312749957,-0.2542987120239338,-0.2759083592754149,undefined,1497375382124
903d185fccf839df,-0.20659751390795256,-0.34505485823113174,1.3087939936513808,1.400051327519039,-0.6305041366366843,-1.668716961559373,1.8554667739758386,-0.7274195246425994,-0.38960417699385147,-0.660455776061185,-0.06916585291902971,0.053660306286140144,-0.8174158868092692,-0.371598197214918,-0.8381270515706699,0.6174491211116223,-0.6587103477868776,-0.37063161999400895,-0.7899280668300851,0.7409581668657714,-0.40783832137961484,-0.40017453900191036,-0.21926291447687235,-0.273842706223145,undefined,1497375383636
903d185fccf839df,-0.06660992925029342,-0.4894606646809624,1.5550666751748736,1.527811391648824,-0.672788638948294,-1.7885842709802318,1.8832743393696711,-0.7409505344319207,-0.33313512293245456,-0.43252774424375834,-0.05030817403768793,0.1092838260260412,-0.5693585672905526,-0.26605317923331834,-0.8328639010666858,0.4012439279889119,-0.6421553790758557,-0.307232519051295,-0.7729957847042722,0.9208736039717507,-0.34005988448622465,-0.4290764163061845,-0.21060499216499165,-0.3167407005164384,undefined,1497375385100
903d185fccf839df,-0.17333305672913554,-0.47361125973168494,1.4880751587590677,1.490665521236269,-0.7068857260511872,-1.8436032319605162,1.9062825076809795,-0.6911692400695145,-0.4079970015585238,-0.4969854609613701,-0.14574067470747568,0.10313696966121871,-0.8174158868092692,-0.29382817442264225,-0.798127034118053,0.44165617675267504,-0.5749447599597863,-0.30993035253188067,-0.786590587742174,0.8094042592573436,-0.36260135177013764,-0.4274994066576415,-0.22577319755974212,-0.2746781616334549,undefined,1497375386595
903d185fccf839df,-0.17333316024536477,-0.43193313640908176,1.3292105937572085,1.4764751012518782,-0.8233403897532053,-1.7962847383691538,1.8460546733349916,-1.0568339697833478,-0.42657722887870997,-0.4637810753843016,-0.11256065783683607,0.011950252694868189,-0.8130640040106952,-0.35863653106646354,-0.8318112783281227,0.49419204078965184,-0.5755433547102641,-0.37248716968439516,-0.857545247998682,0.6238375927802754,-0.4424068555975657,-0.44479653522171736,-0.24937808415108526,-0.34813613407152894,undefined,1497375388115
903d185fccf839df,-0.4713262954050294,-0.39729922229192755,1.1314269880467511,1.1864822998565987,-1.003124088098548,-1.8126546311478429,1.803683243789226,-1.4412793027438264,-0.4157407117777394,-0.5824394012584243,-0.0878970978743445,-0.00989221485675718,-0.847879066399287,-0.3558590302524537,-0.8486534188387421,0.33658459000232904,-0.6256246153369609,-0.3794977371781049,-0.8612185737517569,0.5435654944205782,-0.4606189528034204,-0.46184421744806187,-0.2758103780377805,-0.35704360177499184,undefined,1497375389600
903d185fccf839df,-0.17610508332556707,-0.333314558268704,1.274979547708901,1.3690642624078087,-0.8291003785383425,-1.8227239308319765,1.8658623729260868,-0.9717818901374081,-0.4251584496149759,-0.6809153114106336,-0.1890140853316273,0.07479304075189143,-0.47361714572192515,-0.3225290204843355,-0.798127034118053,0.3628524654913744,-0.6633421521488325,-0.3490616098645591,-0.8527664269406612,0.5388997670658304,-0.4409982417649209,-0.4375703749173609,-0.22191639630111487,-0.29053030616376935,undefined,1497375391144
903d185fccf839df,-0.20521146610432706,-0.4624579747673786,1.6973432132139685,1.8334662943953843,-0.8358683632806366,-1.8822429802587566,1.9856710780165916,-0.24843153195303355,-0.30658900765801345,-1.1812837951821828,-0.126478031703348,0.04366862221419553,-0.5345435049019608,-0.34937817775206464,-0.8086533572127225,0.33456400158915417,-0.7261433626799457,-0.41717875223576045,-0.8336651337244633,0.43734701794749065,-0.4855236763116835,-0.46159023479325645,-0.38434185624291956,-0.33190785251947846,undefined,1497375392601
903d185fccf839df,-0.20659744489713308,-0.6209521996281072,1.847914018871395,1.8468145218986078,-0.8354980730899241,-1.8735013441463142,1.8994186944528193,-0.8030218258697457,-0.35638706042217994,-1.398070813441616,-0.21631816702359832,0.10145886089219659,-0.6825075200534759,-0.3577107060956433,-0.8044428147228339,0.32446091819967227,-0.7379650075240413,-0.42113684162441717,-0.8300197952882997,0.4753965805762591,-0.486674262025081,-0.4204182163922459,-0.3141866234492638,-0.35138202524426937,undefined,1497375394105
903d185fccf839df,-0.38400731959579804,-0.5816221362979895,1.7534881646283837,1.7347540137531807,-1.024724043921259,-1.8527035674622598,1.8863301526627965,-0.9029377420387918,-0.44068120507420266,-0.8555470182904076,-0.2757316065044867,0.018589222351715364,-0.843527183600713,-0.36233990865439186,-0.8097060020379869,0.41538821646946505,-0.774400176343515,-0.38381047191099554,-0.828354554740079,0.5093347547841307,-0.46175025069133585,-0.40929189691541434,-0.33804324226390653,-0.37144265253235875,undefined,1497375395649
903d185fccf839df,-0.37014718661364054,-0.5640116571263556,1.680754932114255,1.655000386222225,-1.0437937354969933,-1.835010665566082,1.8993371841632296,-0.8289467356753627,-0.44148315626292445,-0.34900858164195425,-0.2758528921277296,-0.03557457759889548,-0.8348234180035651,-0.32623235921994015,-0.8044427999983662,0.47398590227540954,-0.7267565599918933,-0.3377573077313508,-0.8131924655580853,0.5828777291586106,-0.4218532813666138,-0.40937156451860574,-0.33163999217319323,-0.37665666720253893,undefined,1497375397108
903d185fccf839df,-0.004239296325174835,-0.4653931082139702,1.9455292918296698,1.8492803441584897,-0.8860625721702754,-1.8259196460145852,1.8904352905348525,-0.8272040964602165,-0.4235870571051495,-0.35519179539125645,-0.24191840666753892,-0.022678661338876825,-0.7956564728163993,-0.22809397985722615,-0.8360217766446086,0.5002538060291765,-0.6195269328976438,-0.2666573474430282,-0.8008920714435318,0.6927918317041435,-0.37107739299131126,-0.34667313076259443,-0.144292529081262,-0.3063650121716791,undefined,1497375398599
903d185fccf839df,0.015164889849845698,-0.5364219522146504,2.056543427172395,2.0710398646242756,-0.6793612035009549,-1.8659406359419901,1.9099563478335413,-0.7126311628383215,-0.3827158703078722,-0.1288003761143487,-0.21257148803153514,-0.15359494951985533,-0.7782489416221035,-0.2956797984627337,-0.8865481908142331,0.3810379025335557,-0.6889518438869782,-0.2664356945804194,-0.8586577411482879,0.5685879706536225,-0.4050762656070639,-0.3258588517258024,-0.19597152426934908,-0.31891692583055126,undefined,1497375400104
903d185fccf839df,-0.08601421894154317,-0.6679134579338029,2.1541594625415184,2.2560119863281294,-0.7222936987184232,-1.8867803391195188,1.996540072492189,-0.19648312268528917,-0.3103109793474808,-0.3227792981491186,-0.11218238012181708,0.012117300001911071,-0.678155637254902,-0.22994568160196482,-0.8991797741104962,0.3123373029264585,-0.6110860149075568,-0.22438494886705343,-0.8663612301314895,0.5176345149545689,-0.3959958229152413,-0.32245873387425816,-0.19112250876743053,-0.2720073264335117,undefined,1497375401961
903d185fccf839df,-0.47409828749605115,-0.7430514069213329,1.948719472955782,2.0656181479733586,-0.9592555849341002,-1.9246793908342188,2.0037220631326016,-0.27976854136874946,-0.31206382147570755,-0.14496263444581592,-0.06927234696531587,0.03575814514309918,-0.4213945521390374,-0.19291226834436928,-0.922337680501429,0.32244030152177583,-0.5782701483006707,-0.21833065365950022,-0.8780738911964916,0.5105050359110838,-0.4005408266932196,-0.30444071604379297,-0.13731553060056892,-0.243275544699465,undefined,1497375403085
903d185fccf839df,-0.46439615990313116,-0.6743705790711496,1.366853104568853,1.375192350978588,-0.9728841325558226,-1.944412705056633,1.9296351608668731,-0.8100774195522938,-0.3185593267413139,-0.13445311365712007,0.020008257845495356,-0.0178644994502284,-0.22991170900178254,-0.2567948000173703,-0.9265482303535514,0.2355541518136112,-0.6719847541219034,-0.30784681091719235,-0.8807326790543613,0.4995721377729594,-0.44072583550317906,-0.3764145198024571,-0.20979556838287824,-0.26718018643903413,undefined,1497375404583
903d185fccf839df,-0.2703541256258772,-0.5135283380599239,1.0389152933067969,0.9877085713797238,-0.8250478111364645,-1.8893168803228797,1.938634358794687,-0.6462121246210929,-0.3028067939891654,-0.21956531686624492,0.056212588889057565,-0.03191017100087199,-0.45620961452762926,-0.34937816480129014,-0.9433903782264046,0.01934921307339465,-0.7363493546434653,-0.4378621432354196,-0.9207194537528728,0.4539465421789744,-0.5178645894943418,-0.4810498474518144,-0.46442456620314565,-0.4647038235321666,undefined,1497375406080
903d185fccf839df,-0.2564939236329002,-0.398473310744155,1.3081558557713786,1.260417346643981,-0.6726137841071632,-1.8659103552980398,2.007927124632341,-0.11706521148631387,-0.29526565463206217,-0.15899775843834596,-0.03094580007789596,-0.09957688678260933,-0.6825075200534759,-0.3678948714300879,-0.9044429393389479,0.34668758859764637,-0.6370129706506902,-0.5266246828032719,-0.8872677017833995,0.6169698814936596,-0.5232209278137951,-0.443707409783253,-0.35361305321585185,-0.4113150883495041,undefined,1497375407623
903d185fccf839df,-0.2745122000259341,-0.4243019560474999,1.3062422045422204,1.3379970221123452,-0.7554342163648349,-1.891028870517846,1.9164808938931728,-0.7706227908510951,-0.27622786089695556,-0.15626137093015716,-0.06237232957814605,-0.014514159904170664,-0.7216744652406417,-0.3743757627828006,-0.9107587346681963,0.41336765632101174,-0.5962670511431749,-0.5135091566577865,-0.8724484558939347,0.7695684781414894,-0.47868082454229954,-0.4653049908099055,-0.40270668755398276,-0.4196608872034844,undefined,1497375409434
903d185fccf839df,-0.15392887055411503,-0.5528584013900416,1.3955637181560627,1.5178694434437172,-0.8165209705041506,-1.941063258513191,1.895971037301045,-0.9739325940680521,-0.27032652495380594,-0.11953482520310402,-0.12836730437162897,0.049405974160480176,-0.6563962232620321,-0.4151124370713535,-0.9318114103064706,0.5507690251235353,-0.5532192669396873,-0.5214443360876951,-0.8854135461119792,0.7820104220217017,-0.47919529380518894,-0.4730765648314765,-0.3916215742852824,-0.47191378007691265,undefined,1497375410601
903d185fccf839df,-0.21075551929719008,-0.5645987013524694,1.504025810252678,1.5949178957032686,-1.0137903472371763,-1.9466021891105025,1.9363674828743294,-0.7456307647504369,-0.35632326744856413,0.07337024448376277,-0.14207329925513848,0.036114202000447626,-0.5998217468805704,-0.39752155541337597,-0.9002324115735268,0.8154686793391005,-0.477884332120778,-0.48814571881331814,-0.8968743228785119,0.7667043669788469,-0.46984197398015975,-0.4342869515114367,-0.3312699373039795,-0.43760647469977093,undefined,1497375412101
903d185fccf839df,-0.35074296593321025,-0.6191911692477392,1.8912987540552613,1.85949318796468,-1.0572165630663546,-1.947007476491588,1.9031267335731474,-0.9734522585401437,-0.3672959525116994,-0.25157993158258224,-0.002574930190107691,-0.0507585656044194,-0.6172292780748664,-0.4317774160538635,-0.9244429775141915,0.8659838984334595,-0.522959477534974,-0.47164206878595444,-0.9137926113886884,0.641114645393904,-0.48921486129929354,-0.43470309251949063,-0.36938108745848436,-0.39864372357863986,undefined,1497375413606
903d185fccf839df,-0.49350250817648145,-0.5816221362979895,1.5442203643104322,1.521476043428577,-1.0183983421751044,-1.904461593249871,1.9497584525864327,-0.626438011922281,-0.3683040993526064,-0.41282871933137344,0.10850348772975763,-0.27040725091934004,-0.12546652183600712,-0.44659073214395845,-0.9233903400511609,0.6477582299564604,-0.588698312317596,-0.46119904625095826,-0.9071946184016606,0.5715136754095779,-0.4948595916094452,-0.4213293386751411,-0.4313139269166556,-0.36852759017123926,undefined,1497375415095
903d185fccf839df,0.15515244000209508,-0.5552064321545348,0.4442887086893192,0.5610227179313063,-0.6491726813386969,-1.8424502573168038,1.9479254780009885,-0.47738036432442454,-0.1840145959531815,-0.7446843044406246,0.1624334595649102,-0.3331526054367556,1.3628773952762925,-0.4836241065492304,-0.9076008443658059,0.5002538060291765,-0.6913787281741173,-0.5480363691968336,-0.9175149146955589,0.5364514157476497,-0.5356106953528863,-0.4401413008547435,-0.5041146015079806,-0.460067413577552,undefined,1497375416607
903d185fccf839df,0.12881815283058606,-0.5434661614200994,0.13421520015003144,0.11281174066647162,-0.6027739036045836,-1.8267069299348333,1.9455823204960756,-0.4692399889751256,-0.27575762411365845,-0.5929980673888252,0.08987721146498291,-0.26591983170748634,0.7753732174688057,-0.4327032280739092,-0.914969277158085,0.522480504691872,-0.6892319237137655,-0.5426660331743353,-0.9374978068162655,0.44869567125865517,-0.5597633015274041,-0.4178232402806487,-0.4712652624012544,-0.4237526593285178,undefined,1497375418106
903d185fccf839df,0.11495791633219933,-0.4237149556633747,0.30839253290244806,0.2510401736073168,-0.441000461607817,-1.8187735417142183,2.037328368209253,0.19453674222079376,-0.20123397060828924,-0.5464414792115004,0.19367426437886537,-0.19083011173067624,-0.9088054255793226,-0.41974156192545475,-0.8844429306126395,0.45377979202588875,-0.689743828511862,-0.5016348902580128,-0.9057042985657852,0.4859753080610596,-0.5313150268621137,-0.39329200458125807,-0.3832389267393328,-0.3667239961993763,undefined,1497375419628
903d185fccf839df,0.17871463156635314,-0.4401513463827812,0.9030188633829763,0.9194419896166912,-0.6131521725305585,-1.8285214075125114,1.9786153132285862,-0.26269928297374817,-0.14411107758463984,-0.17553290152125003,0.254802870330911,-0.032744756479350635,-0.9305648395721926,-0.46603325079280195,-0.8833902637006736,0.506315627798144,-0.7132703068627703,-0.495567930320268,-0.9202576652810295,0.6734975759116607,-0.4985254824447299,-0.39641462017512574,-0.31703741859915957,-0.4067448923892697,undefined,1497375421127
903d185fccf839df,0.1773286182681374,-0.5839701962904751,1.9219230188716292,1.8600038831140733,-0.6232321565564994,-1.8629522214089091,1.9950358175783307,-0.19034628016594587,-0.3293257388302415,-0.09107605295467479,0.21224750609575452,-0.07522097153519554,-0.8391753008021391,-0.3919665408345817,-0.816021775280534,0.4901507791691376,-0.5136324557822338,-0.42374601791313876,-0.8490931019093995,0.7406963885409892,-0.43261538094691393,-0.3801861058466678,-0.23717743585721485,-0.3594950423347831,undefined,1497375422583
903d185fccf839df,0.2618755329755275,-0.6919811020847721,2.13119107332653,2.068563093249837,-0.6349887074332508,-1.8742560182182775,1.8282324832153622,-1.283548672356308,-0.3962994696992362,0.5510173518863766,0.09146750882765947,-0.1152869630103888,-0.41704266934046347,-0.11236474473808368,-0.8276007358382341,0.627552034912775,-0.41109275993290467,-0.21477154208113883,-0.8542147670796352,0.8999779046294781,-0.3142380497339325,-0.43554008328879246,-0.2147902853254395,-0.2862408630008213,undefined,1497375424083
903d185fccf839df,-0.16224498484881927,-0.5422921606518489,2.038041494843523,2.156399189211734,-0.5407614361296488,-1.8080963084382713,1.9646694686034372,-0.22720778500774216,-0.4430888185040626,0.650169701998904,0.11846186346151007,-0.12022678730366441,-0.28213430258467026,-0.08181218398087717,-0.7960217886409269,0.9447875249005955,-0.34839674067468285,-0.05986774026365132,-0.8125277674359641,1.0323275409113313,-0.20845507336893998,-0.3739422582846187,-0.07256766905360403,-0.0952140255193204,undefined,1497375425588
903d185fccf839df,-0.33965485954748426,-0.5962975112510243,1.7273298484242332,1.7189131517027245,-0.8570774764955013,-1.769668520098392,1.9134066630718671,-0.614439507277763,-0.3374779112512022,0.021915277426710823,-0.02253761850310504,-0.1841000687861941,-0.8000083556149733,-0.09292221313846565,-0.8476007592890101,0.7407061731688711,-0.43805513795518025,-0.014802511516136955,-0.851458023159913,1.1232861635743943,-0.18281405028353834,-0.4212166508975419,-0.11354114747306121,-0.1642752578446694,undefined,1497375427092
903d185fccf839df,-0.5725053351855988,-0.5276166687868449,1.610573742846236,1.6252848666504565,-1.0207537765474533,-1.7936759875249446,1.9422109245021824,-0.5559637688712253,-0.28300449135826716,-0.7330668341808001,-0.016274180104353008,-0.12998396233589019,-0.35611631016042783,-0.17346971084320215,-0.8812850255857814,0.6720054887676093,-0.5342653164432984,-0.02353564162793054,-0.9092236943449978,1.0082135843083444,-0.22122679312938257,-0.36542924888314193,0.0010253749273413195,-0.23154544069162009,undefined,1497375428603
903d185fccf839df,-0.5849794893749503,-0.43310716640532454,1.6233339590767848,1.5549948174598762,-0.9187093749104633,-1.8327186955547219,1.9104849320446031,-0.7798094469196698,-0.3416887633677133,-0.32710922866377995,-0.09643877708929957,0.019705770863361994,-0.4300983177361854,-0.06051800243961863,-0.8802324028472184,0.6093666261353152,-0.54795328109842,-0.041229885631383585,-0.906501935274877,0.9203038596997513,-0.24118917893829128,-0.3823695469964752,-0.03952661291238687,-0.23907561738692093,undefined,1497375430182
903d185fccf839df,-0.5032045667585819,-0.4090395222543553,1.4517089237074274,1.541100774550514,-0.8140935504662346,-1.8378896059134582,1.9701078885484737,-0.3474353949381108,-0.41126778832140004,-0.23317961111516167,-0.15509811725679656,-0.02509908995517549,-0.4475058489304813,-0.14291722779064292,-0.9012850563987912,0.5790575738199202,-0.5464023915754024,-0.1462934205250865,-0.9233082745235248,0.8280825711066242,-0.3096038968791831,-0.4676940683925557,-0.20430680446493618,-0.38624792936010904,undefined,1497375431603
903d185fccf839df,-0.5849794893749503,-0.49415684312191815,1.3209160720019275,1.2773297288492746,-0.8008661479117632,-1.8630290846590658,1.9113580236519683,-0.7566914495955193,-0.4451458961799862,-0.11957453567346688,-0.17267815805024808,0.050778479061608775,-0.3735238413547237,-0.18087641421596054,-0.9444430009649676,0.47196537039167774,-0.5397531540509279,-0.20667170536816803,-0.9495253254167356,0.7207554069652733,-0.3560078660992125,-0.5016255145548387,-0.20783563610100733,-0.3769027417302831,undefined,1497375433139
903d185fccf839df,-0.403411574781638,-0.5939494951005272,1.0031866878612599,1.005492762593891,-0.7736604740856702,-1.9027402853106734,1.9587181966534002,-0.48964352860536337,-0.47083149873219626,-0.09686147434838747,-0.13580026817546897,0.030899060304526094,-0.6825075200534759,-0.2271681030833077,-0.8970745359956039,0.31435794786907645,-0.6424899993462176,-0.23630988185033916,-0.9426194729040605,0.6587458704244188,-0.387346946101703,-0.456914103247385,-0.21783456862552664,-0.3814649015103255,undefined,1497375434589
903d185fccf839df,-0.4200436653494076,-0.6097988854358085,0.9221591877287997,0.8938867879791528,-0.9071996792262352,-1.9279216903757932,1.9482121202933953,-0.642710276004989,-0.47299386743143707,-0.08269999712540321,-0.118653130498648,-0.042534655768448164,-0.847879066399287,-0.20772562328678787,-0.8844429158881718,0.2537396453852356,-0.7066308876066394,-0.24780417514525216,-0.9343842259944952,0.6168621010587251,-0.3937910264661844,-0.4907944048778746,-0.18433724000360496,-0.353835970710119,undefined,1497375436088
903d185fccf839df,-0.27589814431333043,-0.4976789038826542,0.8985526606338096,0.9133463064561891,-0.8286066627718945,-1.8866685351740689,1.9229265327548732,-0.7342749773883482,-0.49050786814846675,0.09175417024914782,-0.12281693769653025,-0.10884167422393144,-0.847879066399287,-0.32252899458278644,-0.8465481291882133,0.35881128866502465,-0.7301173818315687,-0.3235335150747653,-0.9119804382586029,0.6100405888509702,-0.4301173834257891,-0.5091639909428879,-0.3117553935657754,-0.3901283911285889,undefined,1497375437619
903d185fccf839df,-0.36598911221358355,-0.4571748397842861,0.9106747389843562,0.9519612341251059,-0.8918534097143578,-1.8586547746220385,1.869139110660594,-1.0675679481494087,-0.48942979270143583,-0.014214300901160387,-0.1508895002054652,-0.03593952251073042,-0.6825075200534759,-0.34104568826080967,-0.9002324336602282,0.25373970191467865,-0.7849405236475501,-0.3559265219237218,-0.9152759358022601,0.6105025391988014,-0.44884577834539274,-0.5064658376318228,-0.3160184880340021,-0.3865963972882914,undefined,1497375439105
903d185fccf839df,-0.37569123980650354,-0.425476015271735,0.9355572877024013,1.0457367060328617,-0.8816602900048126,-1.863196791355087,1.8690444345933375,-1.0678842313154198,-0.471962836510218,-0.05428132124846397,-0.17110707028554584,-0.07227507509288862,-0.8783422459893049,-0.2679048162241843,-0.9086534671043689,0.13048259332798673,-0.8210892497929496,-0.349979889316624,-0.9293815068538456,0.5581016284431137,-0.46295629155248985,-0.5006328154581939,-0.28181212490498203,-0.41891214450152375,undefined,1497375440614
903d185fccf839df,-0.47548433529967665,-0.39671228036378703,1.0363632500606872,1.0763287735173326,-0.8302420899393597,-1.8517788612881136,1.9327278191678168,-0.6107242495590592,-0.5125762583980048,-0.0038748128493404574,-0.22849598364114232,0.10053982892147934,-0.8870460115864528,-0.35863653106646354,-0.9318114103064706,0.12442071502957604,-0.8499808087458027,-0.37963073062311,-0.9395408765036973,0.5478000696376933,-0.4836624710933513,-0.528642229972768,-0.3080953519686282,-0.46416444706679416,undefined,1497375442128
903d185fccf839df,-0.46855423430318816,-0.41843184990827453,1.0076528906104267,1.0731079086738027,-0.900719683926394,-1.8414090875988904,1.9145032717370543,-0.7465059626567454,-0.519684781029048,0.07400944853746108,-0.18685057492794127,0.09499022584020514,-0.24296735739750447,-0.35678486817404853,-0.9486535213681548,0.05572008715775732,-0.8514061859245623,-0.3905423934983428,-0.9398977143233045,0.547384311193312,-0.4911502363330371,-0.5087752888588634,-0.3235950801308683,-0.4529459128336561,undefined,1497375443640
903d185fccf839df,-0.34935698714040425,-0.4783074089446484,1.0172231798518132,1.1321016363959866,-0.9581344442789911,-1.8312186667759556,1.9380505481871275,-0.589823912377155,-0.5358011059928157,0.12038888780794399,-0.19834869629337024,0.1206513972508437,-0.23861547459893048,-0.2975315131582469,-0.950758796294216,0.09613219459791277,-0.8143349619074958,-0.35595185428531817,-0.9455441411656798,0.5295991034853591,-0.47889396297931613,-0.5060517054306809,-0.3105506646211859,-0.42442851191387493,undefined,1497375446416
903d185fccf839df,-0.3382688807546782,-0.42841113410433046,1.1945899313194934,1.185195761263338,-0.9547195918939674,-1.828936012184801,1.966820625314981,-0.3887416262254484,-0.5467649599395191,0.09805517378533204,-0.20839352061313596,0.09166095282005375,-0.22555982620320855,-0.27345983080297853,-0.9718114572080228,0.10017354101259168,-0.8072976052163108,-0.35851669639161177,-0.9482099260179379,0.5032831593426055,-0.4845561210755107,-0.5061978458114949,-0.29515056132992806,-0.43508966773649005,undefined,1497375446586
903d185fccf839df,-0.4214296786476234,-0.5111803072954307,0.987236290504599,0.999169648986254,-0.9966338054792457,-1.8201594397614544,1.882777291849737,-0.9606825026968434,-0.5224567305862228,0.08865098458106196,-0.11467234878988138,0.02684064971455303,-0.7782489416221035,-0.3447490269964143,-0.9549693387841047,0.04157588347136876,-0.8617241020464667,-0.4248289482368065,-0.9313336174982816,0.46954516421203296,-0.5205338632757828,-0.5210235373516304,-0.35081901276416033,-0.46283873203910963,undefined,1497375448079
903d185fccf839df,-0.5600311464908375,-0.6262353346111997,0.9846842472584894,1.0633966148327194,-1.0290028957417445,-1.8667302490629487,1.8833190250781173,-1.0297875500523346,-0.47005767406297344,0.07492554190348838,-0.12280302182140986,-0.05047547126972878,-0.8565828319964349,-0.3836340642941013,-0.9065482216272429,0.04965818059462509,-0.8709871549321804,-0.4495337618323659,-0.9201037358087664,0.386316570909718,-0.5385013687439986,-0.525811048024872,-0.3091515533328097,-0.4421286165522206,undefined,1497375449585
903d185fccf839df,-0.6695263350715209,-0.586905271281082,0.8851543065232584,0.9764601515073545,-0.9154488040539936,-1.8695299949779203,1.9793516471994281,-0.38248884163258406,-0.47525587359730814,0.13501791996123247,-0.10537141215622214,0.036966545995266366,-0.8391753008021391,-0.40585409670772915,-0.8612850021350054,0.20120386614242336,-0.8682119339208503,-0.4562213500788585,-0.9023878109748728,0.372812136568842,-0.5362400192398777,-0.5390429775916759,-0.31077057494781707,-0.4517831195843861,undefined,1497375451098
903d185fccf839df,-0.6224018829321853,-0.5199855030392593,0.970648263541835,1.0753937879081465,-0.9325436343123923,-1.8765806003475847,1.9813844842293047,-0.34608760539309813,-0.4646402259296986,0.14719071889901503,-0.2757372601757305,0.0906589242466725,-0.5824142156862745,-0.2993831501491129,-0.833916553254184,0.2476777670868249,-0.7660902490285145,-0.4043735394999673,-0.8908990472217498,0.405934191148714,-0.5033997727427123,-0.5244464730220336,-0.2524829480557391,-0.427829191454524,undefined,1497375452595
903d185fccf839df,-0.39370941268330834,-0.5393570564332497,1.3036901612961107,1.4785398274087558,-0.854043198579859,-1.8098874932124225,1.868952401423567,-0.9559952955014369,-0.5193240478164665,0.4998462776429235,-0.31271398827491453,0.01135307984479001,-0.5127840909090909,-0.29660568818742666,-0.8391797184826356,0.32648153487756865,-0.7884690260935817,-0.3660149004820407,-0.8878834212751223,0.5434115080544673,-0.45324747705692603,-0.5322031686576583,-0.2256954099786208,-0.4289684531925204,undefined,1497375454085
903d185fccf839df,-0.3147066546850104,-0.4325201514072031,1.3572828153274668,1.3667491285359883,-0.8133015544909746,-1.813737725002134,1.924380834496944,-0.5882837535382065,-0.4954481125972698,0.2847888937516253,-0.31616337110550674,0.0125053446726063,-0.6433405748663101,-0.24568482266288003,-0.85391657670496,0.43357373830581103,-0.7660308648520825,-0.3205253658480142,-0.9059631813328548,0.5927173308042706,-0.42669460931062536,-0.5134255585211761,-0.22554366782326135,-0.4126225466639518,undefined,1497375455586
903d185fccf839df,-0.2814423010224226,-0.45717486901227844,1.5837772887620833,1.494350954103179,-0.8638557570374652,-1.824543065996987,1.9151791521776473,-0.6867135903499135,-0.4135701754739811,0.20007471841131055,-0.21996801390854595,-0.038284546030820876,-0.6607481060606061,-0.22901979187727184,-0.9012850416743237,0.3183991529601477,-0.7206701518648772,-0.3112729359215512,-0.9267507068083692,0.5439658516193528,-0.43930006497789065,-0.4858617640083278,-0.21514241016339558,-0.39079627511735027,undefined,1497375457110
903d185fccf839df,-0.2052115006097368,-0.4700892135849451,1.5199759534723893,1.6078297335624747,-0.9292625027866391,-1.8755347721521418,1.984190518569473,-0.34375419469255675,-0.45024495616788074,0.28229453875806787,-0.143683658746954,0.031138810899099662,-0.852230949197861,-0.24290729594732108,-0.8802323660360494,0.36083182054875645,-0.7331191146862372,-0.297384789684044,-0.909356634583575,0.47120819609137277,-0.43703393009652153,-0.48122367283743517,-0.25182603473553894,-0.4346183681190728,undefined,1497375458627
903d185fccf839df,-0.2842142931134444,-0.5645987013524694,0.927901157964072,1.117388906685428,-0.9549561695775847,-1.8918021796977291,1.9199075299013473,-0.8259653849636744,-0.33851157875572313,0.04843390782665703,-0.06381362345353382,-0.044936015364516635,-0.8913978943850268,-0.25679482591891944,-0.9297061280181756,0.4800477240443772,-0.6863475663369417,-0.32277356305708144,-0.9242668381947504,0.6128276964915034,-0.42393502477327344,-0.4798570044940576,-0.3677275019466186,-0.41585188530461464,undefined,1497375460088
903d185fccf839df,-0.25787997143652563,-0.6015806754621091,1.0255169391962458,1.0209802081400672,-1.0184703480439337,-1.9016595197089086,1.962597161476126,-0.5567983189162125,-0.3745236086709466,0.05943067770443887,-0.1276127393259262,-0.02596333177125652,-0.8826941287878788,-0.30586398969872736,-0.9339166778702981,0.4436767934305714,-0.6537897566025762,-0.299189679573334,-0.95741073058964,0.5009887880094007,-0.4441857138403618,-0.4814959872375062,-0.28386504375285526,-0.41823570395353593,undefined,1497375461587
903d185fccf839df,-0.2634240246293887,-0.6432587695567199,0.8105074227799716,0.8927894232292195,-0.9935789598424833,-1.8855574885595898,1.966986306075756,-0.5160698641991883,-0.3254432443683675,0.05729923985328483,-0.10738205712980342,-0.04879766623472469,-0.852230949197861,-0.30030898807070766,-0.9118113868556945,0.3305228247628045,-0.7299263405316745,-0.40542481078586734,-0.9393659551796459,0.41649752142660085,-0.5041099376201924,-0.5067362077784971,-0.3988436898267365,-0.4539946175953224,undefined,1497375463090
903d185fccf839df,-0.33272479305640545,-0.6215392000122324,0.8066793579108068,0.8641512865797619,-0.9985983797892019,-1.9147381964480181,1.9905888083985661,-0.39638904185068424,-0.30766918436506036,0.1298912955104403,-0.05487061821217201,-0.02006007553308283,-0.8609347147950089,-0.34937817775206464,-0.9191797975612723,0.2901106890579275,-0.7198163874056701,-0.3894087956665398,-0.9192921044624889,0.43733161764424566,-0.48734487533090487,-0.5229472145047109,-0.4214685858152579,-0.42621512293763264,undefined,1497375465922
903d185fccf839df,-0.34519891274034725,-0.610385915047926,0.8908965308954802,1.1008405283934088,-1.0310908971438308,-1.9157793666416092,1.9668653309263409,-0.5572805589797133,-0.3199470552818167,0.16600034263743454,-0.07418238873235104,-0.02136599469465665,-0.8609347147950089,-0.34937817775206464,-0.9181271674604754,0.2395953286399609,-0.7312173836850606,-0.40200502033635577,-0.9213141828731364,0.3918908053072641,-0.49973261454109497,-0.5207000020448129,-0.5242002233602121,-0.41744645580356965,undefined,1497375466094
903d185fccf839df,-0.24540588625799362,-0.5992326154696236,0.872394344429659,0.9860959605483092,-0.9496178898878571,-1.9219075950115625,1.9952041223811998,-0.36723699197707876,-0.2751110095128129,-0.1498071230811056,0.015648622800925178,0.0027447665920777597,-0.4866727941176471,-0.4002990562273858,-0.8791797506597202,0.4133677128504548,-0.7300798279063532,-0.4261398685137232,-0.9161785231207684,0.43799375054265205,-0.5029026622102921,-0.5172723526075003,-0.5051546290297718,-0.39279173780237225,undefined,1497375467607
903d185fccf839df,-0.35351495802423205,-0.5839701962904751,1.214368393545319,1.1742166725366814,-0.8170558204745163,-1.926398368305138,1.9749493614388935,-0.4729073203856278,-0.29151867472126547,-0.058627075891521885,-0.032499949807963904,0.011041005653428573,-0.40398702094474154,-0.3521556785660745,-0.9076008517280397,0.4073058910814872,-0.6654978636826788,-0.4008397585502257,-0.9385193405069153,0.5560998280714936,-0.4780587641713342,-0.5130223579919466,-0.4500799348955323,-0.3778052831523496,undefined,1497375469120
903d185fccf839df,-0.2370898064686991,-0.47772042317451935,1.4434144019521464,1.4127170459186706,-0.7937690035157196,-1.91089029322025,1.8632746489366636,-1.1583756669532506,-0.35957647719579416,0.015529835568016606,-0.1533198104658473,-0.00811826556808272,-0.9001016599821747,-0.35308152943844384,-0.9086534597421352,0.47600646242386285,-0.6214860944653365,-0.3954250901447157,-0.9471044271161599,0.6051130809501593,-0.4714077543943519,-0.4969168818638182,-0.37077979821904133,-0.39175546677301737,undefined,1497375470598
903d185fccf839df,-0.20798349270075855,-0.41021361070658274,1.4548985965596406,1.4500454628698578,-0.8439632017665873,-1.8745075771682507,1.908728223330888,-0.7804360853309562,-0.44905733458071856,0.14442709708435855,-0.25183136862645933,-0.04202757871830941,-0.9131573083778967,-0.27345981785220397,-0.8781271205589234,0.36083182054875645,-0.5839110988744347,-0.3342361892749879,-0.9303750525669413,0.6228058957237664,-0.4399870550941698,-0.5007667522296638,-0.2931415599485479,-0.38822326486816233,undefined,1497375472137
903d185fccf839df,-0.2856003064116602,-0.47595934895216285,1.7069132483184055,1.6061634274291783,-0.8712614458557636,-1.8639165259947943,1.8702936017137874,-1.0215276396964912,-0.46134840059478094,0.20167120618690926,-0.26771766156066384,-0.00786351616968405,-0.7608414104278075,-0.17161811270465985,-0.8602323646719747,0.4537798485553318,-0.4908866706738692,-0.28806269771486626,-0.8919555645385888,0.7191231762443784,-0.39074253026804107,-0.45137537976180964,-0.2283972133199753,-0.35838815319341055,undefined,1497375473598
903d185fccf839df,-0.3230226999688952,-0.5845572405165889,1.7069132483184055,1.7172963296701866,-0.8536111914421954,-1.8807196573164786,1.8717452563682853,-1.0377561386993992,-0.4450633423079134,0.14436244407553084,-0.20384220985183032,-0.00025299916030766087,-0.843527183600713,-0.15680473186069216,-0.8823376704110458,0.45782113844056765,-0.5094566282348968,-0.23454299130072334,-0.9149680760808668,0.6401599448187162,-0.3864230513319052,-0.4346388483389336,-0.21492710351834254,-0.35564625536938355,undefined,1497375475106
903d185fccf839df,-0.4339039018477943,-0.600406616237874,1.3528168667152494,1.4917964376693678,-0.9106865256350031,-1.9213229551193616,1.97135967552093,-0.48398227882498895,-0.394398157535906,-0.15587037231328502,-0.10793616285275044,-0.004753073478587372,-0.7173225824420678,-0.14569475450620187,-0.8970745139089026,0.44165620501739655,-0.47804172814533874,-0.16132149588814756,-0.9027376512006194,0.7071893767290296,-0.341775419152038,-0.3965109442260199,-0.106275037263523,-0.36480535175770595,undefined,1497375476579
903d185fccf839df,-0.39509539147611433,-0.5904273612698104,1.3560070478413613,1.4975898722084913,-0.8240501005902715,-1.900830309639486,1.9551390346631394,-0.5414376567756894,-0.31353641068449156,0.07899286686492484,-0.08512579935915543,0.07695579507917129,-0.8087121212121212,-0.15680473186069216,-0.9076008443658059,0.4254913846531116,-0.45514873615197227,-0.1275605728782111,-0.8778080135515366,0.8058934142744697,-0.30388126502587076,-0.33973555315320275,0.11953575065400006,-0.2877108994760594,undefined,1497375478083
903d185fccf839df,0.056745288796318266,-0.4912217973593036,1.8045290295505794,1.6889758693244408,-0.5852162173815587,-1.8136119480881057,1.9761196255514988,-0.1697708946939122,-0.13732091978640998,0.06955136349349404,-0.21768708147689633,0.051358583761091876,-0.8739903631907309,-0.16606308517509105,-0.8970745212711364,0.37699675397192756,-0.472150855371683,-0.07575709417295799,-0.8450139620246853,0.915037592474493,-0.24986863349151373,-0.3623232305824824,0.17220173692583884,-0.24034665221893642,undefined,1497375479592
903d185fccf839df,0.19257479905392041,-0.3303795125060894,1.9806202676691036,1.974208931064463,-0.40481537337290774,-1.7525602595961973,1.940685624875484,-0.18106981931089258,-0.1386076102514473,-0.019674530771814008,-0.31175090598744953,0.04860808237271036,-0.691211285650624,-0.14847225532021172,-0.929706150104877,0.6214903262026935,-0.46572755175363845,-0.09695345419183597,-0.8747504081710414,1.1054547693883021,-0.23054819298389204,-0.37144886437214586,0.1681142412119931,-0.25507770321270534,undefined,1497375481080
903d185fccf839df,0.2424712777896875,-0.3233353325286327,2.057181565052397,2.0575106567877026,-0.39233882336337506,-1.7380793799627234,1.9427973533904654,-0.14000289315122974,-0.18152007267376552,0.045139026991006526,-0.3209418667743105,0.057351073359843886,-0.5258397393048129,-0.11977142220929297,-0.9391798430987497,0.6598817321707879,-0.4337998861175841,-0.07167867675603448,-0.8722945275105083,1.1672949225580667,-0.20564563320663246,-0.37950882143835857,0.21242573201681014,-0.2768437648426694,undefined,1497375482627
903d185fccf839df,0.02902502283200322,-0.2951585541628215,2.0986523948701556,2.1045577158593964,-0.44018788602634135,-1.6948859672263143,1.9309158898189736,-0.1709943285955871,-0.19381515926264684,-0.0017503829465619887,-0.32815744226545046,0.06890055193562034,-0.691211285650624,-0.11514224555209353,-0.9507587742075146,0.7993037459159295,-0.39338377561864524,-0.059475093254343775,-0.9017371077652048,1.1807069658089333,-0.20217895109122916,-0.4229429895884848,0.3056263002864724,-0.35939885908267083,undefined,1497375484098
903d185fccf839df,-0.10819046621840493,-0.2552415342905671,2.1790417571226137,2.1027147103192156,-0.6223681528999383,-1.7363371090916422,1.940446314855336,-0.22110291780772118,-0.24945301438743922,-0.38538715287469955,-0.3984176936027531,0.009133605540759978,-0.5737104500891266,-0.15495308191905166,-0.9570745842612307,0.9266020595936927,-0.402758168298624,-0.09436961156582682,-0.8999319301919984,1.242993678016107,-0.20507618386799784,-0.4734499507218237,0.2679965494340281,-0.3546689862313179,undefined,1497375485615
903d185fccf839df,-0.19828143411865803,-0.34564190245724546,1.8134614350489129,1.620306637074685,-0.8002490016322944,-1.8177440200973705,1.9651191503304153,-0.3166497873313558,-0.3728471180169827,-0.4184616028963111,-0.2954643291263449,-0.07140193143724607,-0.6607481060606061,-0.09847721476648534,-0.9349693153333286,0.9629730467369414,-0.3080271227888285,-0.06424379918455661,-0.8877994604621614,1.3660118558190182,-0.17086488354742418,-0.4436114141774477,0.3322251960203602,-0.37294450928550327,undefined,1497375487103
903d185fccf839df,-0.23570375866507362,-0.4659801232120916,1.7866649809647601,1.6359699141441295,-0.8302523798114857,-1.8484294177346456,1.879497927454331,-0.9366656663129931,-0.37630820780539315,-0.6252757694279989,-0.24810337617288558,-0.046773554798925907,-0.8261196524064172,-0.06699888084155677,-0.9465482832532626,0.7205000063899073,-0.3313061901433394,-0.07350256357174344,-0.909860404795418,1.1795366818952822,-0.21670939095835046,-0.4885690757239421,0.20151100606303957,-0.49126120656439326,undefined,1497375488599
903d185fccf839df,-0.008397336219822091,-0.48535161815009736,1.5735688616406946,1.3469906877836146,-0.7076263036438859,-1.8543060878015472,1.8961551073069127,-0.8411415474259897,-0.4005918832210088,-0.24184721175978274,-0.1836666889655006,0.020803147274549624,-0.9436204879679144,-0.11791972046455429,-0.921285087211801,0.9670141670338481,-0.2854680049679504,-0.13051805619138654,-0.9102592227340038,1.2529564732026028,-0.21592784107592705,-0.4615125388550428,-0.04200622346826649,-0.43357800046157086,undefined,1497375490120
903d185fccf839df,-0.013941354907275367,-0.5346609364482786,1.1212190691992614,1.0969141025908844,-0.7252971300076756,-1.8538728486555736,1.912307375893453,-0.7381412705957621,-0.3918872869849241,-0.27116593110407367,-0.19617340122805269,-0.008960029726359417,-0.843527183600713,-0.3299356850047703,-0.832863893704452,0.9447874683711525,-0.27927395622061735,-0.2006997386277409,-0.859420394475873,1.3603452303987744,-0.2122849612307342,-0.43363278877994194,-0.13205499678863739,-0.3393639180318076,undefined,1497375491584
903d185fccf839df,-0.047205708569863156,-0.5299647580073228,1.3056040666622184,1.2108869479886923,-0.6751543571511953,-1.8538984709624322,1.9348079942313217,-0.5865983259575255,-0.41494110444806753,-0.17911380909381294,-0.23735673317392694,-0.022128037938654012,-0.9175091911764707,-0.4280741161705825,-0.8076007418363933,1.0397560565261812,-0.24790071113304216,-0.2376587991470669,-0.8406129672430909,1.3025086705410545,-0.23632785585805902,-0.3978602321932337,-0.1966762477355964,-0.32900754377799757,undefined,1497375494790
903d185fccf839df,-0.047205708569863156,-0.5845572112885965,1.1614133691200663,0.9793328613175828,-0.6739612107492885,-1.8416443427119848,1.9244386702702303,-0.6523211942743276,-0.38587385539566144,0.07511479017421761,-0.25705152928025005,-0.08110551912509217,-0.8826941287878788,-0.4151124111698044,-0.8002322943196466,0.9932821555817796,-0.3115835991395782,-0.2565119725909327,-0.8408928391704418,1.3078365343886453,-0.24586290822022147,-0.364690513003057,-0.254709300912333,-0.34478142208101464,undefined,1497375496114
903d185fccf839df,-0.09155823762899644,-0.6097988854358085,1.1614133691200663,0.9793328613175828,-0.7387816670080302,-1.846575340869076,1.9497111182191307,-0.47969303111482736,-0.376894012221189,-0.19969799459777154,-0.29581171443430665,0.014154673998377892,-0.5214878565062389,-0.30216070276622087,-0.7686533029489366,1.1003742459511359,-0.2929291495277672,-0.1734427523954655,-0.8185520214723249,1.4116836526323715,-0.17778074825177193,-0.26895689089465635,-0.1581175203672515,-0.22050752825443348,undefined,1497375497603
903d185fccf839df,-0.19412335971860104,-0.5939494804865311,1.3917359074238476,1.3882073438603892,-0.7690627588492189,-1.8493308298055326,1.9024403512028096,-0.8001636338562916,-0.3438486163999929,-0.20032615914554464,-0.2903144048162795,0.017064316656729965,-0.5650066844919787,-0.22439065407239606,-0.7707585631505303,1.1104774141347824,-0.2625916724055588,-0.12326050595389829,-0.8134163626497504,1.4453292557978845,-0.14518736887773379,-0.2663808095752753,-0.20223788225739334,-0.19294129554872344,undefined,1497375499088
903d185fccf839df,-0.18164924003465927,-0.6092118704376871,1.4344825047277117,1.4598378235143183,-0.759569062577258,-1.871034679720373,1.9243413795885762,-0.6822185042797098,-0.29265626206961176,-0.20506248315373257,-0.22815309531791153,0.030950241984644335,-0.8043602384135473,-0.23550063142688635,-0.7949691438156625,1.0458179630893134,-0.23990994436955815,-0.10144351393331642,-0.8073361342426003,1.589504901507676,-0.10826894196550464,-0.2143537784762031,-0.11901533647687243,-0.12901129224783192,undefined,1497375500635
903d185fccf839df,-0.3160925989724067,-0.6544120837490186,1.9002309054166455,1.819374957878811,-0.7309439739028107,-1.9147521719173024,1.9036500592248038,-0.8530077306121513,-0.3390008462976524,-0.424287038049292,-0.14962988690244539,0.03864971906794336,-0.8391753008021391,-0.018855542032569096,-0.8444428689866197,1.0235912078971747,-0.3005610793799224,0.01590593490025627,-0.8538229462088427,1.1354817380489477,-0.16084358409566474,-0.2291030177641281,0.03172276330448587,-0.24706431647831822,undefined,1497375502088
903d185fccf839df,-0.20936954050438406,-0.6667394279375601,2.295159724820609,2.3268841885241374,-0.68692119217058,-1.9367332028891902,1.9092410318637334,-0.8033502981196637,-0.4077055701232195,-0.8829158640298216,-0.01431055365077697,0.006719412864136005,-0.8826941287878788,0.18112459428078725,-0.7770743879287139,1.017529386128207,-0.24025190800791132,0.24580445481525956,-0.8160611576933188,1.3117785431944367,0.0005278922440529874,-0.11264974867375079,-0.102680931833159,-0.2649766367230248,undefined,1497375503589
903d185fccf839df,-0.2661960857312299,-0.6667394279375601,2.428504365635269,2.3661996635327713,-0.7349039667484872,-1.935461438661312,1.9166544514940778,-0.7734061762491806,-0.3775014037762272,-0.7902239835438868,0.054486867777844755,-0.008513218798768735,-0.8348234180035651,0.20982547919480418,-0.7960217739164593,1.0781476603473263,-0.17678813161786192,0.2973736145546191,-0.8309153872946115,1.307436182682493,0.025823310181908286,-0.11943253816686389,-0.034532968307705074,-0.23110748847747858,undefined,1497375506208
903d185fccf839df,-0.2814423010224226,-0.6608692633423501,2.339182852021427,2.3657709099909554,-0.7695770512191007,-1.9406346787507998,1.9694819948003648,-0.4432425752388561,-0.37194202088101247,-0.6848051089414865,0.08035308156037267,0.015559838274844591,-0.847879066399287,0.19964130090958504,-0.8107586174143161,1.1832192188329507,-0.1144928109980939,0.314333236737148,-0.8285364716944142,1.4281753901016354,0.05680682132537592,-0.13053413620031848,-0.0648488739179968,-0.23373644598177878,undefined,1497375506575
903d185fccf839df,-0.37569123980650354,-0.6866979086456949,2.3047300140619953,2.2324089737511237,-0.8300158080654149,-1.9544750184596595,1.9274629531573584,-0.7480614403238561,-0.3780113354365166,-0.9054876269606668,0.09417359735295701,-0.10050634574513537,-0.8565828319964349,0.1746437158788491,-0.8139165077167065,1.2034253856119146,-0.09880880782143156,0.3146688826579265,-0.833721108254296,1.2500307725930393,0.027896634702480126,-0.13078746562153196,-0.03195671561114982,-0.26242375503697307,undefined,1497375508091
903d185fccf839df,-0.37014711760282104,-0.6990252820622288,2.1158785597129217,2.129193861950502,-0.8898579924649723,-1.9621894589811557,1.9818710072977754,-0.41601198738132067,-0.32993198895024234,-0.654148190871848,-0.03559338780920271,-0.16784943570078442,-0.6041736296791445,0.0672470091032853,-0.8433902315235892,1.033694263021935,-0.22900711495313575,0.2769625370879213,-0.8556910943214235,1.2045899576982189,-0.004034058970932196,-0.22736745457819163,-0.23709949961573196,-0.42448320799817085,undefined,1497375509593
903d185fccf839df,-0.30916253248132797,-0.7095915520284137,1.987000375784378,1.975771722814046,-0.8971402645838474,-1.9527117848542141,1.9012779696917037,-0.9544116483992144,-0.31056904815309444,-0.5716695714082133,-0.11569036934439343,-0.11703296486383702,-0.5737104500891266,0.0672470091032853,-0.8781271058344557,0.9851997453996371,-0.24903577299400081,0.2608008628300173,-0.8881213128816318,1.1660784454755087,-0.02385350469743701,-0.24953040588730832,-0.2650657658268591,-0.5190830212071411,undefined,1497375511090
903d185fccf839df,-0.11373441589503874,-0.596884555477138,2.161177708536795,2.119330120858776,-0.7399028140027903,-1.9150805959218364,1.92713685962291,-0.6674930738116498,-0.36421005470819284,-0.5336887419964091,-0.22841417871368258,-0.10699867948892239,-0.6607481060606061,0.008919543812176666,-0.8054954595480982,1.0801683052899442,-0.20148225458966515,0.2644043080537499,-0.8658434660348595,1.2319067973755546,-0.017360786384955675,-0.2796706560089439,-0.08513838855531049,-0.3609200038813469,undefined,1497375512585
903d185fccf839df,-0.09433029873083768,-0.5141153530580453,2.0775979110212752,1.9662344985699094,-0.7105062912126769,-1.8841063723361402,1.9354470406630746,-0.5706136578567395,-0.375268214112245,-0.45665644959765544,-0.23819590045293185,-0.014992935769158451,-0.852230949197861,-0.10218061825596272,-0.8781271279211571,0.9104372392294077,-0.3554091546258653,0.18444456210208562,-0.8694328304427892,1.1651083406795437,-0.08311390005152294,-0.336050145525288,0.02579493431545136,-0.28159584453712916,undefined,1497375514129
903d185fccf839df,-0.2606520325383669,-0.4695022132008199,2.061009884058511,2.0164274317650683,-0.7651336244170024,-1.831728769712093,1.860321367076728,-0.9922076608659476,-0.38075588156855134,-0.5879047081732905,-0.33458559948636657,0.10422735282793139,-0.6999150512477719,-0.1743955876171206,-0.8654955519871278,0.7124176527372079,-0.3579892219789502,0.0739346936360161,-0.8628628255801248,1.0685138954240077,-0.16195440290958696,-0.2993239325338623,0.009978606199376704,-0.2735391048133306,undefined,1497375515617
903d185fccf839df,-0.34104094185651945,-0.4700892281989413,2.239015027543143,2.172491975162663,-0.7985209968318265,-1.8521911360285084,1.8693021532377312,-0.9635993970353637,-0.3652632673362945,-0.8059692713460106,-0.31707473111289847,-0.0012389485814464306,-0.499728442513369,-0.16235973348871185,-0.8465481586371485,0.7730359269563272,-0.30898148442765244,0.07576491633537205,-0.8565726925469385,1.1111367920019977,-0.15221839528373765,-0.2934890632519199,0.09049778551194997,-0.2216694933187169,undefined,1497375518435
903d185fccf839df,-0.3867793806976393,-0.4736113181876696,2.239015027543143,2.172491975162663,-0.8494557685023061,-1.8479053357806683,1.8588907513736996,-1.0414998587724607,-0.34339083004535254,-0.8826165198549677,-0.3071677167386001,0.008426313077498561,-0.5214878565062389,-0.13736225206417232,-0.8518113017788989,0.7790976356664087,-0.27816754827203016,0.08176854625499305,-0.859623302015765,1.1320940762140066,-0.1467382790632702,-0.29689894348049234,0.10318000989128916,-0.2214309432548956,undefined,1497375518627
903d185fccf839df,-0.39648147378514953,-0.5552064321545348,2.241567070789253,2.1057159396449263,-0.8040958478375128,-1.8759843155291274,1.8685999999030247,-1.0114256773896588,-0.37446385045642555,-0.9033381938602401,-0.25450963653167474,-0.04289041563066623,-0.7651932932263815,-0.16235970758716275,-0.7991796421321484,0.7063557744387972,-0.28211992478924874,0.09219257297643993,-0.8503875119032335,1.0764748908581503,-0.14887271642938074,-0.28475494947173735,0.1235510072054784,-0.19159742562920565,undefined,1497375520121
903d185fccf839df,-0.3867793806976393,-0.6784797278999879,2.12863903008042,2.055035675604229,-0.7814673159212906,-1.9255342213829918,1.9253643626607164,-0.6979365993166669,-0.36847222329420065,-1.00204915631368,-0.24247175106279484,-0.1629669570035735,-0.6999150512477719,-0.14013972697663307,-0.767600665485906,0.7386855282262532,-0.3284191918800628,0.09761357202237432,-0.8388357769439765,0.9782482044753543,-0.1619079410117417,-0.29164108605849776,0.09600988402305427,-0.15913782107452418,undefined,1497375521585
903d185fccf839df,-0.2634240591347984,-0.7530306911173887,1.8192031511472357,1.8156728669776032,-0.8955459854739087,-1.9616583925282773,1.8735361467656582,-1.1431202777009346,-0.3468861828014554,-0.8370094440550545,-0.09989257533875325,-0.11164789396324366,-0.34741254456327986,-0.07718305912677591,-0.7886533337619465,0.6457375850138425,-0.3087970517554425,0.08282614746155081,-0.8352534106376234,0.8711828144854697,-0.18528736546364485,-0.2665312110402617,0.0884961788547225,-0.2104277424593217,undefined,1497375523118
903d185fccf839df,-0.27174013892409293,-0.7812074256412115,1.6679944617467566,1.6236117871714333,-0.87242374044593,-1.9963989947962313,1.9653768653084827,-0.5825520804190589,-0.35584726126784083,-0.8697291777790558,0.022356247509308355,-0.036173771290639936,-0.8261196524064172,-0.04477892613257617,-0.8097059946757531,0.6113872428132116,-0.3160881869239048,0.08482102388389282,-0.8503035510168678,0.8319013804481632,-0.19343208973629372,-0.2554071171158755,0.08302451308574561,-0.20214560543919138,undefined,1497375524633
903d185fccf839df,-0.2966883782919765,-0.7477475707482925,1.3974776235221704,1.5472691291902954,-0.8826888641418141,-1.984200768675709,2.0226224810525,-0.20705387714921614,-0.3361275604372105,-0.6055755853586584,0.07758955894214963,0.0236121244678946,-0.8304715352049912,-0.030891318456330554,-0.8086533277637873,0.61138721454849,-0.38493382742946874,-0.015334480207961139,-0.8828667078704279,0.6638735419747224,-0.2714288684923876,-0.38942105472563193,0.01071091018225752,-0.25896184767472663,undefined,1497375526108
903d185fccf839df,-0.48795838597279895,-0.767119051072302,1.2583912666091874,1.383085938216362,-0.8100718394092777,-1.9960006941429371,2.0100441158968154,-0.29940425059740694,-0.32128273740231283,-0.5924390050435568,0.1363590702926176,0.07613544027885448,-0.843527183600713,0.06446956009237363,-0.8297060034020616,0.5426865584119498,-0.3703168666472071,-0.0993093153080117,-0.8762267343362271,0.550818158604418,-0.3299417152622084,-0.41674701750567505,0.06688928860340133,-0.31895201418781205,undefined,1497375527586
903d185fccf839df,-0.5142926731443079,-0.7712281560591517,1.1397212556650826,1.2786804177948066,-0.7458068013841633,-2.0004215902282647,2.0351245709087595,-0.12227701192716288,-0.3295996404936714,-0.5331340408191048,0.11547820202364752,0.0610943157971231,-0.7216744652406417,0.07002448401574604,-0.8791797506597202,0.5750162839346843,-0.3128903123860414,-0.08564915749563361,-0.8928581537472692,0.5154171331830583,-0.33221372476017236,-0.44246772878887464,0.0707580243109243,-0.3486932575716362,undefined,1497375529911
903d185fccf839df,-0.4380618727316221,-0.723679911983327,1.3145362180236027,1.4105608026841119,-0.6509418187566696,-1.9728433978888231,2.0919783522218243,0.3038188712822805,-0.39066874699797244,-0.5387687790775376,0.09894014278610722,0.048097029925276626,-0.7216744652406417,-0.0012646474238170214,-0.882337663048812,0.5628926686614706,-0.3772955130019534,-0.1616254824112751,-0.9041370126663757,0.4270762541886267,-0.38803609969282615,-0.4289135143257128,0.035872819625475776,-0.34162506482696975,undefined,1497375530620
903d185fccf839df,-0.53646888591576,-0.605689795062955,1.3681293803288574,1.5352383858866605,-0.7797290301490148,-1.9772293562226229,2.0031329782528093,-0.2956040091474583,-0.3643175952659513,-0.9536538696839173,-0.004334833601530207,-0.04988859137524178,-0.7086188168449198,-0.33919405126994373,-0.9981272539013458,0.6275522045011042,-0.593594414932199,-0.26459914310649546,-0.9124562201442193,0.46375535699008724,-0.4377129035372025,-0.4979445967996604,-0.09916482468132598,-0.4173917032589095,undefined,1497375532065
903d185fccf839df,-0.28144216300078373,-0.5229205780298661,1.435120134333815,1.4208199507463222,-0.6985851600769383,-1.9762324417377137,2.0200478950814165,-0.1442956501113683,-0.3183348331450469,-1.291872206627599,-0.11833054780595212,-0.05972628005531321,-0.6085255124777184,-0.26883064119500455,-1.0076009689819199,0.6174491211116223,-0.5356142983462123,-0.1831384880526828,-0.9468245549502435,0.668647072892652,-0.37908464033014555,-0.4775475134917833,-0.0352928775572121,-0.3543939632106059,undefined,1497375533581
903d185fccf839df,-0.2953023649937607,-0.5000269638751397,1.6437500509087137,1.617813756051695,-0.605479035029905,-1.9554463112656044,1.9886795763215677,-0.2988971405535796,-0.374900746093807,-1.0694718785635822,-0.12059075236060644,-0.08889365837409433,-0.6868594028520499,-0.23179726678973261,-0.9928640813106604,0.5790574890257555,-0.5457655506096496,-0.19879985392996347,-0.9006595971774194,0.7639788426598844,-0.35387145486771543,-0.5100514696924473,-0.09870143949898336,-0.311064122210352,undefined,1497375535086
903d185fccf839df,-0.4158856599601701,-0.5170504134346561,1.5537906535518187,1.4936238562328792,-0.6531223844002705,-1.9483095216787225,1.9478150262555158,-0.5733675511326494,-0.41045185404690704,-0.8807940973864541,-0.1042667757795856,0.0008203220412447382,-0.9349167223707665,-0.3493781907028392,-0.9591798665495257,0.5669338454878203,-0.6277545234875221,-0.2456699718746846,-0.9008555090380909,0.6196800086864823,-0.39951306775525497,-0.5031016077347406,-0.1488035025998714,-0.27757230282850043,undefined,1497375536599
903d185fccf839df,-0.2911443941099329,-0.4824165139314981,1.3636631775796906,1.3238364324058245,-0.5713408084857294,-1.9435089592198884,1.960672153720912,-0.4507488983532245,-0.45945823283650566,-0.6404892340328404,-0.11014169004376391,0.019828991719672298,-0.8739903631907309,-0.21976146446442205,-0.8665481452767556,0.6093666261353152,-0.5317470961141715,-0.20184600303344535,-0.8741836658232709,0.7739262334236685,-0.34686656208058064,-0.5352677014028331,-0.09813991414444206,-0.25846618031282864,undefined,1497375539230
903d185fccf839df,-0.2911443941099329,-0.4589358701646541,1.4293781640985428,1.479033945193178,-0.5934859162320789,-1.9252127852773215,1.938955215767688,-0.5834801488458236,-0.4371560875098328,-0.49184396742847947,-0.14685919729840796,-0.019169645979341628,-0.8739903631907309,-0.18087644011750964,-0.8802323954849846,0.6235108015569822,-0.5036399944934629,-0.17822412297282,-0.8881562974192629,0.7306104059928576,-0.3431033374740848,-0.5320230200116609,-0.11718602002067859,-0.25596815157059927,undefined,1497375539584
903d185fccf839df,-0.08324212333429219,-0.6133210046525291,1.7273298484242332,1.7509631540448563,-0.5800219363380802,-1.9256227315717478,1.9304293850821344,-0.6256144029039351,-0.3441658784650265,-0.5334458048442078,-0.16854472204097418,0.0706940380891104,-0.8000083556149733,-0.030891344357879647,-0.8391797111204019,0.6538200234607064,-0.3967812984739647,-0.09151978996170343,-0.8325806304242321,0.7899560132081427,-0.27540088608452473,-0.4505670133532177,-0.08528829522888168,-0.22880694051812034,undefined,1497375541087
903d185fccf839df,-0.059679897264624394,-0.5428790879659934,1.6061077942340185,1.7099635676073908,-0.4061525130396619,-1.90095142985955,1.8940328705770553,-0.7941783566367079,-0.25653014972867555,-0.5604941684489058,-0.19946005172142545,0.14169648518812644,-0.36917195855614976,-0.03459467014270975,-0.8423375793360909,0.6558406684033244,-0.3597103412895492,-0.09768174425946584,-0.8468471279975228,0.7712469011966279,-0.2852300151260356,-0.3956996679745929,-0.10293896789646287,-0.23167447860360157,undefined,1497375542654
903d185fccf839df,-0.027801591405662095,-0.5745779563205329,1.4427767723460432,1.3961765223136156,-0.3481103261699791,-1.8970010411445326,1.898955862661001,-0.7205098637775207,-0.3633813175861861,-0.9064778994042992,-0.13953867622996843,0.11741324103607997,-0.3778757241532977,-0.004967986159421668,-0.817074434830266,0.8114274177185863,-0.3600725986007584,-0.09362233050154722,-0.8184610657264251,0.8678567480477907,-0.2509432367949764,-0.343410346451544,-0.29112163915181843,-0.30472878162619904,undefined,1497375544416
903d185fccf839df,0.04288508680334128,-0.4794814097128988,1.063797842024842,0.8896131598783649,-0.3669434380335679,-1.8848750217428385,1.9393312729491412,-0.4447592850146811,-0.4406584390913814,-0.7811700593515524,-0.14038969507273474,0.04810510453807111,-0.7434338792335116,0.19964127500803594,-0.8181270502065952,1.0054057143255501,-0.37670331146929237,0.03992045288452054,-0.7893613281647853,1.1579172731180363,-0.12036411782085019,-0.3226311777948121,0.07969607959082226,-0.35609328001130025,undefined,1497375545583
903d185fccf839df,0.15238020637320518,-0.3556211281973167,0.8353894632241178,0.6861754986497695,-0.2604144719356616,-1.7405204224170459,1.8800081056599522,-0.5258940833307272,-0.4380972066916235,-0.7536704945236572,-0.22744040581169533,-0.17841560575499593,-0.7434338792335116,0.11816790052938099,-0.8181270354821276,1.132703999738592,-0.2863413063887602,0.011447537047926375,-0.7246828081516307,1.0432758457607598,-0.13148544375744686,-0.312264293132369,0.11452365019003574,-0.3002786534027632,undefined,1497375547086
903d185fccf839df,0.22306709161466695,0.37286506903117184,0.9125888984874133,0.6376658836722342,-0.1794557491595145,-1.435159492242272,1.7600521399556577,-0.4771828898643767,-0.7432029627214548,-0.8473770697600207,-0.33458021451317027,-0.20711750680684007,0.21833221925133692,-0.02718804447459864,-0.7918112314265706,1.0619828117183199,-0.4784641339828396,-0.09597185437205605,-0.6976261395311415,0.9847617514628563,-0.17272923768132545,-0.4443934365203733,-0.054521463220209586,-0.3757240885603193,undefined,1497375548580
903d185fccf839df,0.261875463964708,-0.03334966040473631,1.155671398884794,0.8745769032453159,0.21631730946075567,-1.248654980608178,1.6459211794956428,-0.6990984125392108,-0.7969493276474491,-0.2044736354542205,-0.13470171986700225,-0.14395629287818956,-0.1994485294117647,-0.09292218723691656,-0.7918112314265706,0.7427266485231598,-0.49923089002994475,-0.06691630756211517,-0.6788117141233778,0.8840251218648177,-0.17210104760365522,-0.4502984459833415,-0.10664706375514214,-0.3626668483835655,undefined,1497375550109
903d185fccf839df,1.2861403955192605,-0.15016564503089241,1.1837438745920017,0.8767254029386246,1.3910879164098096,-1.2510121701439583,1.6012618099375266,-0.3188123905327383,-1.559903905159488,-0.63891769100597,-0.005052206462265259,0.0321084188207819,-0.3517644273618538,-0.1780989652050489,-0.7391795938665217,0.48206839725171663,-0.4811756104390953,-0.16647651353090775,-0.6339761502519616,0.6217434017090533,-0.2398375260391632,-0.4588128887187707,-0.12326934599784314,-0.38924557136431454,undefined,1497375551604
903d185fccf839df,2.5973102178261125,-0.22882577169112767,0.9189692607396371,0.8957858840908661,2.2454179149776734,-1.5635588023195863,1.6135850799671503,-0.4578516419272955,-1.0158301697107475,-0.6884022759130991,0.11393141045029452,0.11372020693124546,0.10083138368983958,-0.2493881613984847,-0.581284695910842,0.4456974383731893,-0.440108072021843,-0.29215377854425495,-0.426569685856697,0.6801189056361521,-0.22254548076039943,-0.11095689889094039,-0.2899238574201304,1.3164285183133824,undefined,1497375553085
903d185fccf839df,2.3616879571294347,-0.430759194096816,0.3383789139757633,-0.024264313068892547,1.9756137912943892,-1.7698851406825336,1.6757615866331996,-0.6769400458914754,-0.17259810023406377,-1.1117843365436424,-0.012776662108031925,0.11282967704408882,-0.8000083556149733,-0.38178237550013716,-0.5486530229036987,0.4396355600747786,-0.4887036315483297,-0.3866096332157227,-0.4667873551979147,0.7085136411661492,-0.2887981379361864,-0.06218515268462712,-0.1548461347465514,1.2253928800418956,undefined,1497375554736
903d185fccf839df,1.1724872360547494,-0.6503030079901613,-0.3359996574250186,-0.34297679687537,0.8764430580141923,-1.8234599711510209,1.7605281228598377,-0.8327819130976384,-0.3751246782780825,-1.509822161400698,0.06740403134784437,-0.009257228084662183,-0.8000083556149733,-0.4197415489746802,-0.4907582348396655,0.4113470679078369,-0.467926744866028,-0.4962392203457984,-0.49279450093290483,0.897791336482511,-0.3012462307391903,0.042012891845761846,-0.15257017475244947,1.0692114455646498,undefined,1497375556085
903d185fccf839df,-0.28005621871338743,-0.7471605411361749,-0.7366704470642541,-0.6932989254156847,-0.7271485480446647,-1.7905944047677316,1.9355127951773619,-0.621312705229388,-0.48626652284678024,-0.5426368554223194,0.0724882529261404,-0.1380748356454268,-0.8391753008021391,-0.5826883497350883,-0.47075820402665564,0.3608319336076426,-0.48465692923240133,-0.6976711605625412,-0.5968440756573661,0.6986432427507573,-0.4646460725940929,0.20346175935310834,-0.030281194398710288,1.2582857508259229,undefined,1497375557619
903d185fccf839df,-0.9231670791936912,-0.8839351526104274,-0.7392224903103639,-0.7954024261109883,-1.2241122869875287,-1.7214672418566583,1.912217972003385,-0.8162733942421376,-0.3228983026373114,-0.6206885093159994,0.04839489626717278,-0.051006532608410156,-0.6389886920677362,-0.6752717274697826,-0.6876006011317369,0.4355944115131505,-0.4613310513885272,-0.7614565702224663,-0.6609208688462896,0.5815688619284045,-0.5402858593552425,0.20542846746979845,0.04255169299645095,1.3704468154378886,undefined,1497375559089
903d185fccf839df,-0.9647474436347541,-0.8440180742821884,-0.8355622499194828,-0.9039426304190532,-1.3656126219119402,-1.6593347850239875,1.9048203165285176,-0.7935874752202334,-0.36269656459668664,-0.6198667185139263,0.051157001531559824,-0.09922753881987098,-0.678155637254902,-0.8669193354395603,-0.9833903993601384,-0.13017582753178572,-0.7204044233948813,-0.9376833948468022,-1.0043523338008886,-0.2467905108815037,-0.8889752499648769,-0.343253123177041,-0.5696311494910178,-0.43372767701862214,undefined,1497375560572
903d185fccf839df,-0.9661334914383796,-0.8669117176649073,-0.7768652552589579,-0.8314996810835473,-1.4854718494672055,-1.6198844607159422,1.9047887630770413,-0.7508560895292483,-0.37529731517057424,-0.647190217076281,0.06854217143839905,-0.1161829441767904,-0.43880208333333337,-0.9372827196129504,-1.0697063105791924,-0.5827919989824296,-0.9126272523474446,-1.0056358802007013,-1.0642380378986227,-0.543703339167368,-0.9938697844898347,-0.3725226854990219,-0.6469431499487145,-0.48030324283560955,undefined,1497375562084
903d185fccf839df,-1.0548384460404168,-1.0077954925819943,-0.6333124414598587,-0.6484566759931658,-1.6462578650324053,-1.5431989209649095,2.0133182348268375,0.04315136021478334,-0.31222615588682223,-0.736435851500137,0.10070288650130975,-0.15815928280115182,-0.43880208333333337,-0.9483927228689898,-1.0991800270238412,-0.9586250617173084,-1.0650710469719562,-1.018814736225894,-1.0876563642209485,-0.937641770702505,-1.096212727946008,-0.3736439190601809,-0.6335228375889219,-0.46830588319343924,undefined,1497375563576
903d185fccf839df,-1.0451363529529065,-0.9391146208898226,-0.6384165279520781,-0.668682683497876,-1.595497948973257,-1.4984495793421184,1.9968924624899913,0.03457152780077409,-0.29786478737592637,-0.7619061490064251,0.06968608214755721,-0.6131630611369694,0.23138786764705885,-0.9641318963068414,-1.1023379283695824,-1.0313669512096415,-1.117715233260741,-1.0081817230828598,-1.0958566263971363,-1.0736100437912803,-1.1179704819311653,-0.36996199866272994,-0.6636576245093576,-0.5207868215479682,undefined,1497375566719
903d185fccf839df,-1.071470605619006,-0.825233594342304,-0.6447968902043021,-0.6382899852682672,-1.6075425009595004,-1.5493434561644344,1.9976235405202323,-0.03869449810600232,-0.29116867233429794,-0.7404332552693541,0.07490506360810682,-1.0130990500652293,8.238852217023172,-0.994684411736337,-1.2160222663827565,-1.0313669512096415,-1.1581215956825244,-1.0395994569875278,-1.1498999942753507,-1.0560404169447257,-1.150429669851,-0.3977853495996514,-0.6633719404659225,-0.5348645481229161,undefined,1497375568091
903d185fccf839df,-1.0423642573456555,-0.7688800376106816,-0.8042993389492139,-0.8941363108549376,-1.5710797047140659,-1.534564429143425,1.8812519875091909,-0.7622756482586224,-0.2978942313135128,-0.6743735789041089,0.05974628733315638,-1.4913715940013337,11.306929590017827,-1.0039427488622676,-1.2286538644034872,-0.8980068369614518,-1.133697076283262,-1.0521133534282945,-1.1835126736229178,-0.9690391994866291,-1.153730429860966,-0.42792149666614304,-0.6629254487315177,-0.5283458491189542,undefined,1497375569634
903d185fccf839df,-1.1116650257726723,-0.8674987326630287,-0.8866031148416784,-0.9563676245006469,-1.717260031592929,-1.6059672547307098,1.8938066870525072,-0.8329184379896952,-0.2977213780751652,-0.664237994136521,0.06645652066318665,-1.6303379522319998,7.120418337789661,-1.0076460843601787,-1.2223380598714464,-0.8111206872532871,-1.1615910893224257,-1.051315402558163,-1.179125673674255,-0.9093240288940555,-1.1410760944428548,-0.43882695129627064,-0.6684840630237455,-0.5257989881958689,undefined,1497375571090
903d185fccf839df,-1.1560175030736912,-0.9297223809198804,-0.6671268874023385,-0.7368401594234785,-1.8133387275412407,-1.590880773766779,1.794286943967119,-1.4725364602767121,-0.2676785839630924,-0.6504687309648495,0.09302800129015079,-1.6385545858592876,6.289208723262032,-1.0094977602033683,-1.2276012269404566,-0.6898842165430328,-1.1560397371502007,-1.0383645323724766,-1.1754593448666322,-0.8705199469348304,-1.1265259037956192,-0.43913204069945316,-0.6685851168732727,-0.5271948408407499,undefined,1497375572594
903d185fccf839df,-1.2308622988145137,-1.0130786275650867,-0.6109824442618221,-0.6685840642409554,-1.8774391915649977,-1.6193627124503547,1.785479734786173,-1.5881336824878078,-0.27573070551606726,-0.6628162851987898,0.09154100362661474,-1.3197354985713932,6.706989471925134,-1.0122752513042972,-1.2307591246050809,-0.7141315106850836,-1.1701712909201603,-1.0539055760073064,-1.1853528353912,-0.8090955481572919,-1.1266233598196274,-0.4426805006051473,-0.6677808804265575,-0.52418669926708,undefined,1497375574089
903d185fccf839df,-1.0728566016645167,-0.9326574559104873,-0.6084304010157123,-0.6957814511211359,-1.6924817861129158,-1.6042180021862527,1.789750531421047,-1.5156067380363603,-0.24670128839958036,-0.562711502913048,0.09819166456961535,-0.9861057650429903,4.452714182263815,-1.0085719190440798,-1.229706498185401,-0.5726889438576692,-1.1450723303901529,-1.0512014091013533,-1.177299506108847,-0.6633800579567208,-1.09526030771863,-0.46576361386611126,-0.651063519666698,-0.4920076727921047,undefined,1497375575589
903d185fccf839df,-0.8122858428093823,-0.9250262609349093,-0.7105121308601036,-0.7651512973613411,-1.540541467682195,-1.5624058288247487,1.830252165466551,-1.1610054663386893,-0.24822123644853836,-0.5958609844822265,0.09167802780148918,-0.3983745128995089,-0.2734305369875223,-0.9956102399448509,-1.1444432428349618,-0.4595348833295573,-0.9965958661957458,-1.024704373092882,-1.119995625138968,-0.43337347895826756,-1.0167802017769043,-0.4548903532122748,-0.6156330756123367,-0.3945267766093305,undefined,1497375577093
