UUID,iqrAccX,iqrAccY,iqrAccZ,iqrAccXYZ,meanAccX,meanAccY,meanAccZ,meanAccXYZ, covarianceAccXY, covarianceAccXZ, covarianceAccYZ,pressureDerivative, pressureIQR, iqrGyroX, iqrGyroY, iqrGyroZ, iqrGyroMagnitude, meanGyroX, meanGyroY, meanGyroZ, meanGyroMagnitude, covarianceGyroXY, covarianceGyroXZ, covarianceGyroYZ, class, timestamp 
903d185fccf839df,-0.9467292707579492,-0.7864906044662925,-0.8476840741330801,-0.8742879893828966,-1.3572596957318208,-1.6205535892978544,1.9255633050000969,-0.5647314746605645,-0.1749083055902043,-0.7453862371104322,0.03654913838774604,-1.0082453905864557,-0.845703125,-1.06227028862033,-1.143390612734165,-0.9404395893442251,-1.2512491283439324,-0.9749120580667776,-1.1693601263382123,-0.9119329584039875,-1.101763341168141,-0.4611597183464392,-0.688011732769319,-0.5316143461357008,undefined,1496075306757
903d185fccf839df,-0.8912886698184996,-0.7782723944925931,-0.8196115984258726,-0.8434242688244379,-1.2683260216525352,-1.6330983378579615,1.8882756662264324,-0.8023551328404082,-0.23925112919962255,-0.929273475256607,0.07280182750325899,-0.9022527676527287,0.5077324253565063,-0.9696869108856356,-1.128653747149607,-0.9121510689125619,-1.2379429517276521,-0.9231776773087779,-1.1204151944107126,-0.7932871803124367,-1.0474340310251808,-0.32595019297234656,-0.49145993370665775,-0.30656250570105886,undefined,1496075309293
903d185fccf839df,-0.6244808511213944,-0.2123893152087384,-0.5092194021520079,-0.6601486058573509,-1.1811171329796126,-1.7878670777768058,2.0651342708050815,0.2230021718372638,-0.3098063064032929,-0.5711650375997347,-0.11147395762819357,-0.6426622607090039,2.442144329322638,-0.8261826611510074,-1.046548393144909,-0.8757801312325758,-0.9711880282883238,-0.8089663165437733,-1.0523865191716204,-0.6456540742840211,-0.9516946007326019,-0.2791574305230155,-0.4454830748028013,-0.3051909538257511,undefined,1496075309623
903d185fccf839df,-0.7194228828181075,-0.4354552263978101,0.6069815926972923,0.5938598366034811,-1.2578164809926093,-1.837282086118331,1.9293724270219552,-0.7759570490619239,-0.23264691177405528,-0.36318404975878776,0.13217329872981395,-0.3977023467642742,2.38992173573975,-0.40215075149673724,-1.0265483660130161,-0.5747096029326478,-0.6418560486675353,-0.5671006426359027,-1.0286631453237356,-0.5309192085035711,-0.7890519462834122,-0.3703319313838057,-0.525926970622579,-0.4654658681510588,undefined,1496075311128
903d185fccf839df,-0.6237879307358108,-0.4985594556078286,0.7109774820447406,0.7334518023071005,-1.2167743278685534,-1.8509088505383597,1.983696915265076,-0.4207920323302981,-0.32467609733573394,-0.4400808587278482,0.0687856315798165,-0.20723319449064836,0.9668560606060607,-0.4049282458353598,-1.039179956671513,-0.5646065619402483,-0.683142269067574,-0.5355076113680729,-1.0436714609703261,-0.5468267336373399,-0.7735653240475003,-0.4010499275785985,-0.5963241357059696,-0.4693254874484972,undefined,1496075312644
903d185fccf839df,-0.6653683296822834,-0.586905271281082,0.9189690066026878,0.9091072421441707,-1.2345522697696494,-1.8607697240465881,1.981021589682953,-0.4674251121365461,-0.37234457672864085,-0.4301985559836387,0.06323291999360156,-0.09137235833977927,-0.5519510360962567,-0.4651074517235308,-1.057074708877345,-0.5848126297926868,-0.7870417751817711,-0.560895106806137,-1.0422124307238338,-0.504634650668817,-0.7826963420318727,-0.41887808229167045,-0.6275480585898732,-0.47971936299135254,undefined,1496075314146
903d185fccf839df,-0.5350829761337734,-0.5698818071075695,0.3753835410443551,0.3134571404717666,-1.0941010789879546,-1.8847795214530572,1.9529089655160545,-0.6531529894981034,-0.4008136810924515,-0.6797605237405628,0.01831221839403819,-0.20826366073175753,0.3184255236185384,-0.5243607678870087,-1.047601015883472,-0.47772039809972283,-0.8003192900491904,-0.6099978901585833,-1.0469069396509914,-0.32138058374657147,-0.7715524464887953,-0.42856155567513116,-0.6258524208957241,-0.48123417687103337,undefined,1496075315728
903d185fccf839df,-0.5420130426248522,-0.4518917048011936,0.17696205159084497,0.06510998820196712,-1.1075547694399395,-1.8678040270064065,1.9275918219072516,-0.7856789860107117,-0.35873411243665637,-0.8344054910626644,-0.009454289113558455,-0.21670501905256634,0.3097217580213904,-0.5650975069294344,-1.0507589135480964,0.031472743552443755,-0.8421540896213111,-0.6141459677800484,-1.0255946531028095,-0.04414697249704583,-0.7151799274637483,-0.4603062358936175,-0.6789835746457249,-0.477042770767661,undefined,1496075317151
903d185fccf839df,-0.4851864283871869,-0.4471956140442148,0.002784718838428309,-0.059767970073206146,-1.0071766487886775,-1.8719687076430507,1.923326274404087,-0.7856028822708366,-0.39235489679007585,-0.8400393404061298,-0.049087058922812454,-0.20580143904463427,-0.45185773172905525,-0.6067600450411312,-1.0265483549696655,0.4800477240443772,-0.8292434661453804,-0.633246124792656,-1.01016668461202,0.2767412316061644,-0.6604466493273594,-0.4624315926401023,-0.6654416800044932,-0.4654460395268013,undefined,1496075318681
903d185fccf839df,-0.11927850359331148,-0.6878719532559339,0.09019258122311243,0.005202158455581146,-0.9447424665368536,-1.9316834137788876,1.946815696749243,-0.6786630877050178,-0.33716755932251763,-0.8802866783934999,-0.02843701608791664,-0.07246320376579844,-0.6955631684491979,-0.6289800127008863,-0.9991799208133116,0.4093263947004974,-0.8412923426305001,-0.6426442133095658,-0.9807171071549551,0.4395181994016078,-0.626614941302763,-0.44344602380383713,-0.6649215851381248,-0.46571855703230775,undefined,1496075320136
903d185fccf839df,-0.4089555589636816,-0.7741632748917472,-0.23327902728977695,-0.28159375393303626,-1.0383320255723172,-1.9724101606464663,1.9541633686741915,-0.7216037275630447,-0.38328949860699385,-0.6659561137036142,0.02037882441929128,0.07031335652810777,-0.2908380681818182,-0.6308317273963996,-0.9739167026851487,0.3426464117712966,-0.866265171125387,-0.7069299249829482,-0.9795906204998199,0.6016792278310342,-0.6231253090183083,-0.44057668622544993,-0.6246386883544633,-0.4856601271814726,undefined,1496075321642
903d185fccf839df,-0.6307179282160701,-0.690807042860537,-0.3359996574250186,-0.43333786549013803,-1.1968037609242836,-1.8521142721196515,1.913419779092249,-0.8555873501385889,-0.37673323221353733,-0.5778966176061697,-0.027952975046497255,0.09314830589754268,-0.0775958110516934,-0.6474967193296841,-0.9360219159851902,0.40528516134470466,-0.8610611559318629,-0.7169106451099211,-0.9436969800540574,0.6968108235962578,-0.5932586158254222,-0.45877360387817046,-0.6559824543455882,-0.5007143955679149,undefined,1496075323139
903d185fccf839df,-0.7693193960592842,-0.4583489282365135,-0.18670436511674818,-0.15895545072546824,-1.190447196549571,-1.785181254082124,1.9410616731530022,-0.5779864208593436,-0.3505778573096844,-0.30441260759693106,0.035168722180930194,0.19433264912799117,-0.673803754456328,-0.6650875491845635,-0.94865355081709,0.38305846268200905,-0.8212746977558124,-0.6938207319361667,-0.9028565948262003,0.45691843920186204,-0.6181663977145578,-0.4614000138531443,-0.636132283602201,-0.5129831619902154,undefined,1496075324629
903d185fccf839df,-0.4990465268639347,-0.2223686651677771,0.9011047038799193,0.6878228855730116,-1.085913656073231,-1.7170300445484135,1.9441069850401436,-0.4213166401281086,-0.37044763114727336,-0.1594099807639008,0.12160176795875932,0.0191902943529701,-0.6346368092691622,-0.6613842104489588,-0.96233776421415,0.06380244081045672,-0.912531115724429,-0.7087284824434705,-0.9082021581402356,0.17374102992171758,-0.6775220956969307,-0.46254297572599623,-0.6380192372100012,-0.5135534617181232,undefined,1496075326167
903d185fccf839df,-0.3160925989724067,-0.34035873824616064,1.5040255561157285,1.5140989223654304,-1.0174623418881201,-1.8162206951889577,1.977229405231962,-0.3515482888748556,-0.2700276256469478,-0.1748568388210849,0.15873664927559306,-0.019220813566750615,-0.5954698640819964,-0.6576808717133542,-0.9486535287303887,-0.12411409055698269,-0.9766973132280526,-0.7069742562198698,-0.919718909308143,-0.056511924769293384,-0.7258660788894553,-0.47477741667184936,-0.6490044317050911,-0.5190105176699323,undefined,1496075327655
903d185fccf839df,-0.36321708561715205,-0.3068988541252492,1.5537903994148692,1.4235452823261903,-0.9515927440473285,-1.7601535787782012,1.8568842233774385,-1.042802297882135,-0.32366204715743563,-0.22353487111270143,0.0707723623875558,-0.08360602105247053,-0.4300983177361854,-0.6567550726440831,-0.9349692785221597,-0.11603156731595408,-0.9618937009871911,-0.6851256002560342,-0.8962795934095757,-0.08918742735254429,-0.7128873982977383,-0.4941661378790355,-0.6645791134149424,-0.45392296911052027,undefined,1496075329128
903d185fccf839df,-0.015327471721720323,-0.44308647982937277,1.3362285856155358,1.2230438394640104,-0.7588490671374386,-1.7682989287720008,1.8070231057107962,-1.3247548526283917,-0.26043435815108956,-0.21332367512387124,-0.01989710560740102,-0.15368698328672128,-0.6128773952762924,-0.5910208392263433,-0.9402324511128451,-0.11401097890277923,-0.9130264700795802,-0.5927026191042328,-0.9056343303713795,0.05195472121182684,-0.6621591775833571,-0.4698380627237943,-0.6042959514707664,-0.4723076499072472,undefined,1496075330637
903d185fccf839df,0.6832239206872135,-0.47595929049617813,1.197779858308656,1.146929042544956,-0.028112002355337017,-1.82603611047709,1.8012322659135866,-1.2209189842869153,-0.347118589892522,0.19006667538252495,-0.0482307475086378,-0.1525483355162168,-0.3343568961675579,-0.6252766869160563,-0.9497061514689517,-0.11805218399385047,-0.961474255487801,-0.6423845629399193,-0.9242248579473136,0.04614950671315997,-0.6919732521893239,-0.4646253797887563,-0.6404045978535564,-0.4962642200321048,undefined,1496075332130
903d185fccf839df,0.5709568435317376,-0.5687078355673114,0.9011049580168687,0.9758754081112092,0.3357342434551299,-1.855291355042517,1.8019475766457853,-1.1779947039736298,-0.2990681549992744,-0.010849731987394527,0.046204967566894385,-0.0008863007206377338,-0.36917195855614976,-0.6373125280936904,-0.9307587654812062,-0.09380489691797997,-0.9280402776761523,-0.6391737607114115,-0.9187043742757223,0.13533730384196094,-0.6732256554743508,-0.46212855746223924,-0.6673530100389385,-0.46858136099502457,undefined,1496075333629
903d185fccf839df,0.9257764549074285,-0.5945365247126447,0.6414341765197744,0.7059027972259247,0.09990378024472886,-1.870589797074723,1.7756048023535076,-1.4370995898127756,-0.3565429719705121,-0.08742449389877904,0.06932674785728239,0.2520028732382897,0.4533338903743316,-0.6493483951728737,-0.9076008590902735,0.09815278301108761,-0.825875340215799,-0.6742266039436294,-0.9099513638751161,0.22554139810097068,-0.6638814762503661,-0.4612076266339494,-0.6695338874309149,-0.4333146655271788,undefined,1496075335117
903d185fccf839df,0.0026908046713136615,-0.5845572112885965,0.6325017710214408,0.6884685857351726,-0.6800503433800577,-1.8765689539299655,1.8123353076598396,-1.4476687977214595,-0.35094176656314297,-0.5466740697752822,0.13256241449293493,0.18197375757896092,1.6675091911764708,-0.6771234162637467,-0.9349692932466273,0.1385650035101292,-0.788305425757108,-0.6873991265157713,-0.940373496900149,0.05372554499598877,-0.7140649380709496,-0.4454230319109852,-0.6316845269091684,-0.4646067601253341,undefined,1496075336637
903d185fccf839df,-0.6029976104936404,-0.5252686380223517,1.0771959419984436,1.040860789055466,-1.2921521734711479,-1.8845233051943617,1.871621658748059,-1.2181231935877468,-0.32776211339597827,-0.509600897034712,0.13672263698670079,0.10429942295270865,0.7013912098930482,-0.7215634098617425,-0.9486535360926224,-0.3019275244025794,-0.86803428235798,-0.7462321734337694,-0.9484128320040961,-0.14417527360455554,-0.7785608934494794,-0.4552026142242435,-0.6581015132153484,-0.46775135208351476,undefined,1496075338216
903d185fccf839df,-0.03334561009311537,-0.5728169405541611,0.8749461335388193,0.877299515822947,-0.8814340047139777,-1.8918021781610639,1.8580965664405058,-1.222429534524452,-0.22646390483136675,-0.5336108669589125,0.15734879488054135,-0.22948610143774148,0.7710213346702318,-0.7780392834896961,-0.9718114572080228,-0.42720520727008543,-0.9155844669859342,-0.7899231522461264,-0.9386033026228103,-0.31244948339530343,-0.8243908645239846,-0.4695402958323381,-0.6612471358118255,-0.47145079193995815,undefined,1496075339639
903d185fccf839df,0.5266043834834238,-0.6233002888485851,0.8704804390635513,0.7867432455524827,-0.482451816843848,-1.8801792745681472,1.854383281854794,-1.1235011536789645,-0.21735414657504412,-0.6380300021864409,0.11651534971868611,-0.11383626462114368,-0.7521376448306596,-0.7845201100885361,-0.9507588036564498,-0.4898440275052973,-0.9549000024402464,-0.8011577941526464,-0.9444456390686614,-0.3958936600630065,-0.8449587980878058,-0.4654177006885962,-0.6729918417532695,-0.4590276201622934,undefined,1496075341168
903d185fccf839df,0.4517595963689537,-0.5874922862792035,0.9106752472582551,0.9003353602824723,-0.44786101412454604,-1.8792452508291682,1.8896016396943114,-0.8795902705895794,-0.19013090909438396,-0.7198937728532895,0.08906981228984658,0.13060577020166422,-0.28213430258467026,-0.7456350857416236,-1.0118115041095748,-0.6211835250755906,-1.0583377699653707,-0.7756803613232487,-0.9503999251308308,-0.6880483667539332,-0.892794365874039,-0.4716553823021624,-0.6303929208165066,-0.5200781493108718,undefined,1496075342640
903d185fccf839df,-0.35351495802423205,-0.6021677196882228,1.146101363780357,1.0986922250862032,-0.939198474888873,-1.8830279342498275,1.9339059878798788,-0.7269876887230096,-0.30442554182829,-0.7681849784973293,0.15121442656573525,0.2779816742715781,0.4054631795900179,-0.7067500613947112,-1.014969401774199,-0.5827920060486099,-1.0457799796600427,-0.7385123152294453,-0.9439208787606267,-0.6623329631009564,-0.8661288036142507,-0.4615667821070756,-0.6387091134598744,-0.5217065861795408,undefined,1496075344143
903d185fccf839df,-0.568347364301771,-0.507071202308581,1.2807217720811226,1.3523879372038141,-1.1936254812015694,-1.8733825545766454,1.945966270754246,-0.6955149828874493,-0.27894229826241035,-0.5647081678285957,0.1819037847897447,0.2535363116935173,0.26620293003565065,-0.7224892283571754,-1.019179936901854,-0.5504622875920558,-1.054783568749873,-0.7179302485215346,-0.9630221729127351,-0.6428385310044099,-0.8580241919562219,-0.46952969501285596,-0.6428021638402912,-0.5210237147711474,undefined,1496075345640
903d185fccf839df,-0.6445780957036373,-0.4765463931782766,0.7313938280136189,0.7760645158351539,-1.2338116993168102,-1.8310299974882729,1.9149661281456347,-0.8715819217711446,-0.28994902649687804,-0.5499886219317741,0.1491476099863392,0.12949069935814445,-0.45620961452762926,-0.7160084147091101,-1.0297062526342897,-0.5322768364175138,-1.0289620635714576,-0.6719530774790357,-0.9833828928085482,-0.5665854316987755,-0.8308651156856172,-0.4676041567338174,-0.6185485499755001,-0.5140956183664545,undefined,1496075347142
903d185fccf839df,-0.738827068993128,-0.5446401914163421,0.7626567389838879,0.7128694072685092,-1.3362469549566147,-1.8452709656213866,1.9436494165215787,-0.7142202937918418,-0.28987010915570166,-0.4562339360731961,0.06385258721879399,0.017574925789587664,-0.8957497771836007,-0.6789750791561618,-1.0465484005071428,-0.5524828477405092,-1.016843888882415,-0.6465579727458072,-1.00899821778897,-0.5596561318672127,-0.824672113423437,-0.4657009777470278,-0.624670021297715,-0.5088013929906116,undefined,1496075348626
903d185fccf839df,-0.7707054438629097,-0.5534453871601707,0.8972771472846535,0.8676411216104422,-1.3001441589557474,-1.8510288455224364,1.9204019329525124,-0.8632244852140858,-0.38822276222842833,-0.5337143462296233,0.05623533356779788,-0.07668984997284445,-0.852230949197861,-0.7048984114530708,-1.059179983803406,-0.5484416709141594,-0.9833964896857186,-0.6818641332655776,-1.0367685607151542,-0.558917008047419,-0.8538584404204549,-0.4432983227558899,-0.6292927866424552,-0.497638361106985,undefined,1496075350125
903d185fccf839df,-0.7374410556949123,-0.6591082037339897,1.1065446934656555,1.1520777937554083,-1.2399008344842402,-1.898170317612781,1.8956265183820022,-1.072198889716638,-0.3571247753456931,-0.45975050179099547,0.11762042400716739,-0.018694143219741357,-0.8609347147950089,-0.6882334195197861,-1.0381273155273656,-0.5423798491451919,-0.9883608181925884,-0.6897359820794023,-1.035865971897966,-0.5551443895727319,-0.8573737655326634,-0.4514165349755019,-0.6355653769912173,-0.493610898830071,undefined,1496075351633
903d185fccf839df,-0.5641892208908945,-0.607450825443323,1.1142005690670354,1.1131500754565717,-1.123981030425107,-1.9020112325860594,1.9276970077606665,-0.8405853960836881,-0.36548663905695467,-0.6187139400399959,0.12960012462263015,-0.061081405829074696,-0.7695451760249554,-0.6984175848542308,-1.0433904807558172,-0.6191629013315137,-0.9884664290380463,-0.7048463858154663,-1.0409176690511908,-0.5698499043815939,-0.8711018156248356,-0.4536964157184879,-0.6322894408801137,-0.5006094122108032,undefined,1496075353138
903d185fccf839df,-0.544785034715874,-0.6227132738504637,1.1320648717898039,1.1175770910506466,-1.1159170453393104,-1.9023117044193407,1.9047940268740557,-0.9788035119839518,-0.31279237425039635,-0.5464113801005414,0.05606429707158627,-0.05657580161957216,-0.9305648395721926,-0.7197117404939402,-1.0191799516263216,-0.576730177213462,-1.0101232903235224,-0.7447375983826315,-1.0098798157208657,-0.5135223899967162,-0.8743465898724571,-0.45292102684051583,-0.6274479938094527,-0.4938926158320229,undefined,1496075354653
903d185fccf839df,-0.44499200823352036,-0.5722298963280473,1.1027166285964909,1.0938414373702106,-1.1312221611481907,-1.9042077048137802,1.9759881395684034,-0.49712865553444047,-0.37212119122313425,-0.6411752206276561,0.026246663623544535,-0.07898338641441119,-0.9436204879679144,-0.7243409236265269,-0.9560219615226677,-0.5686477528989587,-0.9898130472198561,-0.7449402520044949,-0.9805631781231202,-0.5446888423818546,-0.8707126538898482,-0.4187205552332789,-0.6152269477125173,-0.48318747068486645,undefined,1496075356141
903d185fccf839df,-0.4380619417424416,-0.524094608026109,0.9674578282787736,1.114529545698606,-1.0845559512940364,-1.9065998346072308,1.906947843767195,-0.9496865739399643,-0.36251918346295225,-0.48128382173329876,0.10272634446015282,-0.028574724979251866,-0.9566761363636364,-0.7021209106390609,-0.8760218677195635,-0.5504623158567774,-0.9490385669238567,-0.6697745443280295,-0.8984416080866932,-0.43594502047863143,-0.7871108709231922,-0.4322214102131821,-0.6219799271017475,-0.4723441213219419,undefined,1496075357640
903d185fccf839df,-0.4311318752513628,-0.4501306598068294,0.9285392958440741,0.9899937791217012,-1.1126667590895951,-1.8801373479115833,1.9295378827554803,-0.7782354929040413,-0.37922406321983965,-0.29017041809150074,0.14273120711872436,0.035485230545029486,-0.8565828319964349,-0.6947142461186261,-0.8623376395980359,-0.42922576741853874,-0.9566180344117028,-0.6915852023640408,-0.8807676640935915,-0.373719902012856,-0.7780052914227081,-0.44003183831076104,-0.6295054816584206,-0.47582818866145005,undefined,1496075359126
903d185fccf839df,-0.5378549682247953,-0.4630450189934923,1.140358885271186,1.1241590934770438,-1.0989764963133888,-1.8595841411963583,1.9265898652163194,-0.7858765281398489,-0.3466773264938309,-0.18209595431815287,0.12181343926644386,0.034796622578541964,-0.8130640040106952,-0.687307594548966,-0.8549692141679907,-0.4171021238806035,-0.9164524882946281,-0.6810661827442561,-0.8821110515494652,-0.3013164122109944,-0.7612344650769337,-0.4420303042299576,-0.6121645776019319,-0.4929056910861857,undefined,1496075360626
903d185fccf839df,-0.557259119894406,-0.46715415320833437,0.8915344146385329,0.8965161402087803,-1.143266708899331,-1.8437290100338393,1.9414430046066877,-0.6731025065381443,-0.27423733516548937,-0.3034729299967143,0.018640089033871304,0.09540785365903065,-0.7216744652406417,-0.6215733611312262,-0.8612850021350054,-0.33223661911505675,-0.8970480673051168,-0.6603511240807036,-0.8874636117538991,-0.18045401366076996,-0.7267913037987521,-0.4439034012781381,-0.6150962903851004,-0.5250206254118603,undefined,1496075362129
903d185fccf839df,-0.5198367263371709,-0.5352478929904153,0.6006012304450685,0.6699045814404668,-1.1754506540664733,-1.867456971037502,1.9953645482488953,-0.34410340261683103,-0.2561006352348332,-0.34399675824882,0.06221554181814571,-0.03597733931596539,-0.6999150512477719,-0.6197217111895856,-0.9065481995405416,-0.36254575622461643,-0.8719377245428815,-0.6495851195467673,-0.9114276890309867,-0.22005881479666425,-0.7371016761849158,-0.42866539611375226,-0.6100595253226342,-0.5263825036757289,undefined,1496075363632
903d185fccf839df,-0.6279459016196386,-0.5951235104827738,0.3804871192626758,0.4528804585208722,-1.2997533024862902,-1.896626033899102,1.962068573598738,-0.6116488954910985,-0.28193494041170303,-0.36702217117143543,0.057201166127192046,0.020731868050634684,-0.5867660984848485,-0.6512000710160634,-0.9497061588311855,-0.2736390039709162,-0.8841187761340976,-0.6713641128588549,-0.9451873011745159,-0.25864731845232963,-0.7634074689562464,-0.45152237075838764,-0.6160710346690873,-0.528279294204135,undefined,1496075365129
903d185fccf839df,-0.7152648084180505,-0.6990252820622288,0.8538919038268884,0.8232285358944655,-1.3181544137279126,-1.9334652805424282,1.909051693870764,-1.0228018017218676,-0.31161723609563113,-0.4038912891366804,0.15483005057085322,-0.15557829070491958,-0.40398702094474154,-0.6243508489944615,-0.9539166792343727,-0.3241541948005535,-0.8284650647355003,-0.6675136824552107,-0.9579354917907656,-0.3176233642288985,-0.7779475307292879,-0.42790217392316177,-0.5957134105027985,-0.5092576941092372,undefined,1496075366628
903d185fccf839df,-0.5142927249024226,-0.6843499071091941,1.0159469040918088,1.0214808511902929,-1.242770539270752,-1.9292749789081716,1.8938330060375796,-1.1059405801332516,-0.36085519376666975,-0.2764134325589272,0.10101364153866758,-0.08799843508177058,-0.5998217468805704,-0.6141666836600169,-0.9476008618184228,-0.26353599124323807,-0.8125146032495099,-0.6643915404194398,-0.9641346662091504,-0.2595866220494628,-0.7718703540166472,-0.41389165516593035,-0.5888841417929555,-0.49129253804039236,undefined,1496075368165
903d185fccf839df,-0.5600312500070668,-0.6667394279375601,0.8730324823096611,0.8585372114805415,-1.199519182617834,-1.9290956271961948,1.9460819842016899,-0.7538896819249078,-0.3548249080425425,-0.6467689285747286,0.08424888393480888,0.03439158490975739,-0.5824142156862745,-0.6474967193296841,-0.93075877284344,-0.3524427152322168,-0.8349392689753826,-0.6608514250809511,-0.9496022900855795,-0.38723973711469556,-0.7871498878052692,-0.4028628495858552,-0.6010998914502862,-0.47526626928974003,undefined,1496075369630
903d185fccf839df,-0.6016116489535394,-0.6450198437790764,0.7441537901072184,0.7774862394602969,-1.2196585790635837,-1.930800630646155,1.9001077108167077,-1.070066715461487,-0.32733196867990466,-0.4484693791421103,0.08749690202358694,0.010398611087507049,-0.7347301136363636,-0.6474967063789095,-0.902337686499588,-0.3665869613156877,-0.906671830859032,-0.6476472372367557,-0.9207334485429849,-0.37602966920674363,-0.773362034040867,-0.41114363830196454,-0.5919539940519011,-0.4830620408911545,undefined,1496075371134
903d185fccf839df,-0.5849793858587211,-0.5669467321169626,0.6892851144528075,0.6556224325060113,-1.2345111248629437,-1.9151714362001409,1.8917738505463915,-1.1163563673569072,-0.30976991059397607,-0.5341539767429953,0.15615141703362376,0.0726825402483444,-0.7042669340463459,-0.6521258765607217,-0.9233903400511609,-0.3968960701605258,-0.8810069966222247,-0.6889190323948489,-0.9349439708646295,-0.40990624945782017,-0.8027749453219689,-0.40120563690942884,-0.5740183656200993,-0.47928225211364295,undefined,1496075372636
903d185fccf839df,-0.43944795504065737,-0.4466085844320973,0.7977469524124732,0.6328211027400542,-1.195631191265847,-1.8920094810997339,1.897475271788228,-1.0398366609872285,-0.3700287149542845,-0.3773511108264759,0.18817901613566243,-0.053852300115530174,-0.7042669340463459,-0.6863817372012093,-0.943390363501937,-0.3221335922550179,-0.9182842358237081,-0.72094472898667,-0.9280031334656507,-0.33041947409101374,-0.8028511288845183,-0.4162480264305261,-0.5720712142936542,-0.47041430760639785,undefined,1496075374123
903d185fccf839df,-0.4685542688085979,-0.4295851202585847,0.7160815685369603,0.702356092978594,-1.1188690361702518,-1.8622907181813826,1.950352786074173,-0.6437666135319697,-0.3868042892085297,-0.39426486518043574,0.19329446724675806,0.016827621932751252,-0.8739903631907309,-0.686381730725822,-0.9707588050205245,-0.34436022025590973,-0.947915527298949,-0.7047513917599654,-0.9444946168732565,-0.32255086527739385,-0.8001132112501824,-0.42211184851934663,-0.5786780108974038,-0.47850562808887054,undefined,1496075375172
903d185fccf839df,-0.46301021561573485,-0.443673480213498,0.6631265441117076,0.7224414358576497,-1.1315204451039786,-1.8523169153195669,2.0040534314630434,-0.28186411647891263,-0.3798036376215586,-0.24223103052085362,0.1840456478341399,0.03989645464293407,-0.7303782308377896,-0.7271184179651495,-0.9644430170535099,-0.40295792019421495,-0.9493670909128245,-0.7139278278461262,-0.9351748646509471,-0.399435304279215,-0.8127136656020887,-0.42149157543523275,-0.6048594148860055,-0.4968047895113398,undefined,1496075376657
903d185fccf839df,-0.5517151012069528,-0.6092118704376871,0.779244765946652,0.7465433920679772,-1.0870862317852443,-1.8397576570781449,1.9664130173008556,-0.5065785772015071,-0.3549340168292361,-0.3132814661594524,0.08665213133568261,0.026414491670520186,-0.8217677696078431,-0.7428575978783883,-1.000232565638576,-0.372648740687573,-0.9254052520219112,-0.6928581241040999,-0.9380225668551495,-0.3262926875612284,-0.7955791365782907,-0.41745252811210565,-0.5924344099557671,-0.4927710207882659,undefined,1496075378161
903d185fccf839df,-0.580821449480303,-0.6139079904226582,0.7045976280664156,0.730761888017931,-1.0296611823687318,-1.8459371285124655,1.958334250585317,-0.5587953216483219,-0.3341846144169591,-0.21802398548894325,0.10517272736616243,0.00882011270303786,-0.9436204879679144,-0.7363767453779992,-1.016022024512762,-0.3382984267516636,-0.9131540677880708,-0.6656074673384756,-0.9233712447753973,-0.2655304214936241,-0.7670028072359507,-0.4185095565466562,-0.6098107694641811,-0.49081516173350814,undefined,1496075379672
903d185fccf839df,-0.4020254579671931,-0.6414977537903481,0.6248458954200609,0.6278330709273824,-0.8971814041851712,-1.8335711974572881,1.88799482768298,-0.9720967419566231,-0.35316963198653306,-0.2707405476074028,0.07448479747938726,-0.03152376317941358,-0.9610280191622104,-0.6234250758267394,-1.0191799221773863,-0.35244265870277375,-0.8467999575062309,-0.5995675309696122,-0.9555145944322173,-0.30351838639615053,-0.7504358234620728,-0.42581261174275103,-0.6331318586866758,-0.5034676307991257,undefined,1496075381181
903d185fccf839df,-0.34658496054397275,-0.6561731287433828,0.49979526808678276,0.6096134681209011,-0.8642054612302971,-1.8528968954557974,1.872697249935973,-1.1063657230951804,-0.3490616117167571,0.007621852074678031,0.11234207610510437,-0.02712878818528858,-0.847879066399287,-0.6178700353463961,-1.0265483844186005,-0.34031907169428155,-0.8546443703858706,-0.6042602422843896,-0.9345521488132442,-0.2894442081736819,-0.7436388340945042,-0.42508950654527244,-0.6558569562244352,-0.5059564654886257,undefined,1496075382672
903d185fccf839df,-0.27312622123312813,-0.4741983624137833,0.682905006337533,0.7404468969729164,-0.7152479998360071,-1.8291945561021052,1.9471155016767512,-0.5433846131498875,-0.40963128284335587,0.19044756071854035,0.1426054452191422,-0.051053629261106105,-0.8261196524064172,-0.6252766998668308,-1.0065483315188894,-0.2958657026336118,-0.9057198863827471,-0.6128477135676599,-0.9379036216207816,-0.25906307497160086,-0.7437671958741958,-0.4263747891848624,-0.673109164239321,-0.49300237882338044,undefined,1496075384228
903d185fccf839df,-0.27312622123312813,-0.43604224139593145,0.6656785873578174,0.7909831385190075,-0.7222937044499161,-1.8229219156753196,1.9766403360649971,-0.339413337321144,-0.4058816861382383,0.3276273279072904,0.11998742906213664,-0.015036734089502079,-0.9740836675579323,-0.5660233319002547,-0.9970746458872505,-0.2837420449633158,-0.8929192289693793,-0.6088959564029139,-0.948146952854344,-0.20175006081858768,-0.7319309324499298,-0.4302985323440444,-0.6694556714265264,-0.4885864398790867,undefined,1496075385665
903d185fccf839df,-0.24817794735983487,-0.4354552556258024,0.7913665901602494,0.7323550663503282,-0.7045097376232772,-1.8022429292640312,1.9852608517217423,-0.27140340917118017,-0.3912691476756862,0.3268071506274254,0.18204248465933429,0.013617544430080893,-0.9566761363636364,-0.5873175134415132,-0.9844430478665197,-0.3746694280272732,-0.9246904970619914,-0.632416508750131,-0.9524989695071392,-0.26197338202253684,-0.7509438334560536,-0.4457419920217917,-0.6764945347672378,-0.48643702919872633,undefined,1496075387218
903d185fccf839df,-0.33272479305640545,-0.43310725408930156,0.8494259552146709,1.0008192188334815,-0.8705208853515158,-1.7774435194795672,1.908796610791204,-0.7712742966836811,-0.3521409706445852,0.25877749299067215,0.2139488765443804,-0.049183744514423644,-0.9392686051693405,-0.6373125151429159,-0.9876009160822088,-0.31000996284944343,-0.925910911714079,-0.6697745430545963,-0.9606362601285204,-0.28380837639991396,-0.7710629057146584,-0.45695891535227856,-0.7014218485705895,-0.4741926079613734,undefined,1496075388644
903d185fccf839df,-0.3341107718492115,-0.39084211576857697,0.9980826013690404,1.0080001072496694,-0.9727298535159167,-1.7859708651014934,1.909827490606388,-0.7679059833179754,-0.3461816474505721,-0.03551547060541728,0.23985956502829922,-0.07963027086512613,-0.8913978943850268,-0.714156751816695,-0.9791798973625356,-0.3362778100737672,-0.9316991057017606,-0.6667093983867153,-0.9680598764013872,-0.2688410879646158,-0.7708345374720716,-0.44923093964818356,-0.6744957902616636,-0.4833330041109612,undefined,1496075389940
903d185fccf839df,-0.5309249362391262,-0.3820368615687638,1.0516752554003963,1.0554931730251165,-0.9908429659906571,-1.8070993936647843,1.9291618234789831,-0.6606038573021086,-0.3503662407215886,-0.12322598085286864,0.2076027317134651,-0.15636653512223025,-0.7521376448306596,-0.7067501002470349,-0.9791798605513666,-0.394875538276794,-0.9562393486353535,-0.6672730303906133,-0.9621895518862261,-0.2474064524149526,-0.7701815452735666,-0.440102685472693,-0.6646434095924674,-0.4856914930062272,undefined,1496075391410
903d185fccf839df,-0.5725053351855988,-0.4460214963639951,1.0886801366059375,1.0023103048647102,-0.9970040979025397,-1.8203201548619168,1.9900733868226053,-0.27677464922365147,-0.29692485400927543,-0.012112236090729511,0.2249726632640078,-0.15258705866665984,-0.673803754456328,-0.6817525799701717,-0.9697061528330263,-0.29788629104678666,-0.9359500526964458,-0.6597051627459597,-0.9461948424545904,-0.2977439711173556,-0.7638304400553213,-0.4443252687982754,-0.6443115115949373,-0.4989848803312037,undefined,1496075392960
903d185fccf839df,-0.5725053351855988,-0.4401513463827812,1.0797482393815028,1.0197332049139076,-0.9713618529870651,-1.835213310912889,2.035142995245832,0.008799115600827237,-0.34626801302691274,-0.12237133665549503,0.1519570830569119,-0.23729116981648138,-0.38657948975044565,-0.607685857061177,-0.9686535521811647,-0.30192749613785785,-0.9238209812336012,-0.6230437519138077,-0.9572078228356509,-0.34135236742309366,-0.7576544278197466,-0.43463296100229976,-0.6373721754171092,-0.5074376968295764,undefined,1496075394378
903d185fccf839df,-0.5849794548695405,-0.571055895559797,0.777330606443595,0.8112044599275401,-1.0915707963741939,-1.8572618890823027,1.9435810374414368,-0.6868530200679791,-0.28829823825345824,-0.22044479973300266,0.19795608736339054,-0.2038408216766393,0.08777573529411767,-0.7086017760902245,-0.9454956310657644,-0.34233968837217793,-0.965099589941197,-0.64259354953868,-0.9382674560004658,-0.38513014688452457,-0.7704935890402249,-0.44134614492670593,-0.6519714506112405,-0.5169112519069868,undefined,1496075395882
903d185fccf839df,-0.6071556676409926,-0.6409107387922267,0.8054030821508025,0.8960793623285868,-1.1146004679562602,-1.8485342303794565,1.9253196675245743,-0.8099204082893083,-0.25371332827997434,-0.33344245598997163,0.1762784949233205,-0.20374509522538528,-0.5127840909090909,-0.707675925217855,-0.9391798283742822,-0.30192751027021864,-0.9851802714164378,-0.6635302616738743,-0.94422174224003,-0.3053661992304389,-0.7684818645302496,-0.4380960730683633,-0.6512793792500771,-0.5268614717885732,undefined,1496075397456
903d185fccf839df,-0.45192204021918936,-0.6379756345736275,0.7971088145324711,0.8372609098973638,-1.0690862588751187,-1.833745891277952,1.9172040887981538,-0.821317703579047,-0.23140448799280502,-0.6277346912778055,0.1342429213815564,-0.017902383589222134,-0.7651932932263815,-0.6678650629493479,-0.9697062043686628,-0.4231640021790142,-0.9816046147559625,-0.6668170596528341,-0.9429203363773466,-0.33274463680902644,-0.7776965934304623,-0.43358008657886443,-0.6218252313605973,-0.5469333202253678,undefined,1496075398878
903d185fccf839df,0.27712157573967156,-0.6591081745059973,0.7511722902394444,0.8056901435557875,-0.5449477113333963,-1.813320793385205,1.9244255427271089,-0.6021165467104646,-0.20781084047288495,-0.30425085834473736,0.03749229955601888,-0.04105795878796593,-0.9914911987522282,-0.6549033838501189,-0.9054955620775109,-0.2898038667322834,-0.9236116924092986,-0.6686979447167628,-0.823729664818162,-0.0950080368099193,-0.6856473732133221,-0.398974119075886,-0.6612919173130296,-0.4037336287655814,undefined,1496075400408
903d185fccf839df,0.3783005810148312,-0.6638043237189608,0.8845166769171552,0.7869480318858552,-0.30389211245904474,-1.7954275771654558,1.913430319256539,-0.5823603784928043,-0.25213243229650656,-0.11234739010391644,-0.01616460428142285,-0.0149167657457406,-1.0088987299465242,-0.6271283886607949,-0.872863977417173,-0.25949470135800223,-0.9167804371436327,-0.7039027790235614,-0.8039356869030958,-0.08681606365748495,-0.6864351013695591,-0.4266595231132558,-0.6515589050654547,-0.419999864180323,undefined,1496075401897
903d185fccf839df,0.11357197204480306,-0.6638043237189608,1.0210509905840284,1.0067678896108496,-0.34310119059995525,-1.7948126578850936,1.929645697888598,-0.48711952765680905,-0.21879198968650823,-0.05477856847397654,-0.04548452784648104,-0.0377683295618361,-0.852230949197861,-0.7104534325072522,-0.8928640008679491,-0.31809235889922516,-0.9273159109541761,-0.7504435818318815,-0.8185100435493713,-0.13102500043953744,-0.7258201829513439,-0.41487653588222306,-0.6308071168914415,-0.3956471246936758,undefined,1496075403385
903d185fccf839df,-0.08878624553797466,-0.6368016045773847,1.0210509905840284,1.003090926286834,-0.6573189498702463,-1.8349244861165142,1.9003812135194922,-0.8090038173405583,-0.2415705650153727,-0.2574647356445815,-0.013817632932402265,0.019693219659685228,-0.8130640040106952,-0.7604484471594295,-0.9265482671647203,-0.287783250054387,-0.9125877901015649,-0.7709939835002786,-0.8560479337437008,-0.17053741243745732,-0.7528538812537121,-0.42358398049764806,-0.6075828189639301,-0.3763073855784775,undefined,1496075404884
903d185fccf839df,-0.54617101350868,-0.640323694566113,0.8341136957380123,0.8893845820600083,-1.131613013804655,-1.8803330058161767,1.934810639223851,-0.7708619107124481,-0.2367397951464803,-0.6798598099297274,0.05890854752272506,-0.011798996509120993,-0.7434338792335116,-0.7650776173412417,-0.9265482524402527,-0.3281954281563463,-0.9215745763609591,-0.7641734031431173,-0.8570694675566919,-0.28182197808163933,-0.7692374927560833,-0.4246321162874723,-0.6276282285132428,-0.3401566175053282,undefined,1496075406423
903d185fccf839df,-0.5655752341891103,-0.6843498778812017,0.7084256929355803,0.7300650969975753,-1.1405924269711472,-1.888336272048708,1.9374457127696423,-0.7786469733614514,-0.2553600815816765,-0.5003548730566418,0.09703575781389132,0.04682359727498337,-0.8696384803921569,-0.7863717924071129,-0.97602197761121,-0.2817214565501409,-0.937626974353749,-0.7692967546943974,-0.8794802522074511,-0.29007554284842696,-0.7769617157732134,-0.41758377985152056,-0.6510441535696356,-0.3428818972928963,undefined,1496075407920
903d185fccf839df,-0.42281576095665857,-0.694916177075379,0.3645369760429644,0.3203204094403894,-1.0679548359458626,-1.8982541731538927,1.927849546836776,-0.855562968332777,-0.31790743724455095,-0.45570896474519385,0.07841118097190969,-0.04471716995183286,-0.8739903631907309,-0.7974818021385396,-1.068653669435045,-0.5181325620693213,-1.0729611809270718,-0.7909047573644956,-0.997068654406198,-0.5992147362532256,-0.8924295884511868,-0.4839942900105077,-0.6711068360954352,-0.5278949424783731,undefined,1496075409379
903d185fccf839df,-0.46023808550307416,-0.7078305070340496,0.37283098952434646,0.3672227343794308,-1.1568746873175468,-1.9290304098114182,1.9105086049896238,-1.0154163480529443,-0.27619906597302396,-0.4646099798165751,0.08422731816588463,-0.03352071035666328,-0.9697317847593583,-0.7872976238533205,-1.1023379062828809,-0.5080295352092825,-1.0996659276840102,-0.7847238039256479,-1.0547573597785482,-0.5993995183255459,-0.9127628218558321,-0.4664166998009784,-0.6901509643786232,-0.5277162156841891,undefined,1496075410877
903d185fccf839df,-0.45746605890664266,-0.6679134287058105,0.43408053570488003,0.4141287254599918,-1.108480484666051,-1.917840743883079,1.8857568665067004,-1.139349854048294,-0.22590430477581713,-0.6024417012475551,0.0558816083803833,-0.005798127430740071,-0.9784355503565063,-0.7678551181552515,-1.105495811309739,-0.5181325620693213,-1.0893759617262782,-0.753223741714417,-1.0514968460690604,-0.593209343269601,-0.8909485789002357,-0.47194113122316594,-0.7001929898404764,-0.5268795593567381,undefined,1496075412415
903d185fccf839df,-0.6099277287428339,-0.6426717984005871,0.5967734197128532,0.5870775074116454,-1.2600710845542022,-1.9262353212051684,1.9050070435734157,-1.0419152348972684,-0.19356076568042188,-0.695690900021914,0.07760707585061008,0.024186324430862403,-0.8913978943850268,-0.7280442688375188,-1.0739168346634966,-0.580771396436894,-1.0988666000172722,-0.7315270776501253,-1.0415683716491526,-0.5855717152706046,-0.8751184152198451,-0.47595585265955803,-0.7086147409486313,-0.517770397416229,undefined,1496075413881
903d185fccf839df,-0.5614172633052825,-0.5921884354921669,0.44684075193542894,0.49153050666201403,-1.2187122967925281,-1.8854736340504725,1.9206333451820956,-0.8887364166703196,-0.23967177017502236,-0.4981940678706476,0.07826284492018548,0.002636964317155037,-0.9914911987522282,-0.7169342655814794,-1.017074647251325,-0.5686477387665979,-1.0864329581296206,-0.6972595198214706,-1.0188987050693612,-0.5441806956476243,-0.8433085787266802,-0.47377546758506794,-0.7060693996288059,-0.526758396986094,undefined,1496075415384
903d185fccf839df,-0.5267667928282498,-0.5945364662566601,0.6695063980900325,0.6750321985384463,-1.2140117285147156,-1.8707132449697046,1.9492587920233837,-0.6851321563114348,-0.26029751444863647,-0.42277759177646196,0.08342483960304106,-0.010989645946698282,-0.9871393159536542,-0.6660134000569328,-1.0160220539616973,-0.588853834883758,-1.0533177648413241,-0.7065182845242475,-1.0142878063774265,-0.49099446685317555,-0.8407090475408068,-0.47314488328803994,-0.6831140660601756,-0.5148353105121477,undefined,1496075416880
903d185fccf839df,-0.43528981162978087,-0.5745779563205329,0.6950270846880798,0.7648309167556124,-1.1208747421094551,-1.8538355782956704,1.9109293693537202,-0.8974283906829114,-0.3065209669469302,-0.4230466249877757,0.12795680540240567,0.07612354714505881,-0.9610280191622104,-0.6530517209577038,-1.0128641415726054,-0.5646065336755267,-1.0307113999109758,-0.687880430966093,-0.9887774336702619,-0.509549592579353,-0.8303380200458064,-0.47331927336597407,-0.6656956400970452,-0.5111803057076799,undefined,1496075418377
903d185fccf839df,-0.42974586195314707,-0.5505102829415713,1.114838452810088,1.231012669525862,-0.994586955939677,-1.8831420657986175,1.914860929198197,-0.8586227400861106,-0.3343177268919527,-0.64733962717757,0.16267688589232113,0.03879613158576538,-0.8913978943850268,-0.6678650499985733,-0.9739167174096164,-0.5322767657557099,-1.0331129461155506,-0.6968605460640147,-0.9417378749660474,-0.4340818110028464,-0.812632674249398,-0.45869947934326516,-0.6414436221361782,-0.5132846818815665,undefined,1496075419885
903d185fccf839df,-0.49904649235852494,-0.5575545213750127,0.8960006173876998,0.9828231937456657,-1.0192932017544765,-1.8893657930684675,1.9543895370096742,-0.6207418189232111,-0.31876152508666356,-0.591426941099633,0.20648319986450298,0.03017001946278452,-0.9175091911764707,-0.676197578342152,-0.9654956618787742,-0.47569978142182645,-1.0088157500791932,-0.695530628329159,-0.9269466166993471,-0.4301398092647678,-0.8069588128886898,-0.4441450132181409,-0.6129713961210338,-0.5142836135829623,undefined,1496075421391
903d185fccf839df,-0.583593407065915,-0.6538250541369011,0.8041268063907983,0.8942698440294886,-1.1345444400933042,-1.9436207618361594,1.9525223849306599,-0.719961781186276,-0.3012162123878971,-0.4965726828018937,0.170305535868772,0.040342126188649054,-0.9436204879679144,-0.7604484536348167,-1.0107588666465441,-0.3827517958123334,-1.021869733770942,-0.7314004208417538,-0.9296823689140905,-0.39894255685201885,-0.823622156010405,-0.4389498685119,-0.6068988379339063,-0.5103567205452275,undefined,1496075422889
903d185fccf839df,-0.5794353326658581,-0.5311388172315579,0.6797148252114211,0.734363463293369,-1.1889969193007184,-1.937981675259461,1.8974516145560343,-1.0938207421651176,-0.36618349035109776,-0.4011759146854849,0.17315568540073797,0.047211625127786365,-0.9349167223707665,-0.7539676270359768,-0.9823377803026923,-0.3787106048536229,-1.0208458205002313,-0.7281009570861726,-0.9306059483229526,-0.4180520257526747,-0.829037669690471,-0.4356863978071855,-0.5950188928601241,-0.4948119502183098,undefined,1496075424384
903d185fccf839df,-0.6279459361250483,-0.6051027800648335,0.6835431442175353,0.7409458004002181,-1.2285042810073152,-1.9473219251709004,1.9357100309608963,-0.8578677124719619,-0.39757656147943454,-0.40565965686668626,0.1590293392968542,-0.025175152954747062,-0.8870460115864528,-0.7780392834896961,-0.979179882638068,-0.4049785510044721,-1.030689999546671,-0.7436356677662518,-0.9134987460965005,-0.38258940549946985,-0.8226158251230563,-0.4422001544773955,-0.6151708230821379,-0.4848382559829206,undefined,1496075425873
903d185fccf839df,-0.6265599228268326,-0.5264426534045983,0.6088952439264506,0.6320533515477612,-1.1836277818897114,-1.9342479061228666,1.9682907001164642,-0.6156208992682733,-0.40239792393015594,-0.28231563524723846,0.15213109371111935,-0.054979329117238185,-0.5214878565062389,-0.7697067939984411,-0.9960220231486874,-0.4110403303763574,-1.0332015429111667,-0.7314067538131145,-0.9312846388434151,-0.3987115790664152,-0.8258024362692551,-0.439378392972393,-0.6263562406393934,-0.48174448706089545,undefined,1496075427420
903d185fccf839df,-0.6182438430375381,-0.6227132738504637,0.7447919279872205,0.7648728394244515,-1.2089203079145263,-1.9298922282336854,2.0262831889480917,-0.24067258950218187,-0.34758623670633587,-0.36094749607171905,0.15978143394781885,-0.0835032724648088,-0.3778757241532977,-0.7585967907424017,-1.017074691424728,-0.4817615890584333,-1.0459941419762189,-0.7323946931264477,-0.9497632161974418,-0.4926420950906174,-0.8462229196641512,-0.4477518774691139,-0.6622210043184137,-0.4969117365013713,undefined,1496075428884
903d185fccf839df,-0.6251738577705023,-0.7407033615428434,0.6790771956053179,0.7172799136100751,-1.2276299946384932,-1.963906108054127,1.9774003571224041,-0.6128931745227396,-0.28252641233119924,-0.2354355544643166,0.16356442411011463,-0.1383491022302938,-0.9088054255793226,-0.7502642753495976,-1.0012851736526716,-0.4393288790727422,-1.040828832291015,-0.7362704546902314,-0.9347340666973728,-0.40617982528287416,-0.8326285890575335,-0.4436202960745815,-0.6355370464018412,-0.4847761326771525,undefined,1496075430392
903d185fccf839df,-0.4893445027872439,-0.7677060514564272,0.7658466659730504,0.7715880942677984,-1.1243204536401294,-1.9681313478730045,1.9710362191225976,-0.6487862658417325,-0.2852523926470656,-0.20611498378132803,0.13950727932108456,-0.05410870410700476,-0.43880208333333337,-0.7391542591427837,-0.9876009528933777,-0.49994706849769693,-1.0174549973301126,-0.7557505884231427,-0.9416119314771763,-0.4569792967293996,-0.8507425033998078,-0.43087427558540253,-0.6244587930921073,-0.48759315183235036,undefined,1496075431888
903d185fccf839df,-0.5628032075926788,-0.7553787803378667,0.9183313769965844,0.9512895342128134,-1.1583558282752384,-1.9707750342316979,1.9670783570533967,-0.6846954118121292,-0.3306597844793879,-0.2616000818428896,0.12921854844753872,-0.03555747050585355,-0.36917195855614976,-0.7872976238533205,-0.9844430478665197,-0.5363180132438634,-1.0013552558478052,-0.769385415988931,-0.9421017075840181,-0.5027742734058819,-0.8667068962109739,-0.423423242916466,-0.613263167492951,-0.5058572358147311,undefined,1496075433401
903d185fccf839df,-0.5766634095856558,-0.724853956593566,0.8896205092724253,0.9603033329192339,-1.119558176949589,-1.9837419091192452,1.9071319216294755,-1.0895255220294378,-0.3378212286125993,-0.10122399442324767,0.08434368097991302,-0.07181183102516929,-0.6825075200534759,-0.7808167778283187,-1.0065483020699542,-0.47569982381890874,-0.9996633183143023,-0.7721085819307728,-0.9496862505743363,-0.4285537659374491,-0.8578998700858722,-0.41986499798080307,-0.5887732699103944,-0.5017361003836266,undefined,1496075434883
903d185fccf839df,-0.5960675612552666,-0.74187737692509,0.9170548470996307,0.9893152315110558,-1.1213581764699823,-2.000423920382143,1.886101363951546,-1.242113716781607,-0.33554241160323006,0.029699590664274054,0.09780099616813817,0.07257344502977173,-0.8174158868092692,-0.8021109528941899,-1.0065483462433569,-0.487823467356844,-0.9749339988971042,-0.8145456366714031,-0.9545000568856845,-0.4656486201963525,-0.8848380550330063,-0.4184878052361028,-0.5895566666852919,-0.487102866776277,undefined,1496075436389
903d185fccf839df,-0.4269737663458961,-0.7988178901988493,0.9374711930685089,0.9207075042888533,-1.0773251097709031,-2.01498166554359,1.945166809453776,-0.8493912163484388,-0.33623091982881503,0.055908661971430296,0.1304546962186348,-0.10824628169433739,-0.847879066399287,-0.7965559642169447,-1.0065483241566555,-0.487823467356844,-0.9694733848385874,-0.8167811649867059,-0.9474892529439064,-0.49889386303983496,-0.8905317547312264,-0.4132364276794727,-0.6147373285575286,-0.47980876223312247,undefined,1496075437898
903d185fccf839df,-0.4214297476584428,-0.811145249001387,0.7951951633033129,0.8003653452217055,-1.0269560522957628,-2.030983538731985,1.9412457646330668,-0.8793666029290809,-0.33072120268658406,-0.07975722205807644,0.1360401692445319,-0.046195428535420725,-0.2734305369875223,-0.808591805394579,-1.0097062218212798,-0.48782348148920474,-0.9610616709968748,-0.8370465852415868,-0.9462088363454946,-0.4677120102706777,-0.8937979568586578,-0.4157552189036132,-0.6305405107866828,-0.4782017357614322,undefined,1496075439390
903d185fccf839df,-0.26065196352754744,-0.7559657514939995,1.0389152933067969,1.0401808194203153,-1.0595514258805838,-1.9949967925995278,1.927260449910483,-0.9315038798160753,-0.3403359928934619,-0.13946829976264988,0.1278607120081378,-0.0823305267216304,-0.41704266934046347,-0.8271084990726022,-1.0097062291835135,-0.4938852608610901,-0.9671243258669796,-0.8248113384333589,-0.9422556387140051,-0.4951982353384499,-0.8889165275225129,-0.4262697524567585,-0.6293038054755228,-0.492151890102227,undefined,1496075440887
903d185fccf839df,-0.24540592076340334,-0.6567601145135118,0.8583581065760552,0.8294301285390733,-0.9661470087076344,-1.98677923674765,1.949621693378627,-0.7462284264528297,-0.3733685712644422,-0.31099396919177674,0.14046687664996416,-0.12810900174617576,-0.43880208333333337,-0.8197018086506184,-0.9886535756319408,-0.43326704317141385,-0.9714635608366735,-0.7830455749529355,-0.9226435780530101,-0.4507583216458439,-0.8599339136760308,-0.4114213850155252,-0.629150045262969,-0.48965966910405145,undefined,1496075442429
903d185fccf839df,-0.34935691812958475,-0.6362146188072556,1.0121185850856949,1.016180518904118,-0.9960166717390428,-1.9741943578153147,1.9426816425618258,-0.7919194553648424,-0.36940017876653547,-0.29760046037216986,0.17078728764089102,-0.03457922909621753,-0.31694936497326204,-0.7974818021385396,-0.9970746385250167,-0.45549367117230566,-0.95931960417343,-0.7746164264366368,-0.9367281584884537,-0.48381878426134267,-0.864990492025743,-0.40552554168296556,-0.6260461018938723,-0.4847219515841797,undefined,1496075443926
903d185fccf839df,-0.3604450245153108,-0.6438458137828337,0.9604400905573959,0.9976711974325475,-0.9734395659053869,-1.965799780317451,1.93726951122373,-0.8157329076982689,-0.33314125342149975,-0.11531423860235238,0.16853318400682665,-0.10315280206277731,-0.7608414104278075,-0.7326734454947182,-0.9728640799465857,-0.3645663305054305,-0.956095424189562,-0.7447882616662906,-0.9198168661162771,-0.39880396750434943,-0.830249179839406,-0.4148353276588234,-0.6119225963059923,-0.4651187558954847,undefined,1496075445377
903d185fccf839df,-0.5087486544568547,-0.6538250687508973,0.707149417175576,0.7556709608256162,-1.0014166604976693,-1.9735281960712985,1.9319231181633334,-0.8647006880798356,-0.3072204096622013,-0.20682641255248727,0.1576043725543064,-0.05425310597151753,-0.8087121212121212,-0.7048984373546198,-0.9518114043083115,-0.25949477201980603,-0.9709019716801577,-0.6952519759061407,-0.9130439523985527,-0.3144820813309316,-0.7846779999215532,-0.443360956015013,-0.6021016886647371,-0.48809624856011075,undefined,1496075446889
903d185fccf839df,-0.6307179282160701,-0.7025473428229647,0.7958330470463656,0.8616579306027121,-1.0791559580302363,-1.956023963700189,1.89720704545272,-1.0915276043296613,-0.2995935374284208,-0.2774518100441024,0.176351463459361,0.03364786918507105,-0.8261196524064172,-0.7030467485606556,-0.9528640491335759,-0.16654678641031298,-1.0168045397500227,-0.6654301441735955,-0.924826582410359,-0.31358897162967003,-0.7704867519581681,-0.44070012988251284,-0.583788050145319,-0.5062352801113974,undefined,1496075448380
903d185fccf839df,-0.6210159041393793,-0.680240772894352,0.6688687684839293,0.6914420950164181,-1.121255315462546,-1.96362660007192,1.930216366811492,-0.8832027900497187,-0.2902964987542916,-0.3436170570239084,0.13762479368722547,-0.050050093385269084,-0.8000083556149733,-0.6697167128909883,-0.9286535273663139,-0.12815523911861088,-1.0097644119087092,-0.6438981355929494,-0.9020239766135395,-0.27655570981978306,-0.747452511728769,-0.4273940105736177,-0.5721317311066977,-0.4975688259040098,undefined,1496075449882
903d185fccf839df,-0.7180368695198917,-0.683762833655088,0.8111450523860748,0.8416242940971693,-1.178968361595406,-1.939998797532947,1.9428525792632023,-0.7890068929152058,-0.28302439265447754,-0.4275179037018345,0.10574388138823806,0.1485060846349213,-0.9131573083778967,-0.665087562135338,-0.9360219012607227,-0.14027889678890687,-1.0265179803984066,-0.6297313409022136,-0.8968113519843478,-0.24719087482489543,-0.7287562233424245,-0.4429363569687059,-0.5934844521661355,-0.5066751491656872,undefined,1496075451381
903d185fccf839df,-0.7346690463511856,-0.5516843421658065,0.869204163303547,0.8626418989355601,-1.2984470233475474,-1.90393984471881,1.943696754031446,-0.7765998042472247,-0.2783868946072438,-0.3585396080041876,0.18001748331813625,0.19650346747440434,0.19657280525846704,-0.6604583854781386,-0.9033902871514496,-0.19281470429644065,-1.0242640178969482,-0.631244914396817,-0.9134427717746478,-0.2832078378083226,-0.7418265076792926,-0.44432357625584834,-0.5922818757926782,-0.5351545076709309,undefined,1496075452876
903d185fccf839df,-0.7221948921618341,-0.5000269638751397,0.8462360282255085,0.8875716702043105,-1.316508710203842,-1.8801326897964747,1.92429667031089,-0.8794537642449325,-0.26708030728894017,-0.38961673751550147,0.16282279197708244,0.2241981841831404,0.549075311942959,-0.6734200645773676,-0.9276008604543482,-0.33829845501638517,-1.0236087238946072,-0.6685966173355545,-0.9178647569521698,-0.33106620618806964,-0.7694012698312176,-0.43379498310423453,-0.6118754757495517,-0.5054287339085825,undefined,1496075454384
903d185fccf839df,-0.57527739628744,-0.5088322180749528,0.8551679254499432,0.8543711545893666,-1.19812033483843,-1.8620088791492113,1.9783944081663571,-0.46753793065140975,-0.2743683896364563,-0.43477250082192537,0.12317927486617976,0.22682693714926777,-0.7042669340463459,-0.6567550726440831,-0.9591798665495257,-0.38275185234177644,-0.9977505864377345,-0.6863415252483102,-0.9314105819652625,-0.3372563808805322,-0.782834776107593,-0.43717954422061395,-0.6109757863683898,-0.5025140345196158,undefined,1496075455921
903d185fccf839df,-0.44221998163708887,-0.43839033061640936,0.9291774337240764,1.0527649885990795,-1.085286238906581,-1.79710695718777,2.005273653985044,-0.1866675834067569,-0.28990515377778325,-0.18860510315930762,0.13675621552340242,0.04825994692889291,-0.7086188168449198,-0.6586067096349489,-0.9223377173125978,-0.3867930433004869,-0.992842957978864,-0.6855625730154277,-0.9311447034027482,-0.3781854482440333,-0.7873397187532881,-0.4558223183110609,-0.6358130199184451,-0.5103845383783222,undefined,1496075457389
903d185fccf839df,-0.36321712012256174,-0.38732002577984864,0.941299512074623,1.120350317724736,-1.0059423662743558,-1.7108575584184746,1.938600180253595,-0.4588218420529638,-0.26182869492165856,-0.27337168223871816,0.09427761526385171,-0.00214369185859732,-0.8087121212121212,-0.6243508748960106,-0.8749692155320653,-0.26959772821804107,-0.9518159366526544,-0.6450633978829161,-0.905221518682582,-0.21326809606037514,-0.7373546891310554,-0.43236387699031903,-0.5930636998827173,-0.44365718758635286,undefined,1496075458874
903d185fccf839df,-0.4103416067673071,-0.38614599578360587,0.7964709307894183,0.8546440547395191,-1.024096621993369,-1.7200976514435684,1.8802290122934637,-0.867642134046189,-0.3088770999484532,-0.17260487552535522,0.13074754331377075,-0.041302354448914384,-0.6302849264705882,-0.6336092152596349,-0.844442861624386,-0.26151533216825934,-0.9451559231043212,-0.6343607224535538,-0.8859243139849704,-0.20532249935438743,-0.7215979331007722,-0.4315779030602778,-0.6385454589767323,-0.4582582129109045,undefined,1496075460384
903d185fccf839df,-0.5129067288569117,-0.474198333185791,0.6624884062317054,0.7678339091886405,-1.0396485971518554,-1.7630627990392493,1.9080234265749345,-0.7447167531398529,-0.24968292951803275,-0.4506919767314205,0.06264272899727193,-0.0550013041258779,-0.7913045900178254,-0.6317575523672199,-0.8412849786842292,-0.21706193484286807,-0.957396512464711,-0.6475079136385528,-0.8967623741185822,-0.21938127847175692,-0.730089607717907,-0.4341508443397832,-0.6627203804216696,-0.4478761178396346,undefined,1496075461891
903d185fccf839df,-0.1871932932275223,-0.561076611363741,0.4915012546054007,0.5398689761657969,-0.8116764099517487,-1.8909077520464639,1.980577141898618,-0.3962882191202636,-0.374120408691928,-0.4697013809967773,0.09276093836073547,-0.04358206437387625,-0.9218610739750446,-0.6678650370477988,-0.7928638615273674,-0.15240256859156368,-0.9702931643542895,-0.6344747149691302,-0.8049782077292796,-0.1675347137580196,-0.6762812446438067,-0.4215538396125791,-0.6614498710924966,-0.45913209032272,undefined,1496075463377
903d185fccf839df,-0.2772841576115462,-0.6174301096393789,0.425786522223498,0.4057261375457912,-0.7796364618624467,-1.9097373215139606,1.9871227347661329,-0.3755847128970492,-0.3785528269657672,-0.4491383501035846,0.08857579712595194,-0.028469256697682178,-0.9523242535650625,-0.6789750791561618,-0.9033903092381511,-0.3342572075282316,-1.00094667043573,-0.6419032586280142,-0.8681734031759362,-0.3504066534128216,-0.7273753199608689,-0.4380392352043604,-0.7365619001778428,-0.506761958317622,undefined,1496075464896
903d185fccf839df,-0.2814423010224226,-0.54992326794345,0.5680630602625929,0.516575964525002,-0.8111209801911192,-1.8733662508349018,1.931265661012291,-0.7043470854455862,-0.465389161480195,-0.38504468118530677,0.13244561602161445,-0.030615500671271945,-0.8174158868092692,-0.6512000580652888,-0.9633903575037779,-0.4635761378838912,-0.9491309431477056,-0.639085099599588,-0.8872886910599048,-0.4132477105714986,-0.7463333123738892,-0.43526143125103617,-0.7133629907454258,-0.4841847008018078,undefined,1496075466377
903d185fccf839df,-0.4075695801708756,-0.5205725180373806,0.7492583848733367,0.7392048415575359,-1.1015067761164177,-1.8461770406099145,1.8896253163056587,-1.0309621910916613,-0.4514844888457149,-0.2228079459109461,0.12749442401320737,0.07219445337578143,-0.8304715352049912,-0.6484225443005044,-1.0065483388811232,-0.46357616614861274,-0.9636434776298591,-0.6556140837824276,-0.9011703640166272,-0.41392524339620546,-0.7629162093453904,-0.4332796366250444,-0.6794745731972678,-0.4889388389882422,undefined,1496075467933
903d185fccf839df,-0.42835977964411187,-0.4918087831294326,0.5138320142142854,0.6298911188581807,-1.0539559989376373,-1.8332823716366207,1.8985798039082649,-0.9460848861562232,-0.4661383581645391,-0.19401498836753586,0.10194982813325969,0.02449348467892129,-0.7564895276292335,-0.6493483951728737,-0.9781272378128036,-0.5342974248306885,-0.9809607854935122,-0.6475459129560802,-0.9038641364304792,-0.4260130241350628,-0.7688106031843729,-0.43693874844091884,-0.6387744493086609,-0.5239214514609177,undefined,1496075469372
903d185fccf839df,-0.4214297476584428,-0.5657727313487121,0.6133617008125668,0.7474572422009418,-1.0127103530171708,-1.8600499882117978,1.8771705524365265,-1.127273669207926,-0.4280231664590305,-0.046327351555394004,0.09918485547805539,0.1005913151740797,-0.8391753008021391,-0.6965659349125902,-1.0244431021303055,-0.5545034785507663,-1.016590508050546,-0.6829913985135865,-0.9704317963223641,-0.4636160259628597,-0.8242669785523917,-0.4680399760520332,-0.6327783254633801,-0.5221262386929082,undefined,1496075470885
903d185fccf839df,-0.5309249017337164,-0.6473678745435697,0.5738052846348146,0.65442940477152,-0.9452978972397285,-1.929964431951667,1.8557271192811302,-1.336156278566598,-0.384586344276288,-0.055760971853515286,0.09600566487338953,0.15322689668292425,-0.5780623328877006,-0.7289700938083391,-0.9991798766399089,-0.5342973965659671,-1.0159190239836982,-0.7242125279795708,-0.9622665175337999,-0.45842674994169724,-0.8412033506532977,-0.45754644993754,-0.6156679180210465,-0.5138518825251209,undefined,1496075472388
903d185fccf839df,-0.37153326892267574,-0.6755446529093809,0.5540265682720398,0.6420269917815921,-0.8947231305850589,-1.936369839522619,1.8669642752426596,-1.2646156476354589,-0.3656848304027195,-0.011597439399957492,0.13359816809448669,0.036727219880363336,-0.31694936497326204,-0.8058143045805691,-0.9897062204572051,-0.48580283654658685,-1.0289210278160343,-0.7689927724898694,-0.9762181583607236,-0.42772224954679194,-0.861676199586489,-0.4575611359061277,-0.6154674618818163,-0.5103242358923722,undefined,1496075473878
903d185fccf839df,-0.5239947662318183,-0.7019603570528357,0.25543750847719543,0.2729781550082066,-0.8896522821731533,-1.9526442350182625,1.8792533599222991,-1.1986649662443876,-0.37780325287612354,0.015201867000260496,0.11045679254405825,0.01563874422502714,-0.3996351381461676,-0.7743359382787042,-0.9949693635989554,-0.44741130338724544,-1.0108768485814752,-0.8123037735687131,-0.9857758025076295,-0.4433054759211023,-0.8835790329788391,-0.441498592512997,-0.6253825094678933,-0.5070652310586248,undefined,1496075475378
903d185fccf839df,-0.6307179972268896,-0.7512696461230246,0.11060841891809182,0.13531841939800832,-1.1187558955553631,-1.954691637044596,1.9375430086889058,-0.8634371000501795,-0.34168235175480616,-0.23618871424448884,0.044648085097955974,-0.09399336956860725,-0.2647267713903743,-0.7928526384321147,-1.0107588592843104,-0.39285489333417606,-0.9954538472871448,-0.8799206140538004,-1.0102996245447444,-0.371887485577743,-0.8985584968793077,-0.4437181711075231,-0.6543784347218826,-0.5238950373898466,undefined,1496075476873
903d185fccf839df,-0.7346690636038905,-0.6866979232596911,-0.004233018882949452,-0.01713450707070807,-1.2919567470118816,-1.9886146770189201,1.988766377119978,-0.5717068676197038,-0.3708519687276891,-0.3533598053901832,0.06091113079701834,-0.07681908372401529,-0.7782489416221035,-0.8724743435429673,-1.0749694647642933,-0.3059687577583722,-0.9877857298243138,-0.9318380866311129,-1.0609845223824672,-0.3190092255845214,-0.930565013893973,-0.4418968834491947,-0.6415919317307478,-0.5089271761790097,undefined,1496075478379
903d185fccf839df,-0.688930573004656,-0.7154616727816353,-0.12673160297011776,-0.15237848044667512,-1.375476605361829,-1.9435625320009635,1.918474279157247,-1.0211447461130696,-0.34419597432259036,-0.5752423908272535,0.06403026898127251,-0.000025190028816982784,-0.8130640040106952,-0.9076560226788878,-1.1233905819211552,-0.31809235889922516,-0.9768025067691076,-0.9618055766163685,-1.094268351673884,-0.39963548560472,-0.9651555416113027,-0.4620164431788995,-0.6431031932749696,-0.5191857207054069,undefined,1496075479918
903d185fccf839df,-0.5766633578275412,-0.6731966075308915,-0.11907496495788958,-0.1581257064442238,-1.2761064889478808,-1.9605729663288192,1.9125519554719852,-1.0472541892284122,-0.27563746034485503,-0.6265266831475481,0.06902213877913402,-0.06614382033085238,-0.9392686051693405,-0.9206177017781167,-1.0970747594600139,-0.2695977988798449,-1.0251155553399816,-0.9614255999182115,-1.081569139229253,-0.3672371568703763,-0.9531513841065147,-0.4657387983879408,-0.6515103590106105,-0.538356280844922,undefined,1496075481405
903d185fccf839df,-0.6237878789776962,-0.7389423019344831,-0.14651006519594328,-0.13693691285629428,-1.252171670839078,-1.931357318874945,1.888360364603057,-1.1843908499913132,-0.24712952134437136,-0.6605216325213312,0.05004564158314951,0.03257064010162029,-0.8826941287878788,-0.9585769011542089,-1.1191800320690328,-0.3585045370011844,-1.0423738560860734,-0.982355978672332,-1.093253812787715,-0.44790961164803433,-0.9823836509221175,-0.47177046451806653,-0.6503953259027211,-0.5317952007350016,undefined,1496075482888
903d185fccf839df,-0.7318969852493443,-0.7043083878173289,0.2005683245488857,0.20113860883596277,-1.3022013029626391,-1.9233983084661643,1.9512653388750367,-0.7657174094820149,-0.22388878566595127,-0.7098808623017416,0.06632676718242526,0.010568915869770691,-0.847879066399287,-0.9446893841333852,-1.1307590110323174,-0.7424200099182058,-1.1081199987425898,-0.9772706248772396,-1.0968851578162222,-0.6474426673775329,-1.0204585452910535,-0.47957528087686047,-0.6658933688517172,-0.5480518864413261,undefined,1496075484377
903d185fccf839df,-0.8219879876550072,-0.7178097327741209,0.2005683245488857,0.1492896358047507,-1.4173291098562026,-1.9202841150216614,1.9529457859071115,-0.7790582704163466,-0.25873639481522104,-0.6890092482820841,0.07983434284966535,-0.11582529030765751,-0.7826008244206774,-0.9289502042201463,-1.088653685523587,-0.746461215009277,-1.1090235801365698,-0.9465051844371027,-1.0687579780246923,-0.6398050379919185,-0.9963967907038678,-0.44983583050018805,-0.6638754283548247,-0.5216546305380491,undefined,1496075485930
903d185fccf839df,-0.8136718906130078,-0.7095915228004214,0.18716971630138524,0.11634913671017226,-1.4885164199456744,-1.861880770319485,1.9202125933882608,-0.9303555574946285,-0.2988348485559974,-0.6831000217663691,0.03896694624582019,-0.09818206264145218,-0.13417028743315507,-0.903952703369445,-1.086548443727578,-0.6353277923576026,-1.0895883677071372,-0.9226299867013584,-1.0663370822443459,-0.6142744154554377,-0.9804810354476111,-0.4415384715123711,-0.6605745210401129,-0.5092032098869838,undefined,1496075487384
903d185fccf839df,-0.9508873106525965,-0.6526510095266621,0.18206613808306452,0.10596338986856521,-1.543709467307329,-1.8854410250991798,1.9294300571471446,-0.894944505512783,-0.3095307938408607,-0.714961323580944,0.037356620480323795,-0.1502787767467586,-0.06889204545454544,-0.8863618476130165,-1.1023379283695824,-0.7565642842663981,-1.0570847961527303,-0.9282283083751163,-1.0831364256057932,-0.6579598046480603,-1.0005030072470995,-0.4308144531091747,-0.6477781092384287,-0.49059465054302137,undefined,1496075488881
903d185fccf839df,-0.9342551338213027,-0.6438458137828337,0.14123344614530803,0.03625903828374704,-1.5565151599741844,-1.8998660031418295,1.9283281658295504,-0.9156975353335534,-0.3068613391647392,-0.7372657482399455,0.03709155651030579,-0.10187182640593866,-0.8174158868092692,-0.8891393678531883,-1.0907589530874147,-0.7707085444822298,-1.0998059341604178,-0.9317367591114881,-1.0834722722281376,-0.6844605283456823,-1.0094088166926927,-0.424078474080399,-0.6405532072663425,-0.4863026510502782,undefined,1496075490397
903d185fccf839df,-0.8427781698755387,-0.6450198145510841,0.2005683245488857,0.30655664505223257,-1.4500890507786457,-1.8908704833183616,1.9468262159630974,-0.7379354674832348,-0.272132426626945,-0.5932596145308555,0.0742857751100776,0.013369877504670712,-0.8391753008021391,-0.7984076400601344,-0.9549693130162864,-0.5484416143847164,-0.8950547490358348,-0.8268885434446335,-0.9346990830528324,-0.4640625790499279,-0.8693662837579257,-0.2298820422350213,-0.5497390469930801,-0.23457740736860788,undefined,1496075491882
903d185fccf839df,-0.6362620159143428,-0.5704688367196871,0.2120522650194303,0.41604656456860034,-1.2862378994885009,-1.875874842515855,1.9679146335073145,-0.5436503699715892,-0.3216825610989761,-0.4236435244976773,0.049335832762301496,-0.09909097885295888,-0.6259330436720143,-0.7308217437499795,-0.9391798283742822,-0.47772039809972283,-0.8462474547587202,-0.7881752583018031,-0.9255192672438027,-0.47658151519775876,-0.8514790608832915,-0.21916729284665032,-0.5385572224131153,-0.2264204823979279,undefined,1496075493380
903d185fccf839df,-0.5364689894319892,-0.5199855030392593,0.20503452729805255,0.2814447789625117,-1.2131477373774153,-1.8429347422715785,1.9227319388213029,-0.7881354562420653,-0.37346320237630326,-0.265385670332294,0.03485608322797311,-0.08094573021705088,-0.3038937165775401,-0.7650776238166289,-0.9707588050205245,-0.7020078600809679,-0.9279440163376487,-0.8055085253295349,-0.9480420010398664,-0.5792737484848476,-0.8857025773083371,-0.24562904499901572,-0.5252714788668218,-0.2274530327797607,undefined,1496075494930
903d185fccf839df,-0.4643961426504263,-0.5235076514839723,0.18015197858000748,0.3455888291081683,-1.1921443429905931,-1.813162406667741,1.9172435269461732,-0.7967108549753401,-0.3419453113980381,-0.3337756906050084,0.042187476978041594,-0.06776349621113786,-0.6215811608734403,-0.7900750987657812,-0.9570745842612307,-0.7424199957858449,-0.9506389416397077,-0.79641441852439,-0.9180186856169811,-0.5651533745894821,-0.8678569495061119,-0.2518545248352102,-0.5368659418714743,-0.25090132412128413,undefined,1496075496406
903d185fccf839df,-0.504590666320322,-0.5328998914539145,-0.17904874365231768,-0.14645861947135985,-1.2599168017513163,-1.8370138163021,1.8867298948357707,-1.0741445909846217,-0.3328930141249632,-0.45901512836905206,0.0444036649858241,-0.041712917401508676,-0.517135973707665,-0.7687809236999099,-0.9686535521811647,-0.7323169830581668,-0.9817885884126046,-0.7647370341338054,-0.896993269018205,-0.54488902155339,-0.8425788151960935,-0.2712672921760638,-0.5420422178327399,-0.2662565305659845,undefined,1496075497884
903d185fccf839df,-0.5420130598775571,-0.5381830556649992,-0.1962751626320334,-0.1603974723155198,-1.259546515865725,-1.8286192376553612,1.9135749558282351,-0.8903326863652115,-0.33923979217037925,-0.4793423466234249,0.05316755905222459,-0.06581609285594199,-0.4126907865418895,-0.7650776108658544,-0.9581272069997938,-0.72625517542156,-0.9572883353817151,-0.760728280708503,-0.8933269402228161,-0.5411471994311031,-0.8389384209287931,-0.272216941038169,-0.5441573800800749,-0.26690529519169176,undefined,1496075499401
903d185fccf839df,-0.5447850864739886,-0.5604896548216043,-0.05782592705125484,-0.013338121687621987,-1.2480265346765085,-1.8103952698481245,1.9476335745303721,-0.6452278789627145,-0.30845274802836764,-0.5641992862003307,0.08880914470387002,-0.14412396068918115,0.11388703208556152,-0.7335992834163131,-0.9254956002527546,-0.6373483949031382,-0.9061968924769634,-0.7431480294863861,-0.8745055192765246,-0.5048684620942752,-0.818627738915449,-0.2750170606301707,-0.5377263240030432,-0.26930577706714665,undefined,1496075500661
903d185fccf839df,-0.6833865025590882,-0.608037811213452,0.008526689073700603,-0.025468977937937835,-1.2304791345886361,-1.7790017833934848,1.9006126456519892,-0.9117742495193539,-0.3171119899675998,-0.5306052562014105,0.03638774086223911,-0.1681316297548811,-0.10805899064171122,-0.7660034617382238,-0.9844430331420521,-0.681801763963808,-1.0066002188273067,-0.7782895346055607,-0.9385753160093611,-0.603079747339163,-0.8777076165931044,-0.2970598641145141,-0.5938816557470528,-0.47357657187892765,undefined,1496075502429
903d185fccf839df,-0.7014047099413027,-0.5698817778795772,0.0015084430784239953,0.004891433269667998,-1.257941948388052,-1.7980223506431066,1.9416323651213754,-0.6585437263849643,-0.29879858653609576,-0.5237319225040284,0.017127881550674143,-0.008795360650303083,-0.8304715352049912,-0.7826684601468955,-1.0118115041095748,-0.7282757638347349,-1.0599980465520178,-0.8374075642215814,-1.0203120603832019,-0.6340922180969236,-0.9408510930869202,-0.42586881250354397,-0.6201298120267993,-0.49954524256420024,undefined,1496075503901
903d185fccf839df,-0.6930886128993033,-0.5704688221056908,0.2139669327963862,0.22807373550392535,-1.3707966142395942,-1.8731053753779119,1.9363096334832604,-0.7907083964795832,-0.33106945583729525,-0.5038123039194298,0.03312433070435392,0.10354588146786568,-0.40398702094474154,-0.790075118191943,-1.037074678064335,-0.6777605871374582,-1.0508799428671034,-0.8350010452421425,-1.0361038626297354,-0.5585166477927,-0.9315651252104941,-0.43080911703488667,-0.6129423786345481,-0.4819707359376309,undefined,1496075505414
903d185fccf839df,-0.6501221143910907,-0.6203651846299858,0.3154102706238258,0.2922689221654341,-1.3807223121377827,-1.9416409095624207,1.9373799608741593,-0.8600331083040694,-0.30846325784537526,-0.4517740207493227,0.02629719369896847,0.027748086620957464,-0.5519510360962567,-0.7706326060184868,-1.0286536114901421,-0.6615956678466479,-1.0539446387435656,-0.8271608606262578,-1.0283304056601081,-0.549631743343188,-0.923932562939096,-0.4322709836224397,-0.6158610546008493,-0.4892911096918583,undefined,1496075506904
903d185fccf839df,-0.6071557193991072,-0.7547917214977568,-0.00933761364906786,0.010144346698861832,-1.3906068665816447,-2.0110964937181914,1.941971597721685,-0.9245978484782956,-0.29301645043502134,-0.6278670662761063,0.12835999218131322,-0.05266232850177516,-0.2647267713903743,-0.7511901262219669,-1.0528641811119237,-0.5868332182058615,-1.0303514141402292,-0.8005878291607779,-1.0365096776544656,-0.5162171162535654,-0.9058924936165315,-0.4413113545614452,-0.6262062913376834,-0.48543717672923803,undefined,1496075508405
903d185fccf839df,-0.5794353671712678,-0.811145249001387,0.16611548658945427,0.15212775664067765,-1.3901851535071985,-2.007588659402187,1.9836382415104759,-0.6431959429075261,-0.2645321853928839,-0.7574116824419524,0.11720903264224633,-0.07985912597750341,-0.2212079434046346,-0.7419317793829553,-1.0549694413135173,-0.5565240810963019,-1.0662349659212007,-0.7992515778898215,-1.0617121902732132,-0.4892544385867508,-0.9075642148193407,-0.44315919467992926,-0.6328547221859868,-0.4827458601070414,undefined,1496075509917
903d185fccf839df,-0.7000186448849723,-0.8087971451669129,0.22417510578082533,0.282773119624753,-1.355429781059652,-1.9874267647523387,1.9471996564351095,-0.8634084262210983,-0.27355274992505124,-0.8035484007897692,0.10184259534963348,-0.13284453182452624,-0.8391753008021391,-0.7947042754229806,-1.104443188571176,-0.6050186976451253,-1.061624995547293,-0.8283387877460762,-1.092344228597159,-0.5892519430591516,-0.9482143668448887,-0.45362244571690197,-0.6326218931247086,-0.4958110242355544,undefined,1496075511443
903d185fccf839df,-0.7429851088877752,-0.7923607544475064,0.00023267559231852848,-0.03919054154772163,-1.3772251706635363,-1.9948290871420802,1.9952935398890512,-0.5498025141464764,-0.2956628782185702,-0.7326448050426355,0.06590046947399396,-0.000323596067532666,-0.9653799019607844,-0.7715584633662435,-1.1212853180384448,-0.6373484373002205,-1.0800336543991405,-0.8050778856522356,-1.0937086067486963,-0.6137046737682014,-0.9418054974456019,-0.46152497809789383,-0.6268480718946248,-0.5109529911349274,undefined,1496075512914
903d185fccf839df,-0.6833865025590882,-0.767706109912412,-0.07888066503708467,-0.07161008601597899,-1.360171484897736,-1.9986653442054712,1.9673097724255453,-0.7383223557817498,-0.2913009873616014,-0.6390989381654273,0.035353346868414966,0.018162865338218436,-0.8348234180035651,-0.754893452006797,-1.1286537545118407,-0.6514926692513306,-1.0932361582559726,-0.810562214893467,-1.1125860025551422,-0.6512460838066348,-0.955130643567142,-0.46159261669861873,-0.6391066811676575,-0.5074542644099328,undefined,1496075514418
903d185fccf839df,-0.7124928163270287,-0.7770983498823542,-0.08653679477541401,-0.0883777671053125,-1.3619303398615146,-2.015596584719303,1.9642039729636964,-0.7774973058198092,-0.2955255728995187,-0.5859440664942522,0.03405894600645526,0.050958052322419664,-0.8261196524064172,-0.7715584309893071,-1.1223379481392415,-0.48984401337293654,-1.0532538341815714,-0.8257169492352726,-1.1087097689012686,-0.47961501047191823,-0.9287824975471913,-0.46722515917731994,-0.6481498014710664,-0.5063134800637282,undefined,1496075515908
903d185fccf839df,-0.7637753428664212,-0.8205374597433368,-0.11716131372873137,-0.11577615348108347,-1.3870788680983037,-2.023725628866145,1.93553383884268,-0.9784894579796639,-0.28469521353356575,-0.5825112084182601,0.04746002520603109,-0.02342413878958109,-0.8261196524064172,-0.8280343240434225,-1.1676011455447777,-0.27970079747516224,-1.0973760182218248,-0.84178995984556,-1.1366200472497685,-0.30327201334220577,-0.9117089183633438,-0.4678953984233451,-0.6618325877571404,-0.5219665784545711,undefined,1496075517411
903d185fccf839df,-0.8524802802157537,-0.8152543686022328,-0.1726683814000938,-0.1380746266215683,-1.4655793075097951,-2.022067210627293,1.943801950360079,-0.9325170102794046,-0.29373430122161526,-0.5517149868708067,0.09216426822025049,0.018841646639583178,-0.8391753008021391,-0.8243309788324306,-1.1718116769913156,-0.2736389757061946,-1.0858336118827776,-0.861618406471791,-1.1448412998402353,-0.32134978839038225,-0.9251083548117618,-0.4621401534251785,-0.6660120525019029,-0.5339884508765449,undefined,1496075518913
903d185fccf839df,-0.8219879704023023,-0.8457791485045449,-0.09291715702763788,-0.10224896288205612,-1.4099542586779534,-2.0375822732055866,1.9555571802227505,-0.8602703584832484,-0.28744471349978623,-0.49665530368331223,0.12215303967139923,-0.006645300020730466,-0.7738970588235294,-0.8289601425388554,-1.1423379715900175,-0.2736390039709162,-1.0979611344700828,-0.8669000824621157,-1.1280349602062127,-0.29483366535880157,-0.9165590946691001,-0.46475532352361437,-0.658413477489087,-0.5496238788683777,undefined,1496075520398
903d185fccf839df,-0.8899026565202839,-0.8357998789224852,0.1131604621642016,0.1307191541934597,-1.485461562123738,-2.033617908232113,1.9225925587139687,-1.0870655239748204,-0.29608186621964416,-0.4248764967071304,0.1531187786450927,0.01443003064617669,-0.8261196524064172,-0.8891393613778009,-1.1402327150695408,-0.26959778474748414,-1.0957509940827692,-0.8876214741191756,-1.1192959433233698,-0.28095966609247114,-0.9210571996141246,-0.46487071865595486,-0.6458396817155826,-0.5611417717644085,undefined,1496075521914
903d185fccf839df,-0.8996048186186136,-0.8457791485045449,0.17951358656305588,0.1984857823016358,-1.47619415205685,-2.034929269433824,1.9217510184630366,-1.0934841696145123,-0.3022483208718502,-0.38468126695419713,0.14551380593164923,-0.014606849864177165,-0.8304715352049912,-0.8771035137247795,-1.1402326929828395,-0.45145253674303826,-1.1281926305692849,-0.8734863438921401,-1.1203034841507822,-0.4353906752309572,-0.9447570945319669,-0.4638771465117584,-0.6379832947127889,-0.5714266043253573,undefined,1496075523413
903d185fccf839df,-0.8108998295111666,-0.8311037589375141,0.3843154382687899,0.41764825243172715,-1.430350799692223,-2.0407849758725405,1.9627654688977996,-0.8150888264012855,-0.3035693722015933,-0.38234863513892087,0.1589707836323499,0.0299451528484145,-0.7608414104278075,-0.8511801555263215,-1.1328642859583786,-0.5888537783543148,-1.1340218884349489,-0.8645378944704486,-1.1029723841108516,-0.6286873609720413,-0.9728053015724081,-0.46806318491635585,-0.6430667798155779,-0.5551615537049192,undefined,1496075524908
903d185fccf839df,-0.7138787951198348,-0.8416700435176953,0.4385467384540469,0.427640050425323,-1.3574046337747472,-2.0434566137111685,1.9257430580258075,-1.0536371975366763,-0.2539732152075502,-0.5467165079352554,0.12552597493862283,-0.09042498697303077,-0.4823209113190731,-0.813220995002553,-1.0707589296366387,-0.5363180273762242,-1.0852029717332161,-0.8549688171718692,-1.051384898049295,-0.5875119176198118,-0.9404757477348802,-0.4828720710094933,-0.6531372854483594,-0.5444197285740461,undefined,1496075526406
903d185fccf839df,-0.7984256753218151,-0.7994049051969707,0.5872036387453657,0.5673924236414611,-1.2440562540272448,-2.03438888541566,1.9573743634171514,-0.8179254825238562,-0.24519941619427732,-0.6644659018533758,0.12245140656961721,0.0042235680520240374,-0.4213945521390374,-0.8354409885638572,-1.05075892091033,-0.5565240952286628,-1.0713544854785115,-0.8712761474678168,-1.0256226399303559,-0.5803362421899276,-0.939810699326136,-0.4834362110315418,-0.6458944871412885,-0.5088782875482359,undefined,1496075527942
903d185fccf839df,-0.7887235822343048,-0.8017529944174485,0.5655110170164832,0.5248726305702524,-1.1830826423553,-2.017960761647464,1.9398651131008042,-0.9120978467062849,-0.23649063442264354,-0.6325282914450057,0.1111440651070982,-0.11710564107809476,-0.9262129567736186,-0.7808167907790932,-1.0233904425805735,-0.5807713681721725,-1.0510832673962565,-0.8324362041712052,-1.0073679602552321,-0.5449506148639944,-0.909293898545886,-0.46606215758809,-0.6566893629435213,-0.5122449386759395,undefined,1496075529428
903d185fccf839df,-0.731897037007459,-0.7841424860178223,0.6484521683781016,0.6268208228601672,-1.1505695588679643,-2.0112711871546884,1.947833429118391,-0.8443678773453954,-0.2642153401689481,-0.4480756498384678,0.1386461196546232,0.02690789214576826,-0.9262129567736186,-0.774335957704866,-0.9791798752758342,-0.4393288508080207,-0.9988128325382993,-0.8243933659113107,-0.9779463708307747,-0.4403643753583134,-0.8762632237446679,-0.4675825113564127,-0.6511958875023443,-0.5093087799035849,undefined,1496075530901
903d185fccf839df,-0.4810284229979494,-0.7888386352307857,0.5540265682720398,0.4597463074817089,-1.0829513851567125,-1.9924416174026913,1.9396599957632923,-0.8650760832688165,-0.2972047484480905,-0.09827090023262174,0.13320515729744614,0.11094224328725122,-0.8174158868092692,-0.7845201230393106,-0.9707588123827583,-0.3867930856975692,-0.983377946318024,-0.8192193517463081,-0.9517223236282862,-0.42085454317391896,-0.8648728051942077,-0.45130695290836215,-0.6514143744010696,-0.4980326409065916,undefined,1496075532403
903d185fccf839df,-0.32718080887436196,-0.748921586130539,0.7652085280930482,0.7624882594779178,-0.9815961247971895,-1.9553088864421408,1.8927416224111,-1.1102486632179096,-0.31274839054889353,0.19662430919006654,0.13802806808985227,0.008623451034609935,-0.7129706996434938,-0.8122951376547963,-0.9570745989856984,-0.4049785086073898,-0.992962906067272,-0.824627684683421,-0.9604263558328054,-0.45255994105544123,-0.875966110665115,-0.4407620947771073,-0.6503679756831546,-0.4733249856637343,undefined,1496075533921
903d185fccf839df,-0.2079835272061683,-0.7201578073806025,0.4085601032437822,0.44648300971060806,-0.9233585020957997,-1.9665195148887509,1.8939960496622381,-1.098201201722839,-0.3502985726297999,0.13615454233011523,0.13973533261757587,0.04388891437421065,-0.8913978943850268,-0.8169243143119957,-0.9833904104034891,-0.4433700276343704,-0.9969544057082214,-0.7911834087134006,-0.9758263361869971,-0.4798459857669947,-0.8726992958345939,-0.43647838237084235,-0.6539319159202526,-0.4969841299527646,undefined,1496075535411
903d185fccf839df,-0.2509500084616761,-0.7571398107182347,0.25160918947108135,0.269233187143268,-0.7632719125728623,-1.979507352997666,1.8967547140193635,-1.067514030161101,-0.3456391930901523,0.20502260108052273,0.09172250106484037,-0.024139070312219298,-0.843527183600713,-0.8613643467623152,-0.9802325201010986,-0.4352875891875064,-0.9863966745866786,-0.8149319471437373,-0.9640227173452307,-0.48968559297258873,-0.8791241920470253,-0.45687033584740494,-0.6444755764023269,-0.5032650400539912,undefined,1496075536911
903d185fccf839df,-0.15947295825238778,-0.7324851223411517,0.3568813545785339,0.28812205107613137,-0.7547553567293501,-1.9798031664422109,1.9297877104182004,-0.8548610173223977,-0.36937903623474816,0.06611084603468226,0.15320153964908337,-0.05715676242451443,-0.9392686051693405,-0.8178501069058797,-0.9844430331420521,-0.44741126099016315,-0.9787812090517172,-0.7921713474619939,-0.951071620492023,-0.4904709137441986,-0.8679555382708852,-0.45124040602960075,-0.6501077067029822,-0.47829552740151793,undefined,1496075538407
903d185fccf839df,-0.28144226651701293,-0.7430514069213329,0.3728314977982453,0.3726394151995701,-0.7849233077515972,-1.9677423655574062,1.946952445481831,-0.7340188293708476,-0.4090535278160212,-0.12436751546129049,0.155805004548528,-0.020462268652080545,-0.8913978943850268,-0.7595225898116729,-0.969706167557494,-0.445390630179906,-0.9675528589849854,-0.7599493307068967,-0.9471394129873105,-0.4720235771226829,-0.8449121338316571,-0.44970034456033875,-0.6387146000046876,-0.4983447807516332,undefined,1496075539917
903d185fccf839df,-0.27728419211695593,-0.6802407582803559,0.7498960144794401,0.7851718108925795,-0.8651723161537572,-1.9546660163446217,1.9414982278606199,-0.7692436569686585,-0.3718718783648008,0.005123112419609905,0.18403351580448415,0.005389629433383122,-0.8565828319964349,-0.7632259285472776,-0.9539166865966066,-0.46559672629706605,-0.9400088159797609,-0.7290318984779495,-0.9421296961304588,-0.44874112908875163,-0.8271916448107273,-0.4610126528552903,-0.5814832245332221,-0.4930587132046618,undefined,1496075541425
903d185fccf839df,-0.4740982529906414,-0.6180170954095079,0.8896207634093747,0.9419946861339049,-1.0745171098401929,-1.9448273093411328,1.9456217596916168,-0.7686578604617039,-0.3610795486809318,-0.14162386421102868,0.20334075820462266,0.05864334391945208,-0.8304715352049912,-0.7456350986923982,-0.9697061970064291,-0.443370112428535,-0.9596490268122244,-0.7045170742391417,-0.9313825948746822,-0.43380463710008993,-0.809939623918583,-0.451249464520537,-0.5847441924038189,-0.5239757767048808,undefined,1496075542948
903d185fccf839df,-0.5683472952909515,-0.690807042860537,0.9470417364468448,0.9381435054355861,-1.1508678373663308,-1.9667035237309571,1.9600830662223152,-0.7044608447628258,-0.34787037176972757,-0.04678922503308035,0.15703472927932288,0.06680139405077089,-0.8348234180035651,-0.7391542461920091,-0.9728640652221181,-0.43326707143613535,-0.9655235371685656,-0.6969048753464934,-0.9313755980638055,-0.3958474690615313,-0.8013998873073245,-0.4501857005665058,-0.5719796610785658,-0.5181296302675151,undefined,1496075544415
903d185fccf839df,-0.5101346677550704,-0.6080378550554405,0.9763902337771072,0.9525008042471755,-1.1392964274978714,-1.932733898885295,1.9558806413349312,-0.699888206150916,-0.3123450072565615,0.035616540107347085,0.09961576252774154,0.00009471620152220466,-0.7869527072192514,-0.6437933805940795,-0.9728640799465857,-0.41508157786451094,-0.8813422492469078,-0.6513836751968,-0.9288147646345333,-0.3455715452717475,-0.7742388510811503,-0.43700859348906756,-0.5439243686796835,-0.5267090728540796,undefined,1496075545915
903d185fccf839df,-0.5101346677550704,-0.6450198145510841,0.8060412200308047,0.8062644127338964,-1.0976290731941811,-1.9350328582945835,1.9295825721302526,-0.8644191268235644,-0.3162654016069418,-0.0788998446267267,0.07161296196142519,-0.0070417980694733925,-0.7042669340463459,-0.7521159123404636,-0.9802325127388648,-0.394875538276794,-0.9798163756742715,-0.6666334031622466,-0.9453972066875259,-0.33808789787699334,-0.7855454960168091,-0.4547989421564695,-0.5466272993752322,-0.5251583071132805,undefined,1496075547405
903d185fccf839df,-0.5544871278033843,-0.6420847687884695,0.6273979386661707,0.6487449357073319,-1.0747948254887079,-1.9189005474562943,1.9538846147446538,-0.6860053685909737,-0.3278274050224332,0.01105991715776052,0.07114017030993454,-0.00726901462229145,-0.6650999888591801,-0.7623001035764573,-1.0128641268481378,-0.4696379879175803,-1.0039973861722509,-0.6609654184436374,-0.943452093080298,-0.41364806926458975,-0.7936112269026828,-0.45869387765959324,-0.5911425693061094,-0.5182720574385195,undefined,1496075548900
903d185fccf839df,-0.5572591543998158,-0.7377683011662327,0.6184655331678369,0.6180690912044241,-1.0941216499139097,-1.9453257662700927,1.9887979211437585,-0.4893540233413401,-0.3069074988212722,-0.23948236416896343,0.09852261099046071,0.0057023129378747876,-0.7390819964349377,-0.7456351116431728,-1.0107588813710118,-0.5019677134403149,-1.0125212791831772,-0.6925668087281598,-0.9565781107253727,-0.42187083899828365,-0.8135193016704593,-0.46941970017009454,-0.6012773021412937,-0.5015590554765225,undefined,1496075550404
903d185fccf839df,-0.6986326143340517,-0.7770983060403657,0.5419042357845436,0.5132457835961848,-1.2698939267523375,-1.940893224130473,1.9488406517013812,-0.7869304888598647,-0.3401631149561193,-0.2698733605341449,0.0825205672529156,0.014529495109996089,-0.7390819964349377,-0.7872976238533205,-1.003390441216499,-0.5363180132438634,-1.0324244114848706,-0.7130095514724476,-0.9569279514404843,-0.45055814182811754,-0.8294383654075096,-0.46830196936736,-0.6165635807411866,-0.4950092310453922,undefined,1496075551921
903d185fccf839df,-0.7000187138957918,-0.7653579914639417,0.4857592843701284,0.45875571402541454,-1.3325029624269227,-1.9515308597820409,1.9114001046974736,-1.0603705092347826,-0.34682653396471075,-0.2805238255250757,0.07413996056574511,-0.022797345927181453,-0.691211285650624,-0.8113693062085888,-1.0033904485787326,-0.5383385733923167,-1.022676474938726,-0.7319830514607539,-0.9856498597099864,-0.4729320824423057,-0.8534693316645082,-0.4617469802128136,-0.6151481095846242,-0.5024908036564669,undefined,1496075553408
903d185fccf839df,-0.7443711394386958,-0.8005789498072097,0.26500728944468294,0.20161647994140036,-1.3557383512706238,-1.968981519195848,1.925340698619631,-0.9933719282332218,-0.3386978210696972,-0.21824602667280063,0.07001835890207925,0.015807419196671127,-0.4779690285204991,-0.8215534715430334,-1.0497062760850657,-0.6858429973196007,-1.0098839843149072,-0.7592020430872045,-1.0243842044663547,-0.5854023294089873,-0.8959720674653251,-0.45588742961370826,-0.6306860263937495,-0.507568275934936,undefined,1496075554913
903d185fccf839df,-0.35905911473332425,-0.7929477694456277,0.15399366237585693,0.09008146383750036,-1.0451822980694865,-1.9567064274748682,1.9128175609079656,-1.0103860462319532,-0.304221785439526,-0.25749983865606785,0.0679029180908528,-0.05591560535957355,-0.4692652629233512,-0.8113692932578143,-1.0181272847143557,-0.36254575622461643,-0.9784496484665933,-0.8077123923481103,-1.0229218708035002,-0.3284792660337872,-0.8578906511658511,-0.4588593309720336,-0.7031635786914089,-0.5149727593168628,undefined,1496075556394
903d185fccf839df,-0.32856678766716796,-0.7894256502289071,0.020649021561196773,-0.028120442582109162,-0.9222785036787011,-1.9380282588967552,1.921974556471295,-0.915285483467176,-0.2962979228239255,-0.3297810318003739,0.06219906888986119,-0.09907423379836588,-0.5432472704991087,-0.7965559642169447,-1.0444431182188478,0.1203795099385048,-0.8487108890232272,-0.8241083833959981,-1.0256646209607767,0.001186051569937045,-0.8032662832640851,-0.45431789263704186,-0.6719859534488982,-0.4922041373285521,undefined,1496075557958
903d185fccf839df,-0.39925346587617133,-0.8293426993291538,-0.11843758948873569,-0.10167096758398954,-0.97771840884756,-1.9369847586842883,1.8851888300060748,-1.1715968114076722,-0.2637451522660613,-0.4400208237291592,0.07031592925391678,0.03648192564534264,-0.7695451760249554,-0.8030368037665593,-1.0507589098669794,0.24767779535154644,-0.8259444673048626,-0.8385031635940401,-1.0421141234908884,0.17363324193442764,-0.7750294735957292,-0.45861289067221434,-0.6588388359491838,-0.5157153509700875,undefined,1496075559411
903d185fccf839df,-0.354901074838677,-0.8487142234951519,-0.05846431906820642,-0.08780120926324272,-0.928861348551,-1.9605915991022946,1.9341190035317168,-0.8561312921207446,-0.24272261148001895,-0.5074307663138229,0.06548565282894979,-0.12437580535359612,-0.8391753008021391,-0.8308118248574323,-1.1160221454477592,0.07996745902779243,-0.931255961897892,-0.8440698213300809,-1.0694716534131072,0.33422362802635813,-0.7542853404970089,-0.46691181806668036,-0.6618161953787659,-0.518384470711461,undefined,1496075560911
903d185fccf839df,-0.5517151702177723,-0.7506826311249032,-0.14842371642510147,-0.2750560091183633,-1.1411169979582232,-1.9559377804379512,1.9284701794066748,-0.9335509961865095,-0.27497263497556396,-0.5270891205397994,0.04572192532360771,-0.030260844951741396,-0.517135973707665,-0.8558093386589082,-1.106548467178354,0.019349100014508503,-0.9717394460886436,-0.8719601044160585,-1.065371522410652,0.6289190782024597,-0.7023070791674242,-0.47380673990109123,-0.6545183111488082,-0.5355493831126327,undefined,1496075562405
903d185fccf839df,-0.6722984306787719,-0.5845571966746004,-0.5344206386046298,-0.5418337176739655,-1.2070688879050233,-1.9318348128502765,1.9210883069426763,-0.9640232664309175,-0.2704296217653311,-0.6026095996071531,0.048143661578584414,0.0006130660277490436,-0.6215811608734403,-0.8798810145387893,-1.1276010986432257,0.01530786665871573,-0.9724774050132943,-0.8919405419839902,-1.096899152477876,0.6544958947425109,-0.7124977398959527,-0.4660301029489858,-0.6508178417923279,-0.521956696050982,undefined,1496075563900
903d185fccf839df,-0.6126997553392654,-0.6667393694815754,-0.6543671794456885,-0.688332488800543,-1.1655763870160922,-1.8362801051040334,1.876773445304624,-1.155368992203429,-0.23509729052068687,-0.6126006670812639,0.061620048601196936,-0.06598701702062396,-0.6433405748663101,-0.8752518443569771,-1.1444432428349618,0.17695655080183134,-0.9211641788198404,-0.9022569068690417,-1.1114175344597432,0.2168104831677496,-0.8199904896990482,-0.46254977835558647,-0.62328514180564,-0.5299144456804792,undefined,1496075565420
903d185fccf839df,-0.6071556331355829,-0.7160487462357413,-0.6626611929270705,-0.7313170998399586,-1.2334208444697756,-1.8172828298089667,1.8823696733603936,-1.1206941813460807,-0.2431121126777217,-0.6123328983275803,0.06837098267094342,0.1377073502548919,-0.7913045900178254,-0.9058043533110854,-1.1454958655735248,-0.03318665096358219,-1.0140452220431004,-0.9370944302321582,-1.1328417690582757,-0.0691386489582635,-0.9020188658366753,-0.4761859399589418,-0.6409503630786969,-0.5347894830426666,undefined,1496075566903
903d185fccf839df,-0.5628032075926788,-0.7518566611211459,-0.7456028525625877,-0.802574737737272,-1.394309715649007,-1.8203481088280604,1.9040419030834528,-1.0126030541425801,-0.2053016321093678,-0.6645288675682214,0.08067664061990405,0.040079928879890904,-0.9436204879679144,-0.9520960551292071,-1.1560221960304282,-0.10592856872063676,-0.9431395420235595,-0.9981820050550144,-1.1579603205520923,-0.3783548323690125,-0.9977155557766637,-0.46627119452683125,-0.627604457195868,-0.4886185865086859,undefined,1496075568402
903d185fccf839df,-1.0035558849956145,-1.0700190823828613,-0.8228020336889339,-0.8713102829849083,-1.598172233152027,-1.9083490945686352,1.9217720600333112,-1.0304977448123882,-0.27907914574130666,-0.6644585142976477,0.08890440947874886,-0.00648858877739216,-0.9958430815508021,-0.9946844182117243,-1.1876011800389044,-0.7808115854746294,-0.9831444913269766,-1.0469963348040816,-1.192209710062578,-0.6698628019279795,-1.092390053813879,-0.45510720145637,-0.6396168398457948,-0.4774797106899369,undefined,1496075569907
903d185fccf839df,-1.1241391627093191,-1.1028919807336437,-0.9338161690316588,-0.9814701468385038,-1.7263834458503067,-1.9137622462336856,1.936028242941367,-0.967323065584124,-0.2912461336081551,-0.6758439390563854,0.09169946148180597,-0.04422350705477502,-0.9740836675579323,-1.0548636111491208,-1.261285485874994,-0.9465014111131927,-1.1888510792655675,-1.1060826994304187,-1.2374231016723982,-0.9912437577124759,-1.2030410295525378,-0.4634756714758298,-0.6383630639703742,-0.5134078072051956,undefined,1496075571399
903d185fccf839df,-1.1740356932032008,-1.0893906357768517,-0.9389202555238784,-0.9875286554312928,-1.6230533319114635,-1.9385360345856322,1.9323543996462405,-1.0028103570833404,-0.3044418190488776,-0.6804714212072155,0.09335781017958794,-0.05513182036433158,-0.669451871657754,-1.097451970993944,-1.2760223422567598,-1.029346334531745,-1.2592161778154074,-1.1214210891056486,-1.2511788320761597,-1.0186837867573313,-1.2202564060442451,-0.4645738060171533,-0.6396859965404991,-0.5116656123797021,undefined,1496075572958
903d185fccf839df,-1.1227531321583986,-0.9778576692218188,-0.9133993147888817,-0.9622001722022994,-1.4876009882720427,-1.9708821791170263,1.9367303905147037,-0.9756982230319492,-0.3082819338970451,-0.7053277792002717,0.09013443841363633,-0.02225007099294198,-0.7390819964349377,-1.1196719904567973,-1.281285513006887,-1.0616760600544797,-1.2781316514732155,-1.1482664371880131,-1.2605405652310169,-1.0574262773849117,-1.240935894104403,-0.47213689082050925,-0.658565548882218,-0.5229654109788205,undefined,1496075574422
903d185fccf839df,-0.8219879704023023,-0.8616285826818147,-0.7494311715687019,-0.8211857240064482,-1.4279645165429238,-1.9399102842368827,1.930855403291788,-0.9438358826640252,-0.24884697954962348,-0.7145151170775325,0.061306723682915364,0.02468572201639159,-0.7434338792335116,-1.0993036371240528,-1.2433907226258116,-0.8959862238166456,-1.132192265924447,-1.1284189916255536,-1.210912185413595,-0.829821856441496,-1.1669070405371302,-0.45340541341239365,-0.6286968645625238,-0.4735476352581936,undefined,1496075575907
903d185fccf839df,-0.8011977536763611,-0.6561731287433828,-0.4495653277399544,-0.4738543248174875,-1.3803108803072155,-1.8832096144970196,1.9393654577753638,-0.7913165599386296,-0.31290756587531493,-0.5943447686164035,0.020813681373811208,0.0650822250667197,-0.8391753008021391,-1.011349416620396,-1.1528643057280379,-0.1321964442096821,-0.740207803913124,-1.061885085395167,-1.1443865073779338,-0.13154855012908764,-0.9618837952504802,-0.42505914310753273,-0.4387514442097111,-0.31815234476393,undefined,1496075577398
903d185fccf839df,-0.23154568426501662,-0.584557255130585,-0.2645419382600459,-0.38761784677855154,-0.9456064633356284,-1.8918673966294794,1.9402385567153817,-0.6924420361047012,-0.46948036236544527,-0.6103248391018715,0.00168976518674651,-0.0060386786206735365,-0.8957497771836007,-0.9595027261250292,-1.0981273858796936,0.43761485860271765,-0.6189089260560854,-1.0157495908659298,-1.0888108386028381,0.1456542656700126,-0.8653409246944648,-0.4308728074120306,-0.48390886082390255,-0.3704131620391342,undefined,1496075578904
903d185fccf839df,-0.36460316792618724,-0.5827961955222247,-0.4074563600421936,-0.4583784749568176,-0.7949312879652447,-1.9128398675441862,1.9354812302031454,-0.7236382840394998,-0.5192226663972195,-0.6410262299495381,0.017965813309044752,0.011288768310585626,-0.9697317847593583,-0.9474668817097014,-1.0244430947680718,0.9367051147184531,-0.5917087338032343,-0.9750287630701294,-1.016344868597775,0.46888303346759597,-0.7521680494939631,-0.43881955421817626,-0.5190755404922096,-0.40635484923813947,undefined,1496075580404
903d185fccf839df,-0.3174785777652127,-0.11259668515112362,-0.5344206386046298,-0.6335292036644159,-0.8693071666272904,-1.7786896630650053,1.8940801897552917,-0.8094711084574755,-0.6919796171030251,-0.679259070711136,0.00682894089714916,-0.06322519602303434,-0.9305648395721926,-0.9400602236646539,-1.0244430947680718,0.8821487187977444,-0.630821203837699,-0.9560869283538769,-1.0144767200264144,0.4973085637210542,-0.7376598857400033,-0.4458753268298545,-0.5474164390923517,-0.41646963577913443,undefined,1496075581903
903d185fccf839df,-0.6792284281590312,-0.6626302644947257,-0.575891722559338,-0.6774975487362985,-1.2904344650284951,-1.5689044042429148,1.8629774743363803,-0.8463135622970326,-0.4068760776471517,-0.5842304635821486,0.029397480796179508,-0.030820546377989373,-0.843527183600713,-0.9520960616045945,-0.9928641107595956,1.2842496146245863,-0.4902984835388766,-0.9690187993874044,-1.0063954033598623,0.6562359201010768,-0.7041158170201764,-0.445732989925188,-0.5372143205311973,-0.3539293091716693,undefined,1496075583427
903d185fccf839df,-0.7873376206942037,-0.8921534210401116,-0.5459050873490733,-0.5696701122509639,-1.3008847333716187,-1.4915783205389577,1.8319326282114516,-0.9352492874239242,-0.3580456931500713,-0.5527468881900619,0.0839365254821531,-0.03926461863030919,-0.852230949197861,-0.9428377244786638,-1.0297062526342897,0.5487483801809174,-0.6699386708648962,-0.970013071195945,-1.0474946705351027,0.34049079938861426,-0.7975870433704366,-0.4478316866263493,-0.5266034616756936,-0.2556889705884407,undefined,1496075584900
903d185fccf839df,-0.00008132544134704673,-0.7641839760816951,-0.4163887655405273,-0.425365089621639,-0.7645782071676314,-1.5865227707976155,1.8599611007625572,-0.7947963917375789,-0.3562013862193267,-0.1954051976859541,0.03875709587682406,-0.04323952893481955,-0.9523242535650625,-0.9345052090858597,-1.0076009689819199,0.8801281162522088,-0.5291462007076932,-0.9355048609261996,-1.0096349282944437,0.5672329085986457,-0.7123393710833885,-0.4157766237815947,-0.41650190594912967,-0.16593679070517756,undefined,1496075586408
903d185fccf839df,-0.27035409112046743,-0.39319014653307016,-0.06994876781264986,-0.20902799304901193,-0.8228158202985286,-1.7391112311667136,1.9979180847932914,-0.09171321560775678,-0.21507993978620962,-0.3826335065307383,-0.0872267626918902,-0.08608041596518547,-0.7826008244206774,-0.9206177147288913,-1.0023377963912345,1.8197107872217666,-0.12603225681784155,-0.9164110357610096,-0.9915831556943153,1.0401807640956233,-0.5898857177676026,-0.4315687469956698,-0.493175932698128,0.053759962925338835,undefined,1496075587968
903d185fccf839df,-0.3147066201796007,-0.6051027946788298,-0.11524766249957318,-0.2503028192717957,-0.8572523312386064,-1.8325300285829103,2.0777590007038036,0.2938083103875432,-0.17899878634630217,-0.46479843960407907,-0.05072688726477706,-0.25770260542551315,-0.6302849264705882,-0.8826585024020246,-0.9707588050205245,2.122802016993756,-0.09641022975896112,-0.8970258944724294,-0.9943468957703884,1.1461682628504186,-0.5578465483102186,-0.4373468978023953,-0.5207390561803884,0.05137373197581378,undefined,1496075589431
903d185fccf839df,-0.3424269379020303,-0.7113525677947855,-0.24348770854811494,-0.34942819045604256,-1.2397362616231797,-1.8630057942139946,2.0326998999716914,-0.13358136078151095,-0.27527343273419885,-0.5912392410839493,-0.012482765479083177,-0.6695923022104723,0.9450966466131908,-0.8650676531209834,-0.9581272069997938,2.217770576884063,-0.06454097531966543,-0.9064746465609049,-0.9938781094110658,1.0830654337480945,-0.574748252819381,-0.43289328505607666,-0.49034972259230364,0.08045057815577596,undefined,1496075590894
903d185fccf839df,-0.7582313069262632,-0.932657426682495,-0.5950317927682119,-0.6030101867909414,-1.462246742439532,-1.87733294451121,2.006425509997165,-0.3898701117851539,-0.3015094859615947,-0.6214920262304818,0.046068838569637255,-1.2157106197769614,6.506802863190731,-0.8900651798732339,-1.0097062402268644,1.2276725878936205,-0.32600573022202023,-0.918082932609471,-1.0458364269568023,0.6687702572521927,-0.6826134917994392,-0.422774502524808,-0.44146332631294893,0.11124505759869995,undefined,1496075592416
903d185fccf839df,-0.9633614475892431,-1.0072084191278883,-0.7271001578228677,-0.7897648741816866,-1.5262134927798876,-1.8304290542457433,1.919639276330272,-0.9468469988869426,-0.26061348501233245,-0.6265427619180746,0.08164582514307821,-1.5822614548177218,8.31283422459893,-0.8946943630058206,-1.011811496747341,1.2862702101039416,-0.2552873785462291,-0.9287096123049913,-1.0550652203930324,0.5994002601531895,-0.7035650651492159,-0.4160688713905877,-0.41043133912666857,0.145775319598045,undefined,1496075593914
903d185fccf839df,-1.0423643091037702,-0.9502679350821213,-0.7143399415923188,-0.766524362170893,-1.623732187403869,-1.8923635257054827,1.825415957420667,-1.6668603643417377,-0.29506237863242596,-0.6665558515335677,0.0867112743678803,-1.4643832724680963,6.720045120320855,-0.9539477244970095,-1.171811699078017,-0.5201531504824962,-0.9104703902839294,-1.0076497553710255,-1.144484462418237,-0.1264362656485789,-0.9278928844641573,-0.4680649740849381,-0.5991375329310562,0.022188770860448414,undefined,1496075595402
903d185fccf839df,-1.0395922652546339,-0.9760965949994623,-0.7385846065673112,-0.8055424612948412,-1.5365711905018349,-1.9064391188757026,1.8234225737278758,-1.6879458531881124,-0.3016858100981353,-0.6179297910322031,0.08312845248137071,-1.0313669073408624,4.1045635583778965,-1.0270885997713286,-1.281285505644653,-1.0758203132041309,-1.2229438693434898,-1.0498081615310837,-1.2291668646666414,-0.8896140199344165,-1.1466420594144402,-0.46256386705333885,-0.5706219227465198,-0.44624011470740355,undefined,1496075596901
903d185fccf839df,-1.0922608050922422,-0.9895979399562542,-0.8106797012014377,-0.8265605704334364,-1.5556305875922416,-1.911894195994079,1.8528343291859894,-1.4990301621496307,-0.3000820376754031,-0.6372408610156761,0.08999970889023581,-0.5572357744148613,1.2149133801247773,-1.073380295114063,-1.3044434267600533,-1.1526034077875351,-1.2983088221903698,-1.103695179464722,-1.2698463234278468,-1.1548984373560762,-1.2406169857659213,-0.47502081145210084,-0.663670173517936,-0.5269416051111937,undefined,1496075598412
903d185fccf839df,-1.0894887784958107,-0.9937071033990886,-0.814507511933653,-0.8311600176923369,-1.549160884109033,-1.9127280637509532,1.8545279247116209,-1.4879462376736838,-0.30014081104221774,-0.6386439197081099,0.09024129503566093,-0.535576135226981,0.7927807486631017,-1.073380295114063,-1.3044434267600533,-1.1526034077875351,-1.2978094911121567,-1.103631850027948,-1.2698113393795805,-1.156361289660011,-1.2409807968901778,-0.47503232757781494,-0.6634570263736145,-0.5268722661768429,undefined,1496075600480
903d185fccf839df,-1.088102730692185,-0.914459961740732,-0.8598064066205763,-0.8983434280841442,-1.5876293910149006,-1.8771908610027304,1.9071792685670395,-1.09929198634058,-0.3193710212086065,-0.6504493150500925,0.08106197632678418,-0.3072893007833579,-0.6259330436720143,-1.067825287010656,-1.2981276351119218,-1.1182530903185355,-1.2701760207346522,-1.095019046659915,-1.264465775863682,-1.1174494172095064,-1.2278893714841188,-0.47482551687853075,-0.6603348045979923,-0.5244508814389404,undefined,1496075601456
903d185fccf839df,-1.0492943583421441,-0.8663247026667859,-0.8387521769086453,-0.8932788299846643,-1.5447997491308696,-1.8588970166051741,1.9204782019668065,-0.9782241375633852,-0.3478942905996852,-0.5684943651142241,0.057707528717526095,-0.14381169049104214,-0.8565828319964349,-1.0437536078930814,-1.2981276351119218,-1.081882127906918,-1.229394903454663,-1.0826318092034297,-1.2653753612164793,-0.9285720859980844,-1.1796762289150522,-0.4705223841868351,-0.6374218754959988,-0.5004348609364232,undefined,1496075602903
903d185fccf839df,-1.0354342081072818,-0.8428440442859457,-0.6754214091576194,-0.6855720109583535,-1.496220399393499,-1.8585732514655071,1.9137248561969455,-0.9949646264241921,-0.3765379532919939,-0.4728500695309788,0.0639309784384188,-0.033378611311224035,-0.8783422459893049,-0.9974619060749595,-1.254969688705187,-0.8293061666925508,-1.081449274952228,-1.0421326348737345,-1.2167755127386215,-0.4157730536053433,-1.0357501632956219,-0.4471530442857103,-0.5252790706000235,-0.3217882676299954,undefined,1496075604411
903d185fccf839df,-0.8178298960022453,-0.6708484744684251,-0.1146092704826216,-0.17303720855234372,-1.4430536304514074,-1.8971407945661818,1.9603670933765638,-0.6969423571369742,-0.3888859304305126,-0.49290469886063304,0.06818440264408182,-0.04913525384245877,-0.8696384803921569,-0.9150626969124035,-1.1633906306632658,0.851839532224922,-0.4519001466678381,-0.9740851556138245,-1.1594506411893026,0.002417928269162515,-0.8995327702504966,-0.42623278574748497,-0.45313445813836417,-0.3104988864903235,undefined,1496075605905
903d185fccf839df,-0.737441090200322,-0.7395293461605968,0.14123344614530803,0.15820318872345293,-1.3685131832154178,-1.9567786352012273,1.976811273813895,-0.6349320182168477,-0.3505321505943003,-0.4289019936950916,0.13928329521323274,-0.0008927617351536294,-0.9479723707664884,-0.8345151474045688,-1.069706292173608,1.1286627946475205,-0.35598639105193447,-0.948981366705006,-1.1138874092436286,0.2709668166908517,-0.8185541757272606,-0.4238184079917589,-0.4819673223690389,-0.3081303412756665,undefined,1496075607442
903d185fccf839df,-0.7000186966430869,-0.8299297143272751,0.3556050788185296,0.34842085851454924,-1.3983519927046353,-1.9691072983627769,1.9874751430955668,-0.5840318936798798,-0.32416555274775577,-0.46027360857353183,0.20235966982325254,-0.041997739344237194,-0.9436204879679144,-0.7928526513828892,-0.9939167334981586,0.9953026592007899,-0.6131466065039792,-0.8859495787434671,-1.064028134850788,0.41013796686324866,-0.7463663055997392,-0.4378631207746693,-0.5795494826651523,-0.3903490226525307,undefined,1496075608904
903d185fccf839df,-0.5558731928597146,-0.7277890169701767,0.6012396224620201,0.6013530829443081,-1.3710228989722835,-1.969570816817179,1.9763984004314723,-0.6558647887407929,-0.2761681929225069,-0.35196036041518214,0.2311989561325904,-0.048034772323459984,-0.7782489416221035,-0.7780392964404707,-1.0276009850704622,0.7528297884420848,-0.6908782855453717,-0.82648323759061,-1.029827723365112,0.5170493739064493,-0.6875395429340012,-0.45701641301992446,-0.6708164174685322,-0.46396420612654193,undefined,1496075610412
903d185fccf839df,-0.5655752169364054,-0.707243477421932,0.8507019768377259,0.8715884880665804,-1.3565509239473428,-1.9870517566248658,1.9570640612737458,-0.796820419903059,-0.2588529520229685,-0.34385547186474696,0.23804231096023953,-0.013347931917175777,-0.7564895276292335,-0.7576709592961942,-1.0349694105005076,0.47398590227540954,-0.7632790626178022,-0.811410830531084,-1.028911141421652,0.2952193711227628,-0.7313199421405797,-0.4683748411846441,-0.6144199140454086,-0.48178819928751687,undefined,1496075611905
903d185fccf839df,-0.5946815824624605,-0.7571397961042384,0.6222938521739511,0.6250162468805244,-1.318277845949379,-2.0001350934397824,1.9288725377653297,-0.9901636576430844,-0.2500198116936645,-0.5091156126094631,0.23384663232286948,-0.01377679069070515,-0.8913978943850268,-0.7697067875230538,-1.017074684062494,-0.20291771702411873,-0.9989508249350848,-0.8214485458500369,-1.0355511152127694,-0.11932218204844514,-0.8323692450153173,-0.47724622618310986,-0.5793935853634354,-0.4760149965529079,undefined,1496075613398
903d185fccf839df,-0.6598242764894203,-0.7618359453172019,0.6006014845820179,0.6110297472471312,-1.2778344836497182,-2.0083852589605464,1.9463791650871045,-0.8688273297584479,-0.26052747399562776,-0.46358503360076203,0.24461482850069804,0.04329212792596252,-0.5998217468805704,-0.7919268005105199,-1.0581273463403753,-0.40295787779713266,-1.0643252352664856,-0.8227974626207815,-1.0502024366257618,-0.37676879285152737,-0.8935614894812288,-0.4761677830960668,-0.6169912871647537,-0.49803321748219964,undefined,1496075614907
903d185fccf839df,-0.759617302971774,-0.8117322201575198,0.5565786115181495,0.5524047141784421,-1.2941064558404392,-1.9846037266721548,1.9837618564148118,-0.6012959262118069,-0.2907894542435865,-0.4812901717177751,0.21853630444310962,0.04319556151574992,-0.5867660984848485,-0.79933345208018,-1.0612852513672335,-0.47974102890998,-1.0689944979981565,-0.8180097565916399,-1.0486631378414009,-0.43674573766287883,-0.9082478491831147,-0.4722530179170872,-0.5863191209877678,-0.5141035503660515,undefined,1496075616405
903d185fccf839df,-0.8011977191709514,-0.6655653833273212,0.8054030821508025,0.7784888783575075,-1.4479701945280277,-1.9479694517934052,1.8989506098629647,-1.1545510048904022,-0.3140531103660669,-0.4864377822309822,0.13420097855478624,0.02488076477831671,-0.7521376448306596,-0.8048884666589743,-1.0612852440049996,-0.4837821916039689,-1.0204249888430408,-0.8206442608513816,-1.0552611305103414,-0.46848193384883613,-0.9176421518568435,-0.472583159946345,-0.5800886652498222,-0.5094507258230752,undefined,1496075617894
903d185fccf839df,-0.823374000953223,-0.582209151296111,0.6701447901069841,0.6422089104703833,-1.4532261875891734,-1.914703258263397,1.9504947975562534,-0.7762585089173628,-0.3022104670404829,-0.5526013567750102,0.08867081292726736,-0.08599428417588723,-0.7826008244206774,-0.7419317470060189,-1.0339167877619444,-0.3787105765889014,-1.0139188234991638,-0.7685811305418058,-1.0157781275101188,-0.38135752979645543,-0.8654308693883067,-0.45816654332447826,-0.5770242583213135,-0.4733396917111521,undefined,1496075619434
903d185fccf839df,-0.7970396792763041,-0.5393570272052574,0.42451024646349367,0.46765381747138524,-1.4233153812174675,-1.9178034755468445,1.942334512694712,-0.8281162128449806,-0.306696960177782,-0.5483447934379264,0.0947346286118522,-0.040760378983324706,-0.8913978943850268,-0.7243409301019141,-1.024443087405838,-0.41508157786451094,-1.008775943910504,-0.7495379691973314,-1.0200181945037763,-0.40704213758167535,-0.860879130058507,-0.45076251893367186,-0.5902341298173528,-0.47260017583860153,undefined,1496075620893
903d185fccf839df,-0.6917025823483827,-0.6015807046901014,0.3409307030849236,0.4070197979987562,-1.3975599982577738,-1.9474873010923974,1.9323701753244567,-0.913435338714654,-0.29627187818145984,-0.582017968790437,0.10108654889364771,0.03957115735623799,-0.8870460115864528,-0.7067500484439366,-1.0065483315188894,-0.4373082623948458,-1.0012216429909027,-0.7319703836909327,-1.0048700988823656,-0.4430745003163927,-0.8487667588092648,-0.4640742472338726,-0.6084995272793311,-0.4816058070904784,undefined,1496075622453
903d185fccf839df,-0.5835934243186199,-0.6503029641481728,0.3721931057812937,0.4111201734526086,-1.3192961271814647,-1.9616350995498826,1.953960881663904,-0.7786863659617531,-0.3175427385827241,-0.5742265859164154,0.11109065493975949,0.011118532328494779,-0.8870460115864528,-0.6799008976515948,-0.9886535461830056,-0.4150815637321502,-0.9565018957827922,-0.7290762283639246,-0.9953404420890734,-0.4606749220883427,-0.8452441295481075,-0.46167369367857003,-0.6058692305629585,-0.4769307433850165,undefined,1496075623905
903d185fccf839df,-0.5988395705989932,-0.672609577918774,0.6063434548172902,0.666190296418085,-1.3348789587768959,-1.9400477095092958,1.901609336450863,-1.1130153472395878,-0.3375837445088037,-0.43363467523190147,0.11866838736799779,0.008414084307558868,-0.9610280191622104,-0.6882333806674625,-0.9907588284713006,-0.39891674336786526,-0.9782846642742792,-0.73651743764994,-0.9978872811074914,-0.4303245852386618,-0.8419100318539948,-0.46604317308369975,-0.6116458253129469,-0.49839535308204286,undefined,1496075625402
903d185fccf839df,-0.7305109719511286,-0.6849369221073155,0.5789091169900848,0.6048701799894934,-1.388313153965499,-1.9264216600132469,1.897730366390528,-1.1375982185410658,-0.35146985161387134,-0.43843058068433555,0.12220400622853399,-0.017958013725950763,-0.9914911987522282,-0.7002692412712586,-0.9949693635989554,-0.43124642649351747,-0.9988349073848406,-0.7452442345522962,-0.9975374400192392,-0.3864082181527371,-0.8406343936364883,-0.4584290518215565,-0.6094423414970438,-0.4970616532592075,undefined,1496075626906
903d185fccf839df,-0.8219879531495975,-0.5205725326513768,0.5310581790570517,0.5817018170829577,-1.4097794032946813,-1.9229161557392227,1.9319467670153532,-0.9046291001411148,-0.36073489011598714,-0.4843616038620735,0.18045292495539383,0.04934725117517802,-0.9697317847593583,-0.7354509333579535,-1.0454957409574108,-0.5464210825009846,-1.0270558079379843,-0.7725328893509413,-1.0179611304299585,-0.5237777505040894,-0.8822910065887973,-0.4718836276990077,-0.6490802851575352,-0.5404922190461408,undefined,1496075628405
903d185fccf839df,-0.7942677044379873,-0.6896330128642942,0.26436940570163026,0.30400338905114815,-1.3345703858332125,-1.977180442063593,1.9751124040160306,-0.6537683163727467,-0.3462109072153877,-0.5748960150426462,0.18201070309412068,-0.0026128057404592206,-0.8783422459893049,-0.8011851214479824,-1.0444431182188478,-0.45549372770174873,-1.0270452295715187,-0.8155399094101036,-0.9986639260014976,-0.48150901778095745,-0.8929309316387187,-0.4609699330945114,-0.6275722223100838,-0.5144162102171878,undefined,1496075629919
903d185fccf839df,-0.7776354758485788,-0.7031343724350823,0.20184409203499118,0.19944443317503208,-1.275324771633827,-1.9880346966788274,1.9642118660404138,-0.7186700454635537,-0.34686841507926636,-0.5803736166922242,0.19291615407173615,0.006287165492475004,-0.9566761363636364,-0.7854459609609054,-1.0654957791326545,-0.4959058634066257,-1.053111716723722,-0.8151472671900118,-1.0084524645158417,-0.4973232207292636,-0.9042152462681163,-0.45737821255522076,-0.6212506719351858,-0.5114099846815773,undefined,1496075631412
903d185fccf839df,-0.6667543084750894,-0.7547917361117529,0.2866999111735655,0.25469457393296785,-1.2081077421015949,-1.9933523511645754,1.9403016730460312,-0.8790075816251356,-0.3249585506988972,-0.46607634180600443,0.1419369610335289,-0.051603184093874724,-0.9740836675579323,-0.797481789187765,-1.0654957791326545,-0.4959058634066257,-1.0612589103022994,-0.810188571925194,-1.009201123444807,-0.5216835636196453,-0.905754825370279,-0.4662316104917002,-0.628193939366117,-0.5077404082397492,undefined,1496075632913
903d185fccf839df,-0.6917025996010876,-0.708417522032171,0.2873383031905171,0.30053627967358226,-1.3079612874026445,-1.9835742044487046,1.892486542474105,-1.2057953427694492,-0.28625588737136937,-0.3886276923839114,0.15163036881662378,-0.04844438053300612,-0.7477857620320856,-0.7882234423487534,-1.0444431182188478,-0.4817615890584333,-1.0679641729270757,-0.8083076875256653,-1.0015396159569228,-0.5522956732610992,-0.9027992203704164,-0.46867842727431125,-0.6492255879568962,-0.5009405137532721,undefined,1496075634412
903d185fccf839df,-0.7513012231824795,-0.7442254807595641,0.3734698898151969,0.384053588935906,-1.3656537628356085,-1.985302500130925,1.8804946313472273,-1.3054143285891462,-0.2725272397791526,-0.3946517189410368,0.15196496450244584,-0.028902193681728163,-0.8261196524064172,-0.7706326254446486,-1.0107588519220767,-0.5302561914748958,-1.0447103037736254,-0.8014301107197009,-0.9677380226178123,-0.5823226426083227,-0.8923981750315326,-0.4478580723918959,-0.6491150453199632,-0.4941252558776068,undefined,1496075635915
903d185fccf839df,-0.7637753428664212,-0.7565527957201132,0.3824012787657329,0.43175084070503944,-1.4154468223668784,-1.982269829201468,1.8905431192857536,-1.2360556532286366,-0.26199078944082377,-0.5134905348140499,0.15633293835020737,0.0924281484646904,-0.852230949197861,-0.767855105204477,-1.0086535990827168,-0.5949156566527256,-1.0626780119480683,-0.7867313488984808,-0.9551577570408044,-0.6115026977387088,-0.8875907295167466,-0.4463790460410342,-0.6508201395762957,-0.5132106454419478,undefined,1496075637405
903d185fccf839df,-0.7707054266102049,-0.7518566611211459,0.377935076016566,0.4123825613103203,-1.3792411697317142,-1.9801595390762379,1.9232842006912336,-1.0092901705629749,-0.2712654516605038,-0.5849575312833876,0.13141662308110572,0.07572285165307988,-0.45185773172905525,-0.7928526319567274,-1.024443087405838,-0.6151217669022464,-1.0776264794147836,-0.7927033147032114,-0.9748537798054602,-0.6241294236643169,-0.8955921149785071,-0.4454706971383555,-0.656565686929039,-0.5252963328505255,undefined,1496075638948
903d185fccf839df,-0.6972466355412457,-0.7512696461230246,0.2681972164338455,0.3060174471363453,-1.2977681627558133,-1.9766889730049564,1.9267239878117703,-0.9603862435871459,-0.26134900081350215,-0.7004358729346314,0.11467362468458694,0.09845376731300491,-0.5650066844919787,-0.7965559577415575,-1.0307588900973204,-0.6474514782926202,-1.086361387092447,-0.7975036860383579,-0.9848872075385257,-0.6173387085763137,-0.8988618137084268,-0.44583471555419246,-0.659864761693179,-0.5246703787010564,undefined,1496075640401
903d185fccf839df,-0.6806144587099517,-0.7213318519908415,0.2892519544196753,0.30975570807073866,-1.3000104448642396,-1.983658057070967,1.9220271535880893,-0.9971345325582542,-0.23190959589319723,-0.7183380959582897,0.13454230002256873,0.032651266409684514,-0.8348234180035651,-0.7835942851177158,-1.034969425224975,-0.6050187259098467,-1.0593847332464557,-0.7757246926100002,-0.985125098747426,-0.6270089307953406,-0.8886317918187097,-0.45505368137593943,-0.6531536960858605,-0.5268501997323521,undefined,1496075641906
903d185fccf839df,-0.5253808140354437,-0.5962975112510243,0.15973563261112922,0.17802807993962724,-1.177878077481269,-1.9341267852540691,1.899579122939319,-1.081943717959019,-0.20537909066788929,-0.6947223815508116,0.17325566744643997,-0.1142008171227158,-0.4823209113190731,-0.7493384374280028,-1.047601015883472,-0.5100501236224573,-1.0438927119895212,-0.7544080043912189,-1.016624741332578,-0.5748543970111298,-0.8785383465343495,-0.4651641404572502,-0.6332914215708748,-0.524192556749783,undefined,1496075643414
903d185fccf839df,-0.46994017859058446,-0.5387699829791436,0.38367755452573715,0.443208464060965,-1.1014656354328118,-1.9168974034123822,1.903547490604591,-1.025917384299105,-0.21733729503011665,-0.5426768544379325,0.2252813014406822,-0.03708969427762002,-0.6563962232620321,-0.7178600646507506,-1.1097063464373937,-0.4534730544944092,-1.014702468437619,-0.7462258410271486,-1.0552681268135022,-0.5322314994773164,-0.878600137724264,-0.46757079337319324,-0.6545412150685097,-0.5241493394507669,undefined,1496075644917
903d185fccf839df,-0.4948885559801069,-0.6221262150103538,0.37921135177657034,0.44694767091438087,-1.1015479216412842,-1.9457217377761336,1.8622989850427591,-1.3247527150127965,-0.1884859203701994,-0.44321757284377855,0.17840568664296136,-0.060612592154545515,-0.9436204879679144,-0.6752717274697826,-1.1044431812089421,-0.47165854806603363,-0.9803786997088628,-0.7264607244190414,-1.0608935634801637,-0.49881687248192985,-0.8684541662650384,-0.4563884302915801,-0.6456109861031092,-0.5149297162212063,undefined,1496075646404
903d185fccf839df,-0.6002256184026187,-0.6978512374519898,0.5540265682720398,0.6192597842461143,-1.1869603500087689,-1.9812007093830855,1.8742751278240735,-1.292345279816165,-0.2304443741067793,-0.47801930263533016,0.18842336952380048,0.009564399279178463,-0.8696384803921569,-0.6521258765607217,-1.070758944361106,-0.4595349045280984,-0.963525240135218,-0.7338639348526094,-1.0418342501933155,-0.48611315435601493,-0.8636086824200732,-0.45201278569348285,-0.650682469225106,-0.5045038368140965,undefined,1496075647915
903d185fccf839df,-0.4865723554218783,-0.6884589682540553,0.5387143087953811,0.5726698751655989,-1.1987786152958102,-1.959373408045094,1.8765788367057492,-1.2503328562236453,-0.27647506730753363,-0.672307918437066,0.16413661621885647,-0.04290654232901591,-0.8696384803921569,-0.6336091958334731,-1.0476010011590045,-0.4191227688232214,-0.9006424599925926,-0.7068539302733894,-0.9934513032074241,-0.3911971361808486,-0.8149643095702053,-0.4454538171920769,-0.651751063321898,-0.5101677753402226,undefined,1496075650680
