UUID,iqrAccX,iqrAccY,iqrAccZ,iqrAccXYZ,meanAccX,meanAccY,meanAccZ,meanAccXYZ, covarianceAccXY, covarianceAccXZ, covarianceAccYZ,pressureDerivative, pressureIQR, iqrGyroX, iqrGyroY, iqrGyroZ, iqrGyroMagnitude, meanGyroX, meanGyroY, meanGyroZ, meanGyroMagnitude, covarianceGyroXY, covarianceGyroXZ, covarianceGyroYZ, class, timestamp 
903d185fccf839df,-0.2800562359660923,-0.44514106155079,0.5425423736645457,0.7209075273323448,-0.7077880582461682,-1.8696974889742668,1.906999228520357,-0.7983705434873483,-0.41745935264572426,-0.6976424459118246,-0.00537308475434561,-1.3423519653153404,1.4499150512477719,-0.037372170956719596,-0.7181269035037798,0.4537797354964457,-0.34896402550041755,-0.17718068007038393,-0.7835506780155843,0.21372896808408504,-0.389499701430885,-0.24618966076133053,-0.4161220670975881,-0.36251814784583225,undefined,1498791362718
903d185fccf839df,-0.371533234417266,-0.5971780629761987,1.1384449799050782,1.162385788522908,-0.8623968921905318,-1.8809038638436928,2.033404236516403,-0.00933790874224293,-0.3720551690060495,-0.22813511053924923,-0.07678246588161888,-0.6803692409670693,0.8580589906417113,-0.25586893619422646,-0.6991795175160344,0.07794672929100989,-0.4333149584484699,-0.1554225576906949,-0.7015942130777063,0.12763125534667133,-0.35424699846644936,-0.2783115341435343,-0.44500530101682106,-0.5031516064427065,undefined,1498791364087
903d185fccf839df,-0.3244086442562915,-0.5528583721620492,1.5397544156982148,1.5195909235874039,-0.9650976910724073,-1.8698065028297413,2.006437405228546,-0.18326005622672578,-0.2922476677243143,-0.20008066322409565,-0.047178893685778246,-0.5708590174324193,-0.01884539327094473,-0.3077156525911424,-0.758126979854267,0.03349338849506167,-0.5535617691774652,-0.1848195282115348,-0.7516671727092308,0.07626715435869842,-0.4104049053742515,-0.32489007447826096,-0.3998473128833758,-0.4823826366177225,undefined,1498791365609
903d185fccf839df,-0.15392883604870528,-0.525268667250344,1.9200091135055215,1.9733990137206212,-0.855884337079414,-1.8727140636092672,1.9353602608151008,-0.6220630728890176,-0.21172332124001797,0.24331138232299157,-0.0052747928253374906,-0.4956737019999387,0.4489820075757576,-0.3003090010214822,-0.861284980048304,0.39316151780676944,-0.5271782788837714,-0.24213963629895444,-0.8057654528944648,0.31878234464270033,-0.40423112787913285,-0.33937741533040156,-0.4260343163194401,-0.5836715325172497,undefined,1498791367101
903d185fccf839df,-0.21629957249005308,-0.5352479222184077,1.6258857481859452,1.6269231567518139,-0.8198535433844479,-1.8680136582995341,1.9198575657305814,-0.7188397465970789,-0.19900750482757595,0.3227141944871518,0.03183878120449383,-0.1424891824862548,0.11388703208556152,-0.2475364337521969,-0.8528639245174618,0.23151303151670458,-0.5000107811134104,-0.19454172813158782,-0.8189166483342598,0.25851179856308515,-0.3976533101764328,-0.33068817313430904,-0.41167022049834,-0.5498742667021157,undefined,1498791368608
903d185fccf839df,-0.09848833862548494,-0.5751649713186543,1.6992571185800762,1.7303422627101568,-0.8340066639977683,-1.8928200552512247,1.9755358102300908,-0.3957963038353342,-0.27515527247174015,0.34293158393882284,0.03633807640303067,-0.158325243435738,-0.6259330436720143,-0.2503139863693049,-0.91286399486979,0.23151289019309687,-0.5580391402777023,-0.20793829323438992,-0.8312442374364006,0.21294547338765643,-0.41621410946524723,-0.3643543120702898,-0.42423626425574346,-0.5549394938147346,undefined,1498791370126
903d185fccf839df,-0.19689528279880333,-0.6156690646450147,1.6877731781095315,1.6417023974189469,-0.8572420488404272,-1.8947696285359186,2.022785541437507,-0.09169367457523474,-0.24213610924120343,0.03894027463330684,-0.02904546813481846,0.04570744752845099,-0.7347301136363636,-0.2382781063393471,-0.9191798270102074,0.22747174163146872,-0.5493301433579165,-0.22682946437354023,-0.8739457746816582,0.30953992472815617,-0.4259765164311734,-0.39223985005914686,-0.3818453789782586,-0.5376563089403154,undefined,1498791371597
903d185fccf839df,-0.11789245578968599,-0.5822091805241033,2.072494078666005,2.0787709584663214,-0.9182670860627998,-1.8672799479907582,2.054577253317394,0.18343150361345129,-0.2260648087759367,0.17996943766443443,-0.04905449627062843,-0.06892100030550129,-0.7695451760249554,-0.24846233642766444,-0.9054956062509136,0.1708948138270283,-0.5899275481077404,-0.2225547302759036,-0.8695167925280989,0.38948865534307453,-0.40765395893324324,-0.3904258102747805,-0.4157998775618779,-0.5286879614928486,undefined,1498791373130
903d185fccf839df,-0.09433029873083768,-0.47243728819142683,2.105670386728483,2.18043436340722,-0.8441689203165573,-1.833610796069265,1.9852240135228156,-0.2004893468695567,-0.19399182748257995,0.3034860739057272,-0.07098863475222493,-0.04717543041673399,-0.6520443404634582,-0.22994565570041575,-0.8781271279211571,0.09209101777156306,-0.5767277120029448,-0.21084511803097564,-0.8539978653429863,0.42124024425299633,-0.39874398017658386,-0.35988630379794956,-0.40937162530031596,-0.47539579820321337,undefined,1498791374612
903d185fccf839df,-0.21214149808999608,-0.3632523524008871,2.1739379247673436,2.184792438094224,-0.8632797421771888,-1.813761019493637,1.915084461968846,-0.6127269774372843,-0.19856579680144446,0.2383517439194821,-0.03486436119248761,0.03436642707533675,-0.5650066844919787,-0.33363904964192403,-0.8823376483243444,0.09007040109366668,-0.5820009302118543,-0.2927490766783896,-0.8927112197401292,0.40730464983172543,-0.454059404790062,-0.36814491841538344,-0.3348563864707811,-0.4883464171862702,undefined,1498791376084
903d185fccf839df,-0.30361847928846497,-0.3708835181484728,1.6845829969834196,1.5337754826675891,-0.8210878115690374,-1.8363313461583226,1.9693557668529142,-0.3105390125175931,-0.22988421844281268,0.23685085801608174,-0.051599589299838926,-0.03875616833484035,-0.6476924576648841,-0.33549064778046633,-0.8844429232504056,-0.0008569819702907558,-0.5860322981053296,-0.3297334686346886,-0.87995603283907,0.37994161458919157,-0.4753335785915651,-0.37145961615964357,-0.33784508658995205,-0.49572899457204134,undefined,1498791377593
903d185fccf839df,-0.30916253248132797,-0.4031693722731414,1.4421383803290917,1.5243067816785445,-0.8707677335982298,-1.8361915903247608,1.9212723821861526,-0.6459474036319446,-0.2513028093190354,0.02310273887520593,-0.03731379546708925,-0.0002125697816209195,-0.7390819964349377,-0.32808399621080614,-0.8949692389828414,-0.12209347387908631,-0.5856414415548636,-0.3594856377874627,-0.8946983134479847,0.3849461064513757,-0.4965927381689794,-0.35742930637834663,-0.33017837299538255,-0.49697619647447755,undefined,1498791379101
903d185fccf839df,-0.3646030989153678,-0.5070711730805887,1.9206469972485742,1.9391954600476868,-0.8326900820055181,-1.849118868200421,1.9983388465385832,-0.16952829063661545,-0.20765394425715872,-0.24969398870388892,-0.02884943129317536,-0.07313822185753423,-0.3517644273618538,-0.3651173576653035,-0.9339166778702981,-0.14027885439182458,-0.6694846048613072,-0.44938810490291914,-0.9230703825194065,0.3618022429456071,-0.5453455749708696,-0.3716536779275757,-0.34524968150001906,-0.5212482889081846,undefined,1498791380647
903d185fccf839df,-0.23570375866507362,-0.4976789915666312,1.9716878621707699,1.9810713787592926,-0.9115916640456254,-1.8171989747018544,1.86132070810574,-1.0329616597292728,-0.25810975918659446,-0.20663020179984035,-0.03580974859816445,-0.12191231897401608,-0.517135973707665,-0.43733237882955955,-0.9707588197449921,-0.09784613027377274,-0.7582897967027725,-0.5099500447693719,-0.966702495605145,0.17009159996642476,-0.6178524544224383,-0.4176224919896242,-0.4227981357934744,-0.525307980697477,undefined,1498791382102
903d185fccf839df,-0.3147066546850104,-0.4207798806727677,1.9429772485835601,1.8660080076190417,-0.9662910043250944,-1.7851835822236588,1.8821040684481742,-0.8392509116964211,-0.2603655246108778,0.23489852045176315,-0.05417171142380943,-0.04713791871704336,-0.8261196524064172,-0.4530715846443475,-0.9528640417713421,-0.09986677521639066,-0.7618689022262396,-0.5164919761473211,-0.9548009192273144,0.19280430348603458,-0.6149134663868081,-0.4138432241935989,-0.4443974975827572,-0.5026388869821204,undefined,1498791383603
903d185fccf839df,-0.2786702744259911,-0.19066973835725282,1.8332393890008396,1.907476182525958,-0.9117973796668324,-1.7546845236286768,1.9877433736211623,0.01638531110672004,-0.436766197546933,0.2362436418899688,-0.3297173999608625,-0.06235900256352956,-0.843527183600713,-0.4651074128712071,-0.9391798210120483,0.06178190892672494,-0.6974738105528793,-0.4583808840334125,-0.959117951122264,0.33540930559287324,-0.5596301565337403,-0.3806577225828299,-0.3728617402171009,-0.5317696699501259,undefined,1498791385088
903d185fccf839df,-0.123436508982549,-0.32450927484089853,2.5490882819454814,2.4894655067001814,-0.7467839407463343,-1.77098454041187,1.9294773820867506,-0.3498800233101898,-0.45398424462228143,0.0934951460826487,-0.33846002439607686,0.01664744157296555,-0.8130640040106952,-0.487327445284835,-0.9560219688849015,0.07390560899410327,-0.7328081396853533,-0.4894249746652911,-0.9605033200795721,0.33955148690635656,-0.5737209051307417,-0.3784890084131684,-0.4035597805848393,-0.5279680149774296,undefined,1498791386606
903d185fccf839df,-0.17610508332556707,-0.372644650826814,1.784112683581701,1.6782024633181722,-0.8011027084609176,-1.771760177389894,1.815393773801908,-1.1766990126721628,-0.46908122900359717,0.2960898479295035,-0.22068118122166475,-0.04085465738917193,-0.7826008244206774,-0.5623200061154245,-1.0160220171505283,-0.006918747209815308,-0.7577518966822528,-0.4916605033736972,-0.9775195637952127,0.2762638754624659,-0.5957285311086817,-0.38674752523449474,-0.409836067370896,-0.5131783554032456,undefined,1498791388092
903d185fccf839df,-0.18580721091848706,-0.4031694307291261,1.5135955912201655,1.4667337955648634,-0.965097864666944,-1.788165008875544,1.9265556793425747,-0.6103217019892622,-0.38636480552566654,0.4230195878317963,0.0297244512739898,0.0011505613659443452,-0.9131573083778967,-0.47343996711633485,-1.0476010306079397,-0.08168128164476626,-0.7131262195357008,-0.48794306585031805,-0.97027086811235,0.21831952516731584,-0.5983409776182621,-0.3912594000717385,-0.4097370500411069,-0.5344211210637332,undefined,1498791389652
903d185fccf839df,-0.46994017859058446,-0.4859386331482188,1.4472427209582606,1.5848398499181036,-0.9834064080541106,-1.7746414457102793,1.9190502076870681,-0.6729810846033907,-0.33366737756619963,0.5258733714210552,0.09781754978820269,-0.08018431584192019,-0.847879066399287,-0.4419616072898572,-1.0276009850704622,-0.05137217279992814,-0.6854364141652729,-0.46508747211861046,-0.9807450942761206,0.17805259317928618,-0.5922135479750033,-0.4039710128161569,-0.4249809876713487,-0.5396072756260311,undefined,1498791391082
903d185fccf839df,-0.5378550199829099,-0.5035490246358757,1.5014735128696186,1.6359816266637919,-1.100539923603585,-1.7957629851057793,1.9879537495180801,-0.2656144080501212,-0.32531616012639586,0.28969937919558475,0.11840771303620867,-0.17196305177789747,-0.22991170900178254,-0.4660332896451256,-1.05075892091033,-0.17058801976610577,-0.7682683625078682,-0.5114066232048752,-0.9856498592940262,-0.03751024264431956,-0.6550390603599875,-0.43375903632423585,-0.5251892511290943,-0.5069136282274875,undefined,1498791392592
903d185fccf839df,-0.5420130426248522,-0.5164633838225385,1.6884113159895338,1.6904974029812623,-1.1112370510582525,-1.778384531167696,1.95454469593779,-0.4564423751503189,-0.35522968290596374,0.07518821819411246,0.07252703206720713,-0.19666597972776403,0.1356464460784314,-0.47529162353336263,-1.0654957570459531,-0.14634070442551372,-0.7866980235257008,-0.5365737408251642,-0.9964669289521886,-0.03176662132163358,-0.6585397765029567,-0.44270007361699,-0.6004224877907394,-0.5208109224720622,undefined,1498791394087
903d185fccf839df,-0.540626960315817,-0.49826591888077554,1.5244421562215562,1.6075399652897548,-1.2334414161939387,-1.7646583257049453,1.9253196732859439,-0.6535699725035076,-0.35282637458982014,0.06856050905389173,0.048595085730832856,-0.11350816436964176,-0.33000501336898397,-0.47806913082275976,-1.0097062365457474,-0.23322688239839992,-0.7911861689313496,-0.5025151689917736,-0.9945777894037795,-0.08780156607769522,-0.6517821981732254,-0.43417797579297596,-0.5863490393063358,-0.5221981326581931,undefined,1498791395623
903d185fccf839df,-0.4034115920343429,-0.46421901976174273,1.2979481910608384,1.4323547288003513,-1.125081596833396,-1.7097185602946146,1.9170515554834142,-0.6146704039604085,-0.22451395023127532,-0.23905101354375535,0.09745628711276884,0.09373141841230373,-0.4605614973262032,-0.5641716819586141,-1.0107588592843104,-0.20897958119016866,-0.8959475620563537,-0.49406702150048953,-1.0120698167116968,-0.10025890771677626,-0.6568211480518793,-0.4358822214721316,-0.6130162189649149,-0.5116750944676604,undefined,1498791397089
903d185fccf839df,-0.564189289901714,-0.47713334972041327,0.8494257010777215,0.9280445755891412,-1.1985728992104823,-1.631288418050364,1.8868403455337222,-0.7144756980661396,-0.2829006804261348,-0.2705709465898462,0.03234587691418375,0.19893241435236353,0.4663895387700535,-0.6150925604339353,-1.0286536225334928,-0.2655565796564129,-0.9171980322088538,-0.5651733133704698,-1.024265258546876,-0.18325652801260758,-0.7091867038395075,-0.4616922397010302,-0.6497539945008164,-0.5197152992600688,undefined,1498791398596
903d185fccf839df,-0.6639822473732482,-0.5845571528326119,0.9827705960293311,0.9634029194636657,-1.224369424878309,-1.5757803166707869,1.8686946796366075,-0.7469641144259356,-0.3208446005590543,-0.06048679488306605,-0.057336535743289355,0.30010396166886455,0.5969460227272728,-0.6002791795899676,-1.037074678064335,-0.409019713698461,-0.9273666210128854,-0.6224547890210668,-1.0167716741040718,-0.21517750668821647,-0.742963197236371,-0.45965827939948084,-0.6709697097428302,-0.5312297987662885,undefined,1498791400089
903d185fccf839df,-0.7221948749091293,-0.5176374430467737,1.208626677446996,1.2286870805287649,-1.2872047524374468,-1.6640212149337494,1.9014883665390574,-0.677914663080278,-0.4011008875969272,0.12995805161594415,-0.0737738857771047,0.26618869994772903,0.10518326648841357,-0.6215733870327752,-0.9949693488744878,-0.4817616455878764,-0.9700762993814114,-0.5990482297154094,-0.9973695166254866,-0.38297436535670765,-0.7635792347306457,-0.47249728342990893,-0.61214552124175,-0.5067108812652235,undefined,1498791401595
903d185fccf839df,-0.6667542739696797,-0.38673295232574256,1.6507685510409398,1.7261508155571146,-1.1641466756858905,-1.7391484976713625,1.9161968641201204,-0.6349945356566116,-0.44487808709935095,-0.3039323143760607,0.01619260124309771,0.08566093772374525,-0.5998217468805704,-0.5993533416683728,-1.0549694339512836,-0.372648740687573,-0.9647809962482938,-0.6552531045366731,-1.0110342887998214,-0.29457188859564715,-0.7774969740345323,-0.4664232753972733,-0.6564663909404259,-0.5163301888785686,undefined,1498791403114
903d185fccf839df,-0.38123529299936654,-0.42430197066149605,1.9538235594480013,1.8886962164690757,-1.0008200941465,-1.725112503921318,1.8566527959587897,-0.947283218311106,-0.35708493804210084,-0.304340153579581,0.06892343989616524,-0.07277065512236461,-0.6476924576648841,-0.6604583725273641,-1.0276009850704622,-0.29788633344386894,-0.971535381657216,-0.6721810625600184,-1.0008189441246549,-0.22289212489509794,-0.7707355908065896,-0.4625428486209778,-0.613314972629918,-0.5192927416203204,undefined,1498791404596
903d185fccf839df,-0.0624519238610559,-0.4372162713921742,1.8083568402827945,1.9155559501178234,-0.7191977088251245,-1.6332216876132473,1.907510623279698,-0.3606702165193806,-0.5661228916591288,-0.30745008219477904,0.04890571869888243,-0.14725531679954576,-0.1994485294117647,-0.6447192055648997,-1.0054956793313912,-0.20089715687566542,-0.8976493619605667,-0.6175530899725121,-0.9990907316240185,-0.009546662496371157,-0.7092719002032608,-0.4483739803652269,-0.5304471618372023,-0.4983989445862488,undefined,1498791406088
903d185fccf839df,0.04981522230523951,-0.3661874566194864,1.246906817864744,1.2200484521668562,-0.561857399397194,-1.63159122008645,1.9208305930121303,-0.2502639164014049,-0.49857233105595145,-0.24701583682207745,-0.012014964312646806,-0.13527329099347474,-0.5475991532976827,-0.6391641909861056,-0.9918114585720974,-0.08168125338004471,-0.9303198171462012,-0.5813539848759196,-1.0015745998400283,0.006590907456286963,-0.6878642896551703,-0.4558002381491251,-0.557316567165291,-0.5009205505965775,undefined,1498791407590
903d185fccf839df,-0.10403239181834795,-0.35796924664578694,1.1416349068942409,1.0037193548065844,-0.6041521928852692,-1.7326079942556742,1.9534980456819984,-0.22543714761993863,-0.43821265732661396,0.06945760585237948,-0.09563419555086944,-0.1849515669424098,-0.7826008244206774,-0.6067600709426804,-1.0370746927888026,-0.1220933890849217,-0.8760075889098974,-0.5739887712683793,-1.0075218899415925,0.07349715099529167,-0.6745049393983767,-0.4520504260402993,-0.5281242705847239,-0.48225337776950045,undefined,1498791409092
903d185fccf839df,-0.166403093754286,-0.4612840032271205,1.088680390742887,1.0037193548065844,-0.7142297161212748,-1.7320373318836082,1.9797829648218372,-0.07494848266008294,-0.41483642460954023,0.21510926954037743,-0.09038712867864658,-0.09262263822252038,-0.29518995098039214,-0.566949182772624,-0.997074623800549,-0.21100018373570428,-0.8426112310088433,-0.5204310670260722,-0.9887424501725312,0.07539115765813995,-0.6444892895693941,-0.4373267151026234,-0.5037467259059554,-0.5021691708465555,undefined,1498791410594
903d185fccf839df,-0.23708977196328937,-0.44191244983313,1.700533140203131,1.8943813340354523,-0.7050857319462045,-1.743860551360319,1.9845876120835921,0.0011193338826546676,-0.4385249953299664,0.3419617666425033,-0.20388885780550353,-0.06467496166255744,-0.8304715352049912,-0.44751657006555323,-1.0128641268481378,-0.05541337789099937,-0.7609218381848144,-0.4839533114000011,-0.9901977868042948,0.18217937775703652,-0.6018516755539343,-0.4306497322056596,-0.5444493236208705,-0.5074845244641091,undefined,1498791412090
903d185fccf839df,-0.059679897264624394,-0.42195393989700286,2.122258921965146,2.3742303263734685,-0.5723487999937278,-1.7214532704777494,1.9512600714116959,-0.13936494132755944,-0.3985654480456051,0.08878115043288771,-0.23212193754986057,-0.026935755868329483,-1.0045468471479502,-0.4234449265626085,-1.051811543648893,0.09007040109366668,-0.7659986833072672,-0.4945039951291395,-0.9976074091679064,0.22535661649983116,-0.5978941432214744,-0.4432246978695149,-0.5715775886484359,-0.5174070448971121,undefined,1498791413583
903d185fccf839df,-0.14284072966297928,-0.4113876699308179,2.0546295218062873,2.1961155179135305,-0.6741154867363992,-1.745498004635464,1.9479254790485105,-0.2252047442938401,-0.35243676402922686,0.5354240473172394,-0.33749980338074625,-0.006489138393266667,-0.9653799019607844,-0.3669690335084931,-1.0033904338542652,0.19312134290139477,-0.7112477962820491,-0.4407436369770624,-0.9736293378653392,0.3839606060235873,-0.538895259016148,-0.4304345164732731,-0.5517164181933735,-0.5286109299367782,undefined,1498791415083
903d185fccf839df,0.01932289523908322,-0.4113876699308179,1.7439181295239468,1.7632124196223313,-0.6144173045880298,-1.7643811452862115,1.9251881815414789,-0.36732856998624525,-0.47335129354389366,0.5396639220920052,-0.30575052438286743,-0.07916993499889846,-0.8739903631907309,-0.3910407158637615,-0.9633903501415441,0.23353353513571481,-0.8017040936689143,-0.42164347885158493,-0.9659608327958286,0.42690686974055186,-0.519766490071165,-0.43628896396676586,-0.5836356112575578,-0.5483161371747534,undefined,1498791416590
903d185fccf839df,-0.14422677746660476,-0.42019289490263867,1.875348102561651,1.910431204626184,-0.7699576186866584,-1.7705163620882411,1.8157514344056158,-1.138902725799745,-0.4334696677729862,0.5621757604243731,-0.30127572426891824,-0.024997443184843003,-0.9088054255793226,-0.42437075153342874,-0.9844430331420521,0.3062753680986048,-0.8300216835467037,-0.4398316930709079,-0.9853350020766454,0.42930902609933863,-0.53151556194905,-0.45543170971172375,-0.5613046559783137,-0.5102111151356484,undefined,1498791418135
903d185fccf839df,0.0013047913730979091,-0.3515120816664517,1.8976786080335863,1.9916162538668807,-0.545585422901352,-1.7605425599100417,1.7660559901670967,-1.3878813552634433,-0.46264414149544686,0.3682925562138602,-0.2415618906481907,-0.023113261050050446,-1.0001949643493762,-0.41233489740502,-0.9444430083272014,0.16887419714913193,-0.7949935241813223,-0.4606734115104848,-0.9662127187214364,0.45434689801805583,-0.5377709988321044,-0.4545205661732113,-0.5258607368298716,-0.5243712980804742,undefined,1498791419596
903d185fccf839df,0.261875463964708,-0.36560044162136496,1.6163157130815082,1.7208990898615746,-0.31601894681876136,-1.7696778355344538,1.8437878005571993,-0.8669488921369346,-0.39213488501432153,1.0457970713322167,-0.1692871824186829,-0.015135747879520814,-0.9697317847593583,-0.4539974096151677,-0.947600891267358,0.17493582106504882,-0.7783175999584221,-0.4295976581755656,-0.9624344412395226,0.44835690190478716,-0.5264365217025803,-0.4011913457297526,-0.5225999909902437,-0.47180308951338495,undefined,1498791421093
903d185fccf839df,0.15099433109662835,-0.3802757873464073,1.3993917830252274,1.6160441663633414,-0.36003144493649597,-1.8206415876894881,1.9212829155415512,-0.43752161408051277,-0.4155669192206109,0.769763609423724,-0.18263411125703966,-0.06137905914163607,-0.6302849264705882,-0.5021407743257045,-0.9686535595433985,0.29011051946959826,-0.764034742223113,-0.45442912948197295,-0.9744969429890511,0.4006371196552174,-0.5479373669128857,-0.42784017835196875,-0.528924466577683,-0.4644080822752472,undefined,1498791422594
903d185fccf839df,-0.21075548479178033,-0.43721632984815895,1.5805873617729207,1.6097133273531168,-0.6109510245280245,-1.783909485152738,1.9510549394088794,-0.2999063200689523,-0.3674214115008653,0.6569304801045214,-0.12861683750444095,-0.064146478779211,-0.6520443404634582,-0.48454997037237424,-0.9570745916234645,0.4598415855301348,-0.7000753857052945,-0.483529005812469,-0.9783241983673158,0.4228570773227214,-0.5513259850786365,-0.3942862641567814,-0.5685875666783502,-0.4054845253057945,undefined,1498791424088
903d185fccf839df,-0.2467919340616191,-0.42665005988197396,1.9161810486363569,1.8238787182950598,-0.5913156342509865,-1.7813310191357248,2.0065543687956007,0.118925800729086,-0.529158806923541,0.6885944100566203,-0.13214469942527032,-0.03101814414585068,-0.7738970588235294,-0.3753015489012972,-0.9444429936027338,0.5669337889583772,-0.590874218273279,-0.3608028905374402,-0.963413993911986,0.5619512350390278,-0.4543186661797677,-0.40346079782491834,-0.5102715752165226,-0.47684805092557203,undefined,1498791425589
903d185fccf839df,-0.15947295825238778,-0.4360422706239238,1.7713522132142028,1.8392729020446683,-0.4923260924344536,-1.8118184324085054,2.0370680053579706,0.3427767105410607,-0.4882951911585256,0.7724919372627612,-0.2118990068955992,-0.0208069571400027,-0.8348234180035651,-0.30864147756196264,-0.9560219688849015,0.5770369288773022,-0.6170009362007274,-0.3084737756909372,-0.9639317586019709,0.5045150306299824,-0.4417026002930451,-0.41625454371123394,-0.4758156160687164,-0.4454046774303064,undefined,1498791427091
903d185fccf839df,-0.21352751138821185,-0.3726445923708293,1.7713522132142028,1.7733573701608136,-0.6142733148661051,-1.8272053888897277,2.0348168967356552,0.2570628718007346,-0.2913597134883128,0.36644119264592206,-0.2063636817723477,0.060462520473049765,-0.8304715352049912,-0.18920895551031372,-0.9654956434731897,0.6699847872955483,-0.5970083386573405,-0.2925274231347709,-0.9893651659551805,0.5805217616877162,-0.421146717763227,-0.4505390745727138,-0.4428659204968892,-0.4913418027607114,undefined,1498791428590
903d185fccf839df,-0.11789259381132493,-0.3726445923708293,1.9755159270399345,1.8111638677979545,-0.5118791956888069,-1.8160949191225415,1.9213670535395608,-0.41115095913012517,-0.35560813342902714,0.09164409811380225,-0.3327401451901476,-0.03776725796883614,-0.7913045900178254,-0.17995065399901303,-0.9528640675391604,0.6881703656613374,-0.5523975887863284,-0.31801752004103373,-0.9662477024760837,0.6213584381631426,-0.4216306997327226,-0.4911628175300201,-0.4464775289540167,-0.4613122055633075,undefined,1498791430093
903d185fccf839df,-0.018099498318151826,-0.3955382357535481,2.143951289557079,2.0797046836676203,-0.4742026887472379,-1.800298018199318,1.823159583953815,-1.049844998688224,-0.3111344041907442,0.6252195452579468,-0.3151268572930444,-0.11233522189408772,-0.8130640040106952,-0.1595822585762511,-0.9391798430987497,0.4921712827881478,-0.5902597469317408,-0.31963242112170187,-0.961426900063438,0.6694785804251095,-0.4202745329727936,-0.5129945730303651,-0.3881924112574482,-0.4706891914329863,undefined,1498791431600
903d185fccf839df,-0.1733331947507745,-0.4548268382477852,2.2536891491397997,2.2175944552017235,-0.49434208561709825,-1.8225515680114441,1.8386622916085957,-1.0022376546845384,-0.30817985672120596,1.19233428886709,-0.2838006395747135,-0.09170190323937694,-0.6476924576648841,-0.21883565244437636,-0.9254955928905207,0.43761494339688223,-0.5832125856321501,-0.3738297536111223,-0.9480350039170197,0.7012609731590137,-0.4387213746241792,-0.5038420566953933,-0.4121010835227603,-0.4405338808934436,undefined,1498791433119
903d185fccf839df,-0.018099498318151826,-0.4835905146997485,1.5799489697559692,1.8012322456983405,-0.4258599208085565,-1.7823372523556338,2.016368807892189,0.1784360369473698,-0.23443766267733268,1.3945598963480699,-0.16775845140173934,-0.03590849370983398,-0.7260263480392157,-0.2567947870665958,-0.9054955915264461,0.4012439562536334,-0.6173956839747794,-0.3675474732063162,-0.9112387749171023,0.6440711486293043,-0.43216038580745286,-0.5276114748630631,-0.35849047993479716,-0.5071018902198414,undefined,1498791434606
903d185fccf839df,-0.2079835272061683,-0.42312799912123794,1.7770946917233739,1.7333426957554618,-0.6559818184616436,-1.7343316321389988,1.9479228461024813,-0.2402791431349065,-0.3393365581666307,1.0977199911419895,-0.21962521635573046,-0.01107307472766027,-0.852230949197861,-0.39289237875617655,-0.8939166088820446,0.35477008357395345,-0.7498582146925388,-0.3856533595453998,-0.905746278024121,0.6008169149533538,-0.4533094637202766,-0.522815067575465,-0.3502022734603185,-0.5228195953058993,undefined,1498791436098
903d185fccf839df,0.04981522230523951,-0.3702965908343284,1.54358222643043,1.51850262766752,-0.4924598014586416,-1.68283448238055,1.9381294433385592,-0.13051858787865095,-0.31811655367319014,0.43956663418241526,-0.2113881313317846,-0.044291169955683635,-0.8304715352049912,-0.3715982231164671,-0.898127158734167,0.467924137035885,-0.7073634504848432,-0.37064428424804735,-0.8999179357811441,0.6185867204464138,-0.4344294479904956,-0.49068655437587,-0.32006159804753576,-0.5358901136247632,undefined,1498791437586
903d185fccf839df,0.7913331649805007,-0.3004416599179216,1.4804190290207384,1.6876640903072035,-0.08146391622274055,-1.6283955028099533,1.8271779307497733,-0.43829072520231166,-0.16405649004891332,0.7188524721682171,-0.45244700746723343,-0.06316498740642927,-0.669451871657754,-0.2614239637237952,-0.6970742573144407,0.6356345864185251,-0.5347290386779499,-0.25904515075397283,-0.7598487784494515,0.6608400516546927,-0.32928019821953763,-0.3448480636920458,-0.3904247637274048,-0.5170636157802574,undefined,1498791439090
903d185fccf839df,1.0020073933417535,-0.34094575324428206,1.5091298967448974,1.835950092823179,-0.014010312313752491,-1.6816325936507448,1.796290851882228,-0.6989791973417527,-0.19278846039327321,0.6691486088231473,-0.4510859057074709,0.019493510104141583,-0.847879066399287,-0.3364165504559339,-0.7297059008726489,0.7083763911166936,-0.5012525141702694,-0.32207060489704115,-0.770742812592946,0.640313921747748,-0.3666822623486325,-0.28333127062360736,-0.3114542677787655,-0.5002942771093645,undefined,1498791440597
903d185fccf839df,0.3145439692969066,-0.41256161224308363,1.8715202918294358,1.87017068409917,-0.3230852212043249,-1.8078843476001334,1.7713076966850183,-1.3623106028351148,-0.13747630552894427,0.6340600829683264,-0.17220612403773816,-0.06052849172497968,-0.9392686051693405,-0.2743856946261224,-0.8139165298034079,0.9649936068853948,-0.4314296028820046,-0.3255030612560542,-0.7638929347997326,0.7873844719704873,-0.3288377345905345,-0.266951741221749,-0.4496357019045828,-0.523224726984692,undefined,1498791442094
903d185fccf839df,0.11772997743404057,-0.5739909413224116,1.976792202799939,1.8845424147623857,-0.49815807949644236,-1.8521561971552871,1.7980633443597187,-1.3761650112642407,-0.1977889710289694,0.617179671787703,0.00201757193420301,-0.021515050799694922,-0.9218610739750446,-0.19013475457958487,-0.7633901377204849,0.888210484037269,-0.3691883006400968,-0.29251475655533293,-0.7359406750537884,0.780763142353694,-0.3090039841554688,-0.26103094398418314,-0.4618134590656182,-0.5032585758788994,undefined,1498791443592
903d185fccf839df,-0.03611770570036634,-0.5610765821357487,1.9027829486627552,1.9608087640820708,-0.6785074860755714,-1.82656484508902,1.94042000529796,-0.4861949137090831,-0.0841919014742133,1.1333985730264136,0.1130393644905235,-0.09176468212347082,-0.2212079434046346,-0.25401729920336047,-0.8833902784251412,0.6740260206513411,-0.44775525221677565,-0.31603530926796997,-0.7900819971709709,0.7890321085276363,-0.3455144256585876,-0.32621545504894006,-0.45964846671113957,-0.5064031224946363,undefined,1498791445093
903d185fccf839df,-0.0375037189985821,-0.5475752664069491,2.1158785597129217,2.3677456557197667,-0.6952628800115335,-1.8472088939009972,1.955451976037704,-0.33174549775966133,-0.1889251927269327,0.7309528323896061,-0.0230284838770253,-0.07990445569632754,-0.32565313057041,-0.1679147480675061,-0.9360219380718917,0.6639229937913023,-0.5206850517394437,-0.2937813458112578,-0.8492960082686984,0.8713214033081089,-0.3291932017651362,-0.43707839939793536,-0.4624766501847599,-0.569779098020523,undefined,1498791446568
903d185fccf839df,0.4697775967187098,-0.510006277299188,1.9633938486893878,2.200781956165676,-0.40222337820734094,-1.8438198524821403,2.0311430474172782,0.23706684609994477,-0.1119767550524849,1.4434188735509181,0.07303107384084609,-0.06415030769622419,-0.7042669340463459,-0.20402227160040867,-0.8939166236065121,0.4355942701895428,-0.5591846026853705,-0.3004816016337884,-0.8151655651181202,0.859033446184414,-0.3397313665107644,-0.431050162901512,-0.48227734295486,-0.4786931706640567,undefined,1498791448126
903d185fccf839df,0.39631882290245546,-0.5199855030392593,1.6520443185270453,1.6326696305801944,-0.4042188105986703,-1.8510870791725675,1.9432444115991114,-0.41167499703047955,-0.07755005337869256,1.44991770840472,0.060209461494818796,0.05316827962333859,-0.8783422459893049,-0.23364896853447129,-0.8276007505627017,0.09613219459791277,-0.6279214081689165,-0.35180377683548947,-0.8157463006778011,0.735245342474365,-0.386843302719245,-0.4346948522174495,-0.500660286154206,-0.45618570170007966,undefined,1498791449606
903d185fccf839df,0.0955537301571788,-0.4747853481839124,1.7324339349164526,1.7721939057704865,-0.341609772467445,-1.839771635845008,1.8553326351438002,-0.9875534092882619,-0.0860121171026947,1.4533313470964615,0.14076184467800387,-0.05770565967579934,-0.7521376448306596,-0.3095673154835574,-0.8033901772598032,0.10219407289632346,-0.7153729904190801,-0.4069953812829405,-0.8279767269282702,0.8002575784081597,-0.4004728557402773,-0.48293834229410965,-0.5086100079081632,-0.46323210383484176,undefined,1498791451098
903d185fccf839df,-0.05552192638079661,-0.430759194096816,1.4714868776593542,1.5736769403075548,-0.4198427744475116,-1.8338483793329547,1.83687403310973,-1.1045236758542178,-0.2642049464192097,0.5873227422383784,0.01631811306833095,-0.07843120811829163,-0.7956564728163993,-0.3956699054717355,-0.814969152541971,0.2517190287073392,-0.6788283233385726,-0.44866614941781974,-0.856614674666196,0.7711545187224971,-0.4311153581790693,-0.46954765764011025,-0.4469847204944822,-0.4703654302630951,undefined,1498791452598
903d185fccf839df,-0.14422684647742423,-0.4043434899533612,1.7668862646019854,1.8741150071153694,-0.7022571535175668,-1.8200103687432605,1.857247139397987,-1.0028589251909072,-0.3515620663959096,0.5494472082581839,-0.16251394548495673,-0.05263182080041778,-0.673803754456328,-0.4095574224925593,-0.8918113339559833,0.2436365902604752,-0.6912578058895403,-0.4942506778028305,-0.8893037736200542,0.6102407653435059,-0.4959081687978692,-0.4357228968594342,-0.4860677472171029,-0.4333185684403448,undefined,1498791454079
903d185fccf839df,-0.15115680945227378,-0.3908420573125923,1.6801170483712022,1.6041998803705468,-0.8144946836663945,-1.800521622153872,1.9608273121252668,-0.3336832495894141,-0.39013049186303056,0.4258668325847697,-0.0671561114470097,0.06609094464130028,-0.5954698640819964,-0.46695908871439673,-0.9065481995405416,0.11229712802108387,-0.7002579421399895,-0.5257634043566863,-0.9227065488003647,0.3879950021634034,-0.5563153850712848,-0.4924289865456073,-0.5121078845223397,-0.47410023130696977,undefined,1498791455596
903d185fccf839df,-0.1234366124987782,-0.3843848631052647,1.900230651279696,1.8518072587725602,-0.7440273764226712,-1.8035822421581467,1.9807139052965106,-0.16595997586543465,-0.43557045214593815,0.11931804107273652,0.02273440983681951,0.047630861704953786,-0.22555982620320855,-0.43270326692623284,-0.9128639875075563,-0.015001129127236246,-0.707336686862901,-0.5026481608256089,-0.9200197734787743,0.18267212950563388,-0.5864612471024709,-0.4712649931406425,-0.5256725420269253,-0.4408792185820939,undefined,1498791457092
903d185fccf839df,0.10802784984112057,-0.3350755740350758,1.5384781399382106,1.6008504400704573,-0.4280199071080098,-1.7642017945582078,2.0402316764707265,0.39268490078523016,-0.34820065992487675,0.17581461139782034,0.08189930596598136,0.047660812587527336,-0.3038937165775401,-0.49103078402043965,-0.9202324350243029,0.049658208859346624,-0.7453299885234009,-0.5153963756952123,-0.916339450761896,0.09439284051007851,-0.6132104461282846,-0.4493066806748544,-0.47281055432016716,-0.48256110945488156,undefined,1498791458596
903d185fccf839df,0.18703067685023791,-0.39260318999093347,1.7987868051783575,1.8725548343700327,-0.45283929053491556,-1.7752982915158275,2.0195403618683248,0.23146227517819587,-0.28732111272478844,0.6059316660645164,0.04634949073080798,-0.12342420048655472,-0.3038937165775401,-0.516028330198852,-0.9149692918825526,-0.10996980207642952,-0.7515627631195185,-0.5569404878134635,-0.9380925355022176,-0.022142596673688897,-0.6560243803617783,-0.46549819910837825,-0.5519985330218015,-0.5083327564470914,undefined,1498791460098
903d185fccf839df,-0.2079834236899391,-0.5399440422033788,1.5180620481062816,1.5625124211466486,-0.7377839548654211,-1.814641470809885,1.9018907243739513,-0.7166564796323059,-0.2632579649086112,0.1437481761337444,-0.008422986926470116,-0.1097810719735429,0.14435021167557935,-0.523434955866963,-0.9465482464420936,-0.14836134936813167,-0.7653414106486035,-0.5865090022584564,-0.9356436520868726,-0.027085498415836386,-0.6755549480160784,-0.4651091523537103,-0.5412988858226057,-0.48970192021791725,undefined,1498791461591
903d185fccf839df,-0.3050044925866807,-0.5916014204940455,1.268599693730576,1.2800853850917293,-0.8509060555397082,-1.8036684255245807,1.925311774447857,-0.6368188635402922,-0.3993075770133892,0.6007608566805077,-0.01836349970493853,-0.07407316214539433,-0.5432472704991087,-0.47806913082275976,-0.9591798518250582,-0.13421708915230002,-0.7700058282970541,-0.545857835658261,-0.9377077107877764,-0.05204637868620147,-0.6611988828131408,-0.44160037621264925,-0.5414566621155016,-0.49452304498173605,undefined,1498791463092
903d185fccf839df,-0.4643961253977214,-0.5340738629941725,1.05295178529735,1.1150338923851186,-0.9896806825553962,-1.757516879795127,1.893796180408914,-0.8256895104169579,-0.29975135146724124,0.09367181088852017,0.018960394816203274,0.031725275996629256,-0.7347301136363636,-0.4938082589329004,-0.9918114585720974,-0.34031908582664233,-0.747930177200371,-0.5275872942175617,-0.9621195833492652,-0.1335657494442593,-0.6778709274355258,-0.4193179600334902,-0.5638598565748665,-0.4848714386049714,undefined,1498791464627
903d185fccf839df,-0.37846321464482047,-0.5123543080636812,1.1167528664500945,1.237257402000892,-1.0479902960796965,-1.745055449614446,1.8531393748650324,-1.0633113968674326,-0.33161047410372946,0.04468123150858551,0.0018732524139914706,0.018485696585667,-0.8565828319964349,-0.4623299250079718,-1.001285158928204,-0.45751431611492355,-0.8100262047502529,-0.5165046416083525,-0.9811579057202355,-0.2699343799875933,-0.6986939996395974,-0.42360318597325397,-0.6067114030300509,-0.4858658872750203,undefined,1498791466091
903d185fccf839df,-0.21907163359189433,-0.46128391554314346,1.6935151483448039,1.7285953042784208,-1.0378794522719392,-1.8226470663436987,1.8726393874508813,-1.014573212593816,-0.41035371176361857,-0.13441082174261412,0.01761425649669769,0.0057334457840651975,-0.9392686051693405,-0.4040024338153141,-1.0107588592843104,-0.3968960984252473,-0.7483006591947987,-0.4890323311828397,-0.9718941277219059,-0.20924910519139636,-0.673344222137225,-0.4168306103908862,-0.591630848758798,-0.4636288999108412,undefined,1498791467600
903d185fccf839df,-0.160859040561423,-0.5223335922597371,1.833239643137789,1.7830999673449832,-0.8875951342072306,-1.8806800614136,1.9266477119885848,-0.7179110168829348,-0.4548296890177212,-0.1404549138704669,0.11673988032324926,-0.022685875358338776,-0.9740836675579323,-0.45214573377197814,-1.0023377963912345,-0.3989167151031437,-0.7345849393083556,-0.48230674448807614,-0.9771697237468607,-0.26879489363795017,-0.677280669105466,-0.4276189537937748,-0.5950453374713178,-0.47354860566221196,undefined,1498791469106
903d185fccf839df,-0.3257947955761462,-0.49239578351355784,1.8204794269072402,1.7592648968242528,-0.8336260851812546,-1.8739322560142213,1.9432680929243062,-0.6021773033161062,-0.4163350141636243,-0.18702902843267702,0.0682162119954998,-0.008874605280496078,-0.9175091911764707,-0.4919566089912599,-0.9697061822819615,-0.2736389898385554,-0.7805850574164592,-0.5162703224985058,-0.9805141996578826,-0.24802239074437202,-0.688849266443245,-0.43546032422334635,-0.5951214083329425,-0.47927319572825217,undefined,1498791470598
903d185fccf839df,-0.4366758249279966,-0.5604895671376273,1.0925082014751022,1.0336806862419479,-0.8939414143052745,-1.768678595060791,2.008292676741484,-0.04906915328519225,-0.3321178295538765,0.15989336970439058,-0.10316851055405847,-0.01402747394291368,-0.8739903631907309,-0.4947341486575934,-0.9791798752758342,-0.1907940734861835,-0.8123847188881475,-0.5558385537864975,-0.9660308008067224,-0.1994094968011189,-0.6987479572126497,-0.4626974594231728,-0.5486744994801036,-0.47660608896110973,undefined,1498791472126
903d185fccf839df,-0.32579476107073646,-0.5546194171564134,1.2890157855625048,1.3651363379130539,-0.760186215106355,-1.7580223252146039,1.9797461344793235,-0.16692218672945563,-0.36373321159061334,0.09449057380036953,-0.09721751277224215,-0.0495745132059374,-0.7782489416221035,-0.4993632864624692,-0.9739167394963177,0.07592621153963888,-0.7524085716374244,-0.54841001129585,-0.9504139198230699,-0.08900264375898316,-0.6729947866086549,-0.43593515290972595,-0.4852575670772488,-0.440589139184036,undefined,1498791473595
903d185fccf839df,-0.4311318752513628,-0.5669467028889702,1.3426086937308102,1.4454036671029078,-0.6757097820625618,-1.7783705577279703,1.9804351377491896,-0.16393510330939137,-0.3419784797227193,-0.1985189093428164,-0.05962580510905108,-0.11142350971265882,-0.28213430258467026,-0.5243607937885578,-0.9465482538043274,0.06986434737358896,-0.7876096409590383,-0.5604806034620056,-0.926002046753865,-0.05839053519451413,-0.6624211728757677,-0.4306317873772526,-0.45695872219052003,-0.4598300121270399,undefined,1498791475097
903d185fccf839df,-0.0818560755306667,-0.505897143084346,1.7113794510675724,1.788162232262249,-0.5951624846953092,-1.8448144351822764,1.9378664671822816,-0.5116609210494523,-0.26641183701901483,0.47496632242438663,-0.016419850482638,-0.1348574134237361,-0.321301247771836,-0.43733243063265775,-0.9118114015801622,0.1890802791339312,-0.7994534179088495,-0.5261180513231634,-0.8959787310434777,0.21844271718691058,-0.5874424988580034,-0.43548023062172525,-0.4046280239646331,-0.42784770681110684,undefined,1498791476608
903d185fccf839df,0.09693967444457509,-0.6139080196506506,2.1260869868343106,2.192388334784731,-0.6064561880936445,-1.8729982290927318,1.895702785301253,-0.8399216154588266,-0.14774474638632026,0.991297469725797,0.021644224794450256,-0.12189717794638195,-0.7347301136363636,-0.45121994765348156,-0.9339166852325318,0.3527493538371709,-0.7521662903778211,-0.4676713142850763,-0.9003027604711173,0.2802674782654389,-0.5503641866241169,-0.4436579978285316,-0.41783738255649905,-0.43234409171219845,undefined,1498791478097
903d185fccf839df,0.3547384239559829,-0.5340738922221648,1.911076708007188,1.8978408485147538,-0.45863014786415107,-1.8401769196793498,1.7710762813128704,-1.5516863094831919,-0.04602517919241834,1.5210428054749934,-0.010770216046316988,-0.05246381923236751,-0.8609347147950089,-0.44381325723149767,-0.8812850476724827,0.5346041482298073,-0.7634772393964434,-0.48052718985605863,-0.8624150307545031,0.4340825461127976,-0.5140969622385778,-0.4368026183804808,-0.3972837521815639,-0.4262194545835726,undefined,1498791479640
903d185fccf839df,0.42681114996861175,-0.4102136253205789,1.548686567059599,1.6232340522798911,-0.40255253109132716,-1.8642239844856472,1.8129112309520514,-1.2562892041798952,-0.1802001128484042,1.1797810395643995,-0.1313249683630593,-0.019488835772226338,-0.9262129567736186,-0.43177742900463806,-0.8212849552334532,0.40528521787414773,-0.7560443534636511,-0.45114866248117425,-0.8638143920428647,0.5495092949686485,-0.48230392510125136,-0.4303553941081688,-0.35687314654555247,-0.448193941025818,undefined,1498791481094
903d185fccf839df,-0.0624519238610559,-0.47126322896719175,1.0057387311073698,1.1112022607971765,-0.4680107003343934,-1.8560041002090932,1.808011897671583,-1.3288710100317223,-0.2242295319575134,0.5117413187916146,-0.015546969734588016,-0.05391596559027126,-0.9523242535650625,-0.37159821016569256,-0.8528639392419294,0.4497385869348175,-0.6629408483186285,-0.41916729517736834,-0.8788645320367343,0.5352349366322825,-0.4793372356648727,-0.44541236031362186,-0.36258201366181353,-0.41807032678367223,undefined,1498791482612
903d185fccf839df,0.06090332869096553,-0.5874923155071958,1.05550382854346,1.1329442770185678,-0.471014127358535,-1.8915110232248546,1.8853281985906691,-0.9024753225691661,-0.17028524680381293,0.7554152193413156,0.18775895227411413,0.024319243067483422,-0.9088054255793226,-0.392892365805402,-0.9149692550713836,0.2840487542300737,-0.6167522660801871,-0.40614676277733053,-0.8629467859710086,0.45151358972357136,-0.48997320383300086,-0.3823539105034273,-0.3533720501433807,-0.3173139195142272,undefined,1498791484091
903d185fccf839df,0.13713412910365136,-0.6233002303926004,1.1033542582025941,1.140963895652809,-0.4487353058767704,-1.8343771151716803,1.9772320297978165,-0.2310133452700018,-0.16643158019890966,-0.030523318906101576,0.1792330624039971,0.03422366607794771,-0.843527183600713,-0.3669690205577186,-0.8591797272089441,0.33860523494494693,-0.6986605589141612,-0.4783106546579488,-0.8213787320082508,0.4858521224360618,-0.49876301407853607,-0.3815750548684009,-0.4416496647936025,-0.34355148782549305,undefined,1498791485583
903d185fccf839df,0.23554121129860872,-0.6391496937978626,1.8562077782158277,1.739814669780984,-0.5409260052257288,-1.842489854773563,1.890464218111072,-0.7741422573570914,-0.26583048290866274,0.3239454995329308,-0.0014773631363872424,0.0312038611104134,-0.9131573083778967,-0.2132806637671312,-0.882337663048812,0.5467277917677426,-0.6295743735466066,-0.39986448277670106,-0.8458325860956424,0.6033576601617043,-0.4368505352022246,-0.43186723446084846,-0.4297600890037609,-0.41308579818589847,undefined,1498791487077
903d185fccf839df,0.5182882346833098,-0.4876996781425829,2.071855940786003,2.096028400074797,-0.4182587858538668,-1.8380573128296505,1.8111781938739546,-1.216510812314627,-0.1376605128846471,1.182745982323372,-0.07852627876246795,-0.030893517637421698,-0.9131573083778967,-0.15495310782060076,-0.9107587346681963,0.3931616308656556,-0.617689145291253,-0.4020810135233314,-0.8613095320974078,0.7969315148244905,-0.40496088008365866,-0.5021445586644798,-0.4417946187117264,-0.4309297253458104,undefined,1498791488589
903d185fccf839df,0.2189090517200197,-0.4495435863527234,2.623097536082665,2.6533768731413967,-0.44485760157617477,-1.8243217886531917,1.7400103813092869,-1.639793863254159,-0.1452800562390011,1.5422539555368058,-0.08037883055928043,-0.027953156943441932,-0.852230949197861,-0.0410754708400006,-0.8749692008075978,0.39114098592303764,-0.5761866380846845,-0.31305882414503605,-0.8883382131807713,0.9808813445027739,-0.33984733717074905,-0.4980297300701207,-0.4007286847391853,-0.501332706713161,undefined,1498791490098
903d185fccf839df,-0.06660996375570316,-0.4747852897279277,2.1516074192954084,2.2005025632560873,-0.40982451100947004,-1.8597937729479486,1.8637059403710277,-0.9157898536026201,-0.23786021266923638,1.2159039161052578,-0.12123188308491101,-0.015065076877610063,-0.8217677696078431,-0.0327429813487456,-0.8781271205589234,0.5548101171557204,-0.48773917870363315,-0.24560664033397753,-0.9035282899916466,0.9082314795737717,-0.3333665838271183,-0.45585298879869546,-0.3689645774762323,-0.44479400943514863,undefined,1498791491598
903d185fccf839df,0.1246600094197096,-0.5023750384816215,1.6845827428464701,1.7384520834309183,-0.29338013211025715,-1.865102108652941,1.8992898492721666,-0.6657574952363353,-0.16259312137937998,1.477094104328549,-0.18817226454893923,-0.005064170006908763,-0.8609347147950089,-0.2253165049447654,-0.898127121922998,0.48610951754862325,-0.5410577728706911,-0.30503498382477046,-0.9020029851348921,0.7834886709267466,-0.39052924557565855,-0.4228420331331148,-0.37374846761780545,-0.3743547231738621,undefined,1498791493201
903d185fccf839df,0.3824586554148882,-0.5569674771488989,1.6144018077154005,1.734917100774424,-0.32650007518976526,-1.8940778451763618,1.983217479765184,-0.19339713945183382,-0.10808761620463213,1.6010116759951658,-0.10414425229582411,-0.017408170477759315,-0.7956564728163993,-0.26512730245939986,-0.8970744918222012,0.47600646242386285,-0.605975536825938,-0.324394792126111,-0.9026816764505724,0.7562796203136857,-0.40760132541614813,-0.35793105711076667,-0.36192258041729736,-0.3687353296466094,undefined,1498791494597
903d185fccf839df,0.3533523416469477,-0.564011686354348,1.356644931584414,1.4918798756914653,-0.30656639444524336,-1.8718592329236805,2.003338128063497,-0.06277246230109754,0.018965829707243875,1.5738987395306583,0.08560266324870829,-0.05075591176607223,-0.7564895276292335,-0.25494312417418075,-0.9107587641171315,0.5426865866766714,-0.5165566637786346,-0.30410404058374724,-0.9111688079705771,0.6212814472686798,-0.42481383020678315,-0.38765047811016484,-0.30581728755640175,-0.32822576299274814,undefined,1498791496097
903d185fccf839df,-0.10680441841477945,-0.6373886488034984,1.511043802111005,1.489334220075199,-0.5345694390585494,-1.9176334420738035,1.9320335636236754,-0.6510160250427501,-0.04733175383813837,0.7905303800546423,0.09064911623547882,0.033816021213491185,-0.9175091911764707,-0.3058639767479528,-0.9002324115735268,0.22545106842412926,-0.5505549139047349,-0.37728120549024124,-0.9252813759859657,0.34871356283540944,-0.5088791920389185,-0.3688999235769,-0.427776222333769,-0.29285260792856893,undefined,1498791497589
903d185fccf839df,-0.34242688614391575,-0.6456068441632017,1.3151743559036047,1.2271175468801816,-0.7506307911166378,-1.9267384379730024,1.9848637294007743,-0.3762735028174387,-0.25769052770304374,-0.2678212115879608,0.12440167748507058,0.11290687413266315,-0.3822276069518717,-0.31327064126838755,-0.893916630968746,-0.055413349626277836,-0.6008884153370528,-0.3913466733645088,-0.9136456799874165,0.20269010605489218,-0.5360068040919558,-0.4178944882724433,-0.5008359284773707,-0.307895356058898,undefined,1498791499091
903d185fccf839df,-0.4228156919458391,-0.6837628921110727,1.2437171450125308,1.2734391956671516,-0.8398797852776789,-1.9716205480936029,1.974168312428995,-0.4893644001896711,-0.27519807391219475,-0.5089277534129238,0.09824660906440819,0.10248305658336275,-0.28213430258467026,-0.29382817442264225,-0.8907587480285892,-0.02308359583882179,-0.6056042325056578,-0.388446187037193,-0.9055013924756368,0.05354076642386914,-0.5537747339719684,-0.4430636994596359,-0.5311452613772043,-0.30613194585909587,undefined,1498791500600
903d185fccf839df,-0.572505300680189,-0.763596990311566,1.0586935013956729,1.0830481857623904,-0.8936945544135275,-2.0073254562648426,1.9510523164143072,-0.7215690611300022,-0.26496559598903685,-0.7533671346979954,0.14269070580386686,0.1393071905207674,-0.8043602384135473,-0.3743757368812515,-0.8812850550347165,-0.23928867590264602,-0.6311110294657961,-0.43888808366015997,-0.9163114652189324,-0.2268803229791886,-0.6254766794318765,-0.4582484542066875,-0.6424374953962636,-0.39002000991469704,undefined,1498791502091
903d185fccf839df,-0.4394479205352476,-0.7647710056938126,1.288377901819452,1.3038174736536763,-1.0039366559320055,-1.963426284705482,1.9857499742155444,-0.47405715570360746,-0.25919783750533076,-0.37927989515737687,0.08479521044879793,-0.01674077491396522,-0.7738970588235294,-0.38548570128496723,-0.9149692918825526,-0.33021600243716037,-0.6823952740457419,-0.44802652153612654,-0.8990083519820803,-0.33782612364475323,-0.6433600669897531,-0.4548462558196024,-0.6377615021762113,-0.4069164388298326,undefined,1498791503591
903d185fccf839df,-0.30500445808127097,-0.6638043237189608,1.355368909961359,1.3669794390789414,-0.8016581268725913,-1.8984405099890411,1.9300401605517314,-0.7258470658489762,-0.20792881363346244,-0.019353864856915814,0.09136812599689266,-0.05829298100197776,-0.7260263480392157,-0.44288738045757925,-0.8823376556865782,-0.2049383478343759,-0.6960435209311524,-0.4567216524577359,-0.8911299423599381,-0.28568698712130547,-0.6376134809829604,-0.4245761056212736,-0.6185452347717678,-0.4071010962215939,undefined,1498791505099
903d185fccf839df,-0.08878624553797466,-0.6039287646825869,1.9180949540024645,1.8960252546012433,-0.6774686287061733,-1.832711709598888,2.0362711825030186,0.12145188047883874,-0.16707325151682667,0.5076972404937321,0.2173753452489607,-0.028533653877970817,-0.8087121212121212,-0.4002990562273858,-0.8791797506597202,-0.057433966304174223,-0.6629405939796388,-0.39282224811739797,-0.9005686394924111,-0.16171410339866973,-0.5936353968338852,-0.4251852534156669,-0.5082027914337711,-0.42014958032804145,undefined,1498791506635
903d185fccf839df,0.15099440010744783,-0.6737836079150168,2.172023511127337,2.1954685438958133,-0.46587127642467174,-1.837288665756038,2.028897196830607,0.10586077303562393,-0.15770262274314115,1.1167849375191699,0.2490027575773359,-0.1259379503533821,-0.8348234180035651,-0.41326073532661484,-0.9149692845203188,0.017328525733694422,-0.7437821206146681,-0.42280240331453484,-0.8891568403224934,-0.04908987535656491,-0.585439872047534,-0.4226580132410854,-0.5096953505580303,-0.45286538150872124,undefined,1498791508093
903d185fccf839df,0.22999719261115545,-0.6039287354545947,2.3257844979108757,2.4089536830059273,-0.4052576644411497,-1.8109449694944337,1.9551679567398697,-0.3524668619403115,-0.09428872121375478,1.6186560021682423,0.41556426208802844,0.0029387811671479453,-0.6215811608734403,-0.3956699054717355,-0.9097061192918672,0.11229712802108387,-0.7401831610502877,-0.4646314970345487,-0.9012053484992049,0.16297751589511011,-0.5806152053490132,-0.40407585239975785,-0.45526047626476257,-0.3867992778225259,undefined,1498791509608
903d185fccf839df,0.45314550615094024,-0.5240946372541013,1.1684316151153429,1.1926775070582947,-0.13693468374808604,-1.8308762674652266,1.8812914492264503,-0.7620130253932328,-0.06418340729861,1.495294333939924,0.0970952196529896,0.10053505847629877,-0.5519510360962567,-0.3669690205577186,-0.8770745125448279,-0.031166034285685804,-0.8058742481125682,-0.44543634426114703,-0.8896676080242067,0.3010861743817734,-0.5459270767201768,-0.43420647329892176,-0.45071967403818025,-0.4277208806111878,undefined,1498791511096
903d185fccf839df,0.40463490269174995,-0.596297569707009,1.1626896448800705,1.1984722039665452,-0.30827382992417424,-1.8679181588369789,1.897375343970458,-0.7313679641627321,-0.10323325932688275,1.4855849804648475,0.04990769141342046,0.1716674330622311,0.38370376559714797,-0.3595623689880584,-0.8718113325919087,-0.09784607374432967,-0.7630062382049404,-0.4690645595963861,-0.8908360752448661,0.2714749626442681,-0.5621612123633157,-0.4344405008524788,-0.5439782610107897,-0.3979107373612413,undefined,1498791512599
903d185fccf839df,0.18148658915196517,-0.6015806900761053,1.2628574693583543,1.3107619554779337,-0.6366755707699094,-1.9039910876862296,2.0149644807961016,-0.0993186042256152,-0.22217741769356303,0.8536984830905124,0.016070864755292468,0.20884842419721575,-0.05583639705882352,-0.3669690205577186,-0.8391797111204019,-0.06147517139524546,-0.7398710530074961,-0.471502743510142,-0.8769334120267914,0.13293514729470174,-0.5825755456462645,-0.4024096226231142,-0.5643572224037133,-0.35096103091852515,undefined,1498791514082
903d185fccf839df,-0.1359107666881297,-0.6737836079150168,1.3853557993085732,1.3648902967644707,-0.7748124712097326,-1.875625612253766,2.0119559788247985,-0.14220906119047072,-0.22696865288103277,0.8603597167780124,0.029501911455703612,0.12043885002013345,-0.8391753008021391,-0.40215073207057545,-0.8644428924373958,-0.21908259391784676,-0.6643234558735105,-0.45763359803042675,-0.8873096833521216,-0.01893971979200212,-0.5987831043318721,-0.43770068556137504,-0.5831245380638627,-0.38399763005178605,undefined,1498791515605
903d185fccf839df,-0.08878624553797466,-0.6503029787621689,1.6137636698353985,1.6219128644561454,-0.6196218676195808,-1.863012782325328,2.0502880464869913,0.18065476336322575,-0.27028264529527213,0.37114667160387943,-0.03406366049849655,-0.0034079219144690326,-0.8957497771836007,-0.3808565505293169,-0.8265480983752035,-0.2352473860174102,-0.6057557633102766,-0.42040222432694907,-0.8722315559495847,-0.017831033025713466,-0.5703273648941336,-0.40273613791837554,-0.5879384814678916,-0.36796067816077344,undefined,1498791517088
903d185fccf839df,0.36721264715615387,-0.6215391853982363,1.8083568402827945,1.788045684367158,-0.4169010683513579,-1.8481312736206787,1.929661471471771,-0.5258319374946018,-0.18960470691476905,0.7513343384496214,0.09639716168669739,0.08057291550736417,-0.9740836675579323,-0.4114091112865234,-0.7718111932513271,-0.20897953879308637,-0.6229841439529413,-0.43951504775289474,-0.8472739315952964,0.027255616546857465,-0.5602262653679175,-0.3940840278222333,-0.6081732604489346,-0.37608211912609396,undefined,1498791518632
903d185fccf839df,0.027638975028377734,-0.5716429105579184,1.8338772727438923,1.798259489333586,-0.6691372180900518,-1.8471320314481674,1.8625251549495248,-1.0503442837959471,-0.12052294009731371,0.44966119337286475,0.16190964750530634,-0.0003469021132610131,-0.678155637254902,-0.42992579201377207,-0.7781270180295107,0.033493416759783214,-0.6520380512878378,-0.44751988952449806,-0.8530602942575961,0.11462639664181581,-0.5515198086848131,-0.40920287544463146,-0.6025810124285768,-0.4514294184281738,undefined,1498791520102
903d185fccf839df,0.05535937901433172,-0.5622506121319915,1.713931494313682,1.8659844842062974,-0.6119693143463468,-1.8177090809396486,1.9400649870679767,-0.4569155799426904,-0.263592310584444,0.3560659786233086,0.10565853391374772,-0.027713688550818166,-0.669451871657754,-0.3345648487111952,-0.691811092085989,0.2678838773363457,-0.6230205244674981,-0.32312187461052816,-0.7788801033305515,0.2612811917857511,-0.44030924086985745,-0.35460820486942735,-0.5868956665535885,-0.4394480793627476,undefined,1498791521603
903d185fccf839df,0.471163817049384,-0.2270647266967635,1.8536562432436168,1.8877490487158646,-0.35706916988089943,-1.6441201989705165,1.9320730009860536,-0.007146638835084036,-0.30291813268574885,-0.07173476491460588,0.01772202954920566,-0.08930871592911607,-0.26907865418894833,-0.164211422282676,-0.4444423263487608,0.2699044940142421,-0.43851084808288454,-0.21021182082292697,-0.5648826409607196,0.42552101270633036,-0.281584752461329,-0.25744829408219577,-0.39992478156772243,-0.4614645759100151,undefined,1498791523087
903d185fccf839df,0.6652058168212283,-0.4331071079493399,1.3132601964005477,1.4492678524303857,0.014943911788134492,-1.382525670220963,1.8949664319512576,0.4428855265787093,-0.5835320418764349,0.06704902866128848,-0.13246197071386503,-0.20497578474322845,-0.40398702094474154,0.01077119375381717,-0.4444423999710987,0.25171905697206076,-0.3243351738145442,-0.08136808334524058,-0.4877428022748828,0.410861692870325,-0.20126981300912095,-0.26975620298270736,-0.30317841276825663,-0.4043659408633823,undefined,1498791524587
903d185fccf839df,0.11357190303398358,-0.37381871005104905,1.0114809554795914,1.0463083448899966,-0.5073534955375856,-1.184067501561741,1.7686068796239187,-0.1571910293521724,-0.3742241933586355,-0.13273319284920893,0.1342322747575489,-0.08329578504506127,-0.673803754456328,-0.04292717258473929,-0.44865287620088323,0.20524515602765922,-0.2607219475361506,-0.11343810841118694,-0.5403378297755577,0.2639143296995881,-0.2578174636933425,-0.22872481542459322,-0.22795984054682117,-0.2654166728916253,undefined,1498791526090
903d185fccf839df,-0.20521146610432706,-0.33155351327433985,0.9336433823362937,1.1147617831458818,-0.8540431929223854,-1.1460613037004868,1.6564114699640937,-0.8824633237273564,-0.3869287221693175,-0.08662303491906902,0.14312566195020326,-0.009220509398893878,-0.865286597593583,-0.09940305268808014,-0.49602136325694823,-0.11805218399385047,-0.3377609559239813,-0.22356166672051234,-0.5973618400904345,0.10166090774347439,-0.355050604593203,-0.21420338263203492,-0.2517158120712979,-0.23013454549350085,undefined,1498791527582
903d185fccf839df,-0.4269737663458961,-0.34857694821986007,0.7913670984341482,0.7721412946742574,-1.0535034273957176,-1.0922465630436036,1.6876430533472566,-0.6459419696862619,-0.2833367010121734,-0.3523421243326674,0.19914817290729017,0.009861102221865021,-0.8739903631907309,-0.33549068663278997,-0.805495466910332,-0.36254572795989487,-0.6475123812452389,-0.3263516761351479,-0.8161591136695324,-0.1497803066565567,-0.5285249891598507,-0.31897507570843076,-0.38027621190747946,-0.2925244639166732,undefined,1498791529080
903d185fccf839df,-0.47687031409248265,-0.3597301162721971,0.9412997662115725,1.021869592776896,-1.152554695145542,-1.1580359252553225,1.7268166539277292,-0.6141429005596863,-0.2866980350761102,-0.5364218758237792,0.18309039492207455,0.009977199939111494,-0.9871393159536542,-0.43362913074937676,-0.9170745447219124,-0.44337008416381346,-0.8436547817377739,-0.5329512966375195,-0.9056483246904777,-0.40862817744918056,-0.6927424138457242,-0.45709526312613513,-0.6167702905795901,-0.4621937795813904,undefined,1498791530648
903d185fccf839df,-0.4255877530476804,-0.36677453007359245,0.7722265199513754,0.8983438876283647,-1.0635011287341032,-1.1740610898709491,1.7683596943349242,-0.3747359563322392,-0.35673573288828375,-0.6572989510624324,0.18085583719685222,0.01344494918769593,-0.9479723707664884,-0.3947440675501407,-0.9960219863375185,-0.4292258239479818,-0.8322726935063762,-0.5068405709242089,-0.9522890650156782,-0.4172205108024847,-0.7008044720615995,-0.4441596297176539,-0.6027653911783573,-0.5034656099997906,undefined,1498791532102
903d185fccf839df,-0.1899653198239538,-0.4530657347974364,1.1161149827070418,1.176406090692299,-0.7713359074152004,-1.302227480303047,1.6845977443408011,-1.1027146940940438,-0.2999821313492412,0.01421541559697432,0.10171587628704969,0.022366363151336638,-0.8783422459893049,-0.35400739326158775,-0.8539165693427262,-0.255453496266931,-0.7361768641793419,-0.4807678419151195,-0.9098324162917967,-0.16884358758475698,-0.6332655911283993,-0.4298877417378212,-0.5172641509963715,-0.4568093917973834,undefined,1498791533652
903d185fccf839df,0.15376621967142093,-0.29691956992919327,1.7413660862778368,1.7131095061703054,-0.29050013613927755,-1.4756113886932314,1.707647990031289,-1.112886317032546,-0.4384587701232347,1.2123889293399495,-0.17686561539806958,0.04543088884614763,-0.5737104500891266,-0.3753015229997481,-0.8318112856903566,-0.07764004828897349,-0.6907859371345368,-0.42946466545586387,-0.8756110150769524,0.07814747579858872,-0.5641418848687325,-0.40352780372226577,-0.3889860714765493,-0.4399514464612934,undefined,1498791535094
903d185fccf839df,0.3561245062650181,-0.16836322688462477,2.1732997868873416,2.279091306048712,-0.21956996547298543,-1.6924961679337602,1.6884767091635269,-1.6033871841992309,-0.2100941139264303,2.033742830424041,-0.29312048220809006,0.029240726446587675,-0.7782489416221035,-0.3577106801940942,-0.831811270965889,0.28404881075951677,-0.629483598881143,-0.3279729112945101,-0.8370865738944858,0.3425849803900288,-0.4542622142263965,-0.3600043081523574,-0.4003051367405528,-0.3367823614481778,undefined,1498791536613
903d185fccf839df,0.14406433361636908,-0.39671228036378703,1.988276397407433,1.8990347543262018,-0.3535000256806423,-1.8465776698219811,1.872018762737396,-0.8113549128933594,-0.21675101296407945,2.1539008694708626,-0.31261871045492406,0.016018672495073518,-0.7129706996434938,-0.2243906411216215,-0.7423374694444445,0.34668764512708944,-0.5726561982747895,-0.24967873044908637,-0.7915303379522365,0.5345881976694488,-0.36983826189736374,-0.31340260111973306,-0.4250151473345723,-0.3602633293878998,undefined,1498791538106
903d185fccf839df,0.3505803150505162,-0.4207799099007601,1.7164832834228425,1.5991291830397303,-0.2803481523280918,-1.831884827372003,1.8754164693361877,-0.7441668622283757,-0.07413775508308935,1.6404681911332444,-0.2941247319416485,-0.07134039542719718,-0.8000083556149733,-0.2188356394936018,-0.7854954213728546,0.368914287260342,-0.49969699173010307,-0.2155378310953395,-0.7941611393006466,0.8715523808917778,-0.29184734182682026,-0.3319858421809463,-0.5263626597299298,-0.3042585457379205,undefined,1498791539607
903d185fccf839df,0.4337413199759197,-0.4565878247861647,1.7394519267747799,1.9133188618546837,-0.16861463193491014,-1.8435310243256686,1.9215669269829727,-0.43039903167242444,0.005297128734003393,1.720359472225618,-0.2838743711537758,-0.031298836662587586,-0.9392686051693405,-0.1651372861058199,-0.7886533411241802,0.4578210253816815,-0.47493877859412864,-0.171960844864999,-0.794231108070056,1.0098920187660598,-0.25032610123479077,-0.28702999441722143,-0.4316624677251303,-0.23933256498459018,undefined,1498791541104
903d185fccf839df,0.5806590056300673,-0.5364219522146504,1.900230651279696,2.0250718682655084,-0.07665021538813829,-1.8780084234014627,1.9334352457272337,-0.40500400185825786,0.09276839976412342,2.0368140431356996,-0.1385071308854926,-0.028083673024871435,-0.8826941287878788,-0.17161807385233618,-0.7181269182282474,0.4477180267863642,-0.497013866233248,-0.22610751266998372,-0.7905088039679676,0.9541958417349269,-0.27954516906546445,-0.3171664817307425,-0.3644118788840261,-0.25625633372919926,undefined,1498791542608
903d185fccf839df,0.2632614082521043,-0.5393570272052574,1.9436153864635624,2.042251225601423,-0.3212029462222583,-1.8728398406025755,1.9354575640670162,-0.4906642061273271,-0.04398764680847234,1.9482889458178734,-0.12993855674826826,0.06127798155895982,-0.8000083556149733,-0.20865147415915722,-0.7886533190374788,0.5790574890257555,-0.4792163161206393,-0.280260511824086,-0.813787193889248,0.8873665890634601,-0.32780917865451314,-0.35862096440682495,-0.2906924124469535,-0.21883334003571203,undefined,1498791544096
903d185fccf839df,0.26464742155032006,-0.607450825443323,1.9314930539760662,1.8260231498195503,-0.3608440156507038,-1.856542153755808,1.938192559669208,-0.4826474598202346,-0.1282332893730621,1.7285621631782484,-0.06762679078082046,-0.01983352994515921,-0.43445020053475936,-0.23920395721171644,-0.847600766651244,0.5467277352382994,-0.5337322465324017,-0.3064155671188551,-0.8130945098265541,0.859002652053295,-0.34763899550325916,-0.3883338065575835,-0.3165312648901861,-0.22004377497617694,undefined,1498791545604
903d185fccf839df,0.3394922431701999,-0.5839702255184674,1.532098031822936,1.5700498368539573,-0.47487125491966126,-1.8757094630535034,1.947620415037836,-0.47205258530854727,-0.1343359381623059,1.2895310179499826,-0.09757646807545459,0.0859927054481643,-0.40398702094474154,-0.25123982429089975,-0.8360218208180115,0.6134078029616649,-0.616252045116684,-0.3404741390961988,-0.8377092903316609,0.793898026806516,-0.3821432258630723,-0.3873748139519272,-0.26404833489643337,-0.26952268557117903,undefined,1498791547090
903d185fccf839df,0.12743203601614111,-0.5698818655635541,1.8549320107297222,1.7365564723466813,-0.4811455327178055,-1.8713607746292986,1.9025034675334591,-0.74691768659868,-0.07342629498469372,1.266502681600938,-0.054371221238216354,-0.02585561208500344,-0.7434338792335116,-0.2716081420090144,-0.8791797801086554,0.6073460377221404,-0.6158619140823774,-0.3828985292284443,-0.8497508015568034,0.6162923560059115,-0.4322017352714128,-0.4392806988584077,-0.3984750682553325,-0.35495044088261785,undefined,1498791548641
903d185fccf839df,0.32008795347895014,-0.5910144054959241,1.6405603780565006,1.5582996628169439,-0.3094258240434541,-1.8707901106480826,1.8955081798449427,-0.7486946295479078,-0.05433586750921174,1.7392735722749875,0.06786553046410781,0.08519257555416467,-0.9305648395721926,-0.3651174094684017,-0.9044429540634155,0.5729956389920664,-0.6621139616018006,-0.3998391528567745,-0.847350895823712,0.5876820467091529,-0.4512735654592884,-0.42890907657521254,-0.4989537284826806,-0.3360448294606936,undefined,1498791550096
903d185fccf839df,0.41572307808829545,-0.5546194171564134,1.7209497403089586,1.6206790826393285,-0.009227474391781907,-1.8168402727040274,1.9852450545693292,0.03884926574873037,-0.14793900106936317,2.4015765603530324,0.020835081133349177,0.08501215119371601,-0.499728442513369,-0.3753015877536208,-0.8918113560426847,0.5750162839346843,-0.6492667398728708,-0.37430472488522665,-0.8595673267763531,0.7940520116783103,-0.4039314175496303,-0.42135234879597944,-0.4739795946759193,-0.3244347768922087,undefined,1498791551596
903d185fccf839df,0.44621530163822254,-0.542879146421978,1.379613320799402,1.2716903059723237,0.06406841105451995,-1.7967762061674715,2.0648071903622585,0.6041388333339107,-0.19094892594208837,2.467733034207902,-0.13723518544970595,0.040268392459652844,-0.5998217468805704,-0.4021507579721245,-0.9360219527963592,0.4780271356312023,-0.6346778758754931,-0.4270201484544773,-0.8746244630856174,0.7474563142769931,-0.44066405735202674,-0.40481338637528763,-0.4353102243741441,-0.32662027071218797,undefined,1498791553097
903d185fccf839df,0.3838447032185137,-0.4436734948274942,1.4753149425285188,1.550801861282317,-0.011984034732407356,-1.821177316240936,1.9460188563483012,-0.20395078942505507,-0.25018918560877845,2.6923573945026438,-0.269845099503362,-0.011216364560210627,-0.7216744652406417,-0.44566497192701093,-0.9012850711232588,0.3648730821692708,-0.6920088325988617,-0.4329034518960979,-0.8545646061553743,0.6717113585150217,-0.4568497852455312,-0.39536931841880435,-0.4662599277929781,-0.3188384366991359,undefined,1498791554590
903d185fccf839df,0.2604895886881312,-0.3262704075192397,1.6246099806998398,1.80188326730735,-0.2181402563753651,-1.7892201541356785,1.9236655059568748,-0.3864042652260302,-0.2675516473947253,2.0111039246632796,-0.17631272556127417,-0.111124595796345,-0.8304715352049912,-0.45492324753676255,-0.9665482993418049,0.23959535690468242,-0.7031521183343149,-0.4471019108955075,-0.8746594469870742,0.6028957060040396,-0.4845883916935177,-0.3991492726580329,-0.48442483439586137,-0.2662719565388255,undefined,1498791556101
903d185fccf839df,0.16901264199507207,-0.32450927484089853,1.7892167700739205,1.8758815594173623,-0.23976079855605084,-1.7774015941820822,1.8764184239320754,-0.6680561421381545,-0.4319668967961744,0.7605342107033539,-0.17443309592750164,-0.07113826138189022,-0.7521376448306596,-0.4410357693682624,-0.9876009308066763,0.3244608899349507,-0.7462198831429463,-0.4841369665839355,-0.882747759761041,0.500680822937233,-0.5161552725566715,-0.414953810688513,-0.5058854046209609,-0.34600711325886574,undefined,1498791557588
903d185fccf839df,-0.1788772479436375,-0.3427067982386462,1.5506004724257068,1.5620164336873013,-0.5809065062513801,-1.7356569694931578,1.8159723263738228,-1.102428446051523,-0.3903179188723552,0.1275388203598927,-0.09082570145872873,-0.06963691754332647,-0.7303782308377896,-0.4521457208212036,-0.9497061661934192,0.2436365054663106,-0.8253030232914654,-0.5131861775213027,-0.8699296022839049,0.37684652584288,-0.5521249136183224,-0.43014573976504183,-0.5191915721050039,-0.4094226435564533,undefined,1498791559102
903d185fccf839df,-0.2509499049454469,-0.4536527790235501,1.666080556380649,1.618613430116088,-0.7176445605242197,-1.7506479533366797,1.7837124880032107,-1.4119938392287679,-0.4576817840604168,0.32026980959326923,0.016005423325855302,-0.06463055462525008,-0.6650999888591801,-0.43085156518149414,-0.9054955841642123,0.27596634404793124,-0.7690928875812035,-0.4875947522372317,-0.854830485060444,0.2967900099600583,-0.5444855979899254,-0.4067614995381542,-0.5656581965967562,-0.4438911026559151,undefined,1498791560588
903d185fccf839df,-0.25787997143652563,-0.49826591888077554,1.2552013396200248,1.3676606656908123,-0.757583919037789,-1.7777206999671606,1.882106684110094,-0.8639769759316712,-0.36390954145498206,0.64119608137267,0.018479020015417538,-0.046888258915883406,-0.847879066399287,-0.40585404490463095,-0.8570744743695843,0.27798690419638455,-0.7124435077646865,-0.49468764849704755,-0.866746053757094,0.3474508967976472,-0.5429924186541549,-0.36058501036636703,-0.4949241834849872,-0.4124185915075807,undefined,1498791562114
903d185fccf839df,-0.26065199803295713,-0.6638043529469532,1.4657449074240818,1.532796865091221,-0.6918788872802925,-1.8341768001776297,1.9403858236143021,-0.5368440802267118,-0.3926846801583811,0.7441606397705567,-0.0066709387794300825,0.04430866466247066,-0.9044535427807487,-0.3910407547160851,-0.8328639157911534,0.2779869889905492,-0.6403865888671814,-0.47268700383939755,-0.8353583609656551,0.2648690316479316,-0.5453539187894823,-0.350541195753478,-0.49714396911505254,-0.37968783366358766,undefined,1498791563638
903d185fccf839df,-0.4879583514673892,-0.47713334972041327,1.1180286339362,1.178884432711396,-0.659437805522708,-1.8390751902296816,2.0152616737280162,-0.031323045586029524,-0.441110158574551,0.6722965147664917,-0.1337154782122778,0.09065728977822334,-0.9740836675579323,-0.366969007606944,-0.83602179873131,0.11229707149164078,-0.5762728062828505,-0.4454933435059666,-0.8612745494682996,0.21884307652619228,-0.5482404579995737,-0.3444318886810168,-0.4546816037790284,-0.33131588354754543,undefined,1498791565103
903d185fccf839df,-0.43528991514601006,-0.41843183529427835,1.1173907501931473,1.2843754653571944,-0.7504559382540223,-1.84067304853337,1.9882325317307055,-0.23182733465063798,-0.4670899103620125,0.545566917276712,-0.08237887052796539,-0.0781904943924544,-0.6999150512477719,-0.3373423754267541,-0.8444428689866197,0.025410865254033056,-0.5531268385751088,-0.4390147427108812,-0.8662912637599681,0.14254378108994287,-0.562762539432867,-0.3279602118308312,-0.4396557147845552,-0.27820829329959634,undefined,1498791566597
903d185fccf839df,-0.2883723675135014,-0.5499232971714423,1.5703789346515322,1.6000176205371481,-0.8005781407086843,-1.8824363067518706,2.0464643195835026,0.08161723775998873,-0.3665735116884615,0.7979157066251148,-0.08816220519280062,-0.00021465983121935077,-0.2342635918003565,-0.30586401560027643,-0.7791796407680737,0.021369744957126426,-0.5607566959629614,-0.42957232316190647,-0.8444262303270045,0.13253479017670117,-0.5608520839089157,-0.31741904043983343,-0.38555611960963315,-0.22196464809040953,undefined,1498791568113
903d185fccf839df,-0.11650658051310918,-0.583383210520346,1.5735691157776441,1.5752622303600647,-0.7286708338950585,-1.8951888913033843,2.012484589747667,-0.15870056788364328,-0.24803246286790667,0.640632717254429,-0.060202288069892744,-0.06187162128364254,-0.06889204545454544,-0.2614240155268934,-0.8412849639597617,-0.08976363529746566,-0.5732262192324836,-0.44370745460700856,-0.877961945134186,0.005805583467185043,-0.5922588061892778,-0.3486237307341651,-0.47252761481648714,-0.265896503544809,undefined,1498791569588
903d185fccf839df,-0.14006877207736723,-0.6391496937978626,1.0433812419190143,0.9742137039205027,-0.7999198533575086,-1.892170198415042,2.0125319220199245,-0.17039170180697003,-0.2297818013234655,0.190284684746939,-0.061547212008054145,-0.05801555670583603,-0.4823209113190731,-0.25494317597727895,-0.8633902549743652,-0.057433966304174223,-0.6211427106120311,-0.4491031212304433,-0.8834404474695035,-0.03081192180996845,-0.602263215470716,-0.32830849874443596,-0.48581782040631327,-0.2940963659693171,undefined,1498791571104
903d185fccf839df,-0.2856003064116602,-0.6767186829056236,0.88579269854021,0.8526231544466268,-0.8521506225587581,-1.8658987090498527,1.9343872382473994,-0.6621811254382761,-0.3808191543248017,-0.32605972258104143,0.02820126422790215,0.08016284099242343,-0.5998217468805704,-0.2919765374317763,-0.8412849713219955,-0.14027889678890687,-0.6623268438353904,-0.4862964996803063,-0.8563767824173952,-0.09711762516882934,-0.6216280455637642,-0.34880603629415663,-0.5444076180397653,-0.3266197371515734,undefined,1498791572597
903d185fccf839df,-0.4061835323672501,-0.716048717007749,0.8947248499015943,0.9315617989972044,-1.0450897270342023,-1.867743465542732,1.901588292785545,-0.9244395022884991,-0.44104148556705763,-0.5833804541949232,0.07067634471543492,-0.11302241874377263,-0.8043602384135473,-0.30030905282458037,-0.9002324189357607,-0.19079404522146196,-0.6511876282578295,-0.5396198861138832,-0.8902413461980072,-0.20911051980164594,-0.6775823144064105,-0.3343447335279805,-0.5357044318214129,-0.34157395875329627,undefined,1498791574112
903d185fccf839df,-0.4560800456084269,-0.629757424599928,1.1473771312664625,1.1994926406917303,-1.0122989274102245,-1.8218923915106515,1.8803762781448625,-1.001827052950589,-0.4718835967937364,-0.5862140747696661,0.05192665314863414,0.05914898374487896,-0.8000083556149733,-0.2660531533317692,-0.9402324805617803,-0.267577153937227,-0.6331975210141723,-0.5330146252659401,-0.914506285749437,-0.2833156273841652,-0.6855421112205982,-0.37421008672366524,-0.6132092065684257,-0.38857759458038754,undefined,1498791575585
903d185fccf839df,-0.4422199471316791,-0.6426717837865908,0.9055706524921368,0.9895457987613521,-1.0071972255681572,-1.8150933431230138,1.8706407415323585,-1.064446205575812,-0.3896749401850641,-0.45526884382091726,-0.030733670739615557,0.014763719420337513,-0.8304715352049912,-0.3021606768646718,-0.9360219012607227,-0.37062819467148045,-0.645445619197853,-0.5098550503318411,-0.8915427522013829,-0.3516077343519885,-0.6857520524111956,-0.3707658164757814,-0.5958946325714437,-0.4272393749690576,undefined,1498791577098
903d185fccf839df,-0.4089555589636816,-0.5786870613073827,1.0216891284640306,0.9332636172459853,-0.8922134158604622,-1.8572246227951068,1.9585867138128707,-0.4992250022323905,-0.3978130871757199,-0.6370377443365641,-0.05698896844843181,-0.013303240738613118,-0.8174158868092692,-0.3428973641039993,-0.9349693079710949,-0.3544633319101132,-0.7181745931856066,-0.5352374898310411,-0.9122743026515827,-0.35467202261297065,-0.7016836440608714,-0.3863585779857005,-0.6263325402090333,-0.4355216644362779,undefined,1498791578641
903d185fccf839df,-0.37153326892267574,-0.5810351212998682,0.8634624472052241,0.8775839019522917,-0.952847600200312,-1.814049844565905,1.932648936586647,-0.609949253388282,-0.3496543480211179,-0.6654939268761361,-0.037010538392606054,0.07443297811658814,-0.9305648395721926,-0.3003090269230313,-0.9297061427426432,-0.3180923447668644,-0.6516040295342449,-0.454175811458044,-0.912945996422339,-0.33513139711865797,-0.6568585248123989,-0.3917002613610797,-0.6334329213548671,-0.42977737778382397,undefined,1498791580091
903d185fccf839df,-0.5267667928282498,-0.5827961955222247,0.9910643553737638,0.8536213937356721,-0.9616418677353085,-1.814119722103956,1.9814160560124126,-0.3121422246163741,-0.3453524438244874,-0.8521247230771937,0.0069765829614844375,-0.017607828167986086,-0.9958430815508021,-0.30308652773704114,-0.945495608979063,-0.17867038755116593,-0.6910142032582719,-0.42304305939875186,-0.9209573453960845,-0.23644276046880452,-0.6265922809811687,-0.4100164457208647,-0.6240432412552257,-0.42896754482998756,undefined,1498791581597
903d185fccf839df,-0.5184507820497747,-0.7266150162019263,1.0631599582817892,0.9992157402599126,-1.104643914111254,-1.7527792073066417,1.9453824554328387,-0.52419345159527,-0.2727666804401564,-0.8014926517786379,0.07885885357746153,-0.05517671205224648,-0.8000083556149733,-0.33826817449602525,-0.9191797754745709,-0.2473710860847885,-0.7197845953988018,-0.445797327443471,-0.9164374054535269,-0.2633900407267707,-0.6429017042527395,-0.4184231877438554,-0.648154636819531,-0.42427979362397517,undefined,1498791583096
903d185fccf839df,-0.5628032420980885,-0.7318980927290342,1.2315945583880852,1.2406455966983116,-1.0711948299588359,-1.7425095895949934,1.965539921503403,-0.37144680046887696,-0.33108878313240037,-0.20421935952654954,-0.027542955305267413,-0.05078802534135927,-0.5693585672905526,-0.34660071579037843,-0.9339166410591291,-0.2130207862812399,-0.7580927214884127,-0.4557970452000197,-0.9024157964505488,-0.19851638879610842,-0.6310802188745885,-0.41788510128735634,-0.6656086895166965,-0.42945895225657565,undefined,1498791584592
903d185fccf839df,-0.5045906145622074,-0.6596951895041188,1.3406947883647025,1.4276055041879616,-0.9050191075570648,-1.7331320711855893,1.9380163727886008,-0.4734962471093626,-0.4091082185620911,0.06912005175121881,0.002798845184216729,-0.05197488085242287,-0.8565828319964349,-0.3336390237403749,-0.9623377568519162,-0.2938450859557154,-0.6960562676094767,-0.45836188580034026,-0.9044938487365034,-0.23879872279709646,-0.639323093365042,-0.40767389851130414,-0.6810751944197558,-0.42666341297237864,undefined,1498791586092
903d185fccf839df,-0.3479710083475982,-0.536421922986658,1.4261882371093801,1.5287490115250224,-0.7607313528142906,-1.769701127527516,1.9503001957662702,-0.39402102993923943,-0.3801388087553366,0.394373874064095,-0.09726539193246592,0.04903526593309125,-0.8348234180035651,-0.36974657317482656,-0.9539166865966066,-0.23726808748947117,-0.7245924846891799,-0.49787312093297215,-0.9174659363343113,-0.18378007754060996,-0.6574420954976143,-0.4052111850280406,-0.6480289674826996,-0.42152472618922104,undefined,1498791587600
903d185fccf839df,0.03456907602486623,-0.49709188888453276,1.3904596316638433,1.514052750269593,-0.6611760914250177,-1.792506709596139,1.9340690325520593,-0.5019037857941551,-0.3470436668857356,1.1525715351286219,-0.1359924371324775,0.11307845227108308,-0.7260263480392157,-0.44196156843753354,-0.9349692932466273,-0.24332988099371725,-0.7611709110186841,-0.5280559316842687,-0.8975740025592556,-0.10834309129336821,-0.6491470724645012,-0.42650037301250254,-0.6785159558620415,-0.4091341913690626,undefined,1498791589095
903d185fccf839df,-0.01948544260554811,-0.5364219522146504,1.3630250396996884,1.390062104091217,-0.6340629936075041,-1.8257635879179581,1.8793769643514169,-0.8984166724624396,-0.2972196518731111,1.4392218845520042,-0.1974840489207169,0.1027504678624749,-0.5824142156862745,-0.43918408057429825,-0.900232404211293,-0.16250555305452022,-0.7858987544268192,-0.5109189849969862,-0.9129739833416415,-0.04888969176939186,-0.6359542364072078,-0.40998915300762884,-0.645863937905957,-0.43409665196779473,undefined,1498791590598
903d185fccf839df,-0.12482259129158423,-0.4741982747298063,1.2609433098552971,1.351845643343133,-0.6896057547064766,-1.8114597298525499,1.9153658598433918,-0.6600807704792204,-0.337590377576164,0.8911996653386446,-0.2003625574726839,-0.023561696733676123,-0.7608414104278075,-0.4577007742523215,-0.9360219233474241,-0.15038196604602805,-0.8226276206580303,-0.5676938261721383,-0.9519742080368628,-0.01812359844082685,-0.6648447500066225,-0.4450706172432271,-0.6544552275205844,-0.4318795649686529,undefined,1498791592100
903d185fccf839df,-0.14838488637207148,-0.47185018550932845,1.2373370368972565,1.2861100252860436,-0.7215736969809635,-1.8034331715503946,1.888618102102843,-0.8177935945804927,-0.3505536733240787,0.2513567443183902,-0.16199457283387328,-0.11669228346902434,-0.15157781862745098,-0.5113991017385543,-0.9086534744666027,-0.10390792377801883,-0.8767784792803542,-0.5940198725407567,-0.9495812992308723,0.055573361855507444,-0.6655527184681965,-0.4240900684581784,-0.616308025674482,-0.42375649944387855,undefined,1498791593644
903d185fccf839df,-0.4117275510547034,-0.4835905146997485,1.348350918103032,1.3082460997118102,-0.8459483472905733,-1.7894437614231478,1.9327672761712285,-0.5597810010040971,-0.37461641587438194,-0.06806865066661685,-0.043023835552622104,-0.12650479534414868,-0.13417028743315507,-0.4669591146159458,-0.8770744978203603,-0.10592854045591521,-0.8673160468139773,-0.5621081684146821,-0.9390650922201929,-0.018585551292647592,-0.656049432065084,-0.4304415727271901,-0.6655594552434422,-0.4197304216104496,undefined,1498791595108
903d185fccf839df,-0.2176855512828591,-0.5264427264745791,1.3406945342277532,1.260467343028007,-0.8269609498133665,-1.8021427739306601,2.007130297325422,-0.11012905591701795,-0.34072813444555206,-0.01092146641325843,0.04372766731414976,-0.010526720467928791,-0.7216744652406417,-0.4808466575383187,-0.8981271660964008,-0.057433952171813456,-0.8583454734683348,-0.5745270712318078,-0.9303120818195867,-0.1576643102538745,-0.6836269058734427,-0.4290737858600484,-0.6643516337627626,-0.4404511399640912,undefined,1498791596608
903d185fccf839df,-0.36737516001720905,-0.5434661906480918,1.1780019043567294,1.1403449712352904,-0.9086293847549257,-1.7946286490990628,2.0299885678868246,0.0009698597494043406,-0.29572535051876636,0.034646283994334434,0.008688501276948297,0.03670312359855995,-0.6389886920677362,-0.46325582768343937,-0.9044429540634155,-0.16654680054267376,-0.8470669279456817,-0.5854134024209177,-0.9171090996952969,-0.19520572169238828,-0.6918439351135842,-0.43237763356771436,-0.6661170954281488,-0.4400482266910871,undefined,1498791598081
903d185fccf839df,-0.29946043939381767,-0.6626303229507104,1.2513732747508601,1.2290162472866637,-0.9746738424061425,-1.7127698645371014,1.8990137104807876,-0.733761683781598,-0.35921219356037304,-0.01103407393043306,-0.02985562439683371,0.15029172991917036,-0.6433405748663101,-0.4771432799503904,-0.8844429085259381,-0.3160718128831326,-0.7911531905289998,-0.5817086312665833,-0.9171790680793315,-0.27125864293039653,-0.7088696049046063,-0.4176965335682396,-0.6242809240120414,-0.4214813797851494,undefined,1498791599597
903d185fccf839df,-0.48518635937636745,-0.6062768246750725,1.101440606973436,1.1619094177767821,-1.0268223290998837,-1.6510333794505754,1.8769128254119583,-0.7809191846659219,-0.4397070754014067,0.059757277494274424,-0.05750687463408862,0.04670537531474588,-0.7564895276292335,-0.5067699509829039,-0.9160218925344142,-0.39285490746653684,-0.7816813673147008,-0.5903657664252047,-0.9386662743183095,-0.39925052161455316,-0.7381292217415657,-0.44116210057960725,-0.6453402054400469,-0.46713595029826055,undefined,1498791601090
903d185fccf839df,-0.5281528751372849,-0.5851442847427026,1.1639656665031255,1.2087824629843291,-1.0581217069424005,-1.6502833638303196,1.818959784156046,-1.150882386534889,-0.4913422510134008,-0.12104814366336242,-0.000769432373195912,-0.007451763484394293,-0.7695451760249554,-0.5937983529911277,-0.939179798925347,-0.4534731251562131,-0.8595064133002703,-0.6482995355514063,-0.9459569514108508,-0.4130167323147142,-0.7737317912437949,-0.4362366663812487,-0.6149215860397214,-0.4950317085572316,undefined,1498791602589
903d185fccf839df,-0.2911443941099329,-0.49004773813506847,1.0548656906634577,1.155989885752034,-0.81822839177338,-1.694380520874962,1.7848196494029498,-1.3478200670478269,-0.5376654548596251,0.07842541908865083,-0.014827480181925956,0.0744706411594512,-0.7173225824420678,-0.5789850369010328,-1.0486536459842688,-0.23524742841449248,-0.8351461071072811,-0.6191489952783878,-0.9926816546777493,-0.1909095528415732,-0.7331310490611491,-0.42084493303503295,-0.5869604482184542,-0.5127857713098897,undefined,1498791604102
903d185fccf839df,-0.07215408595938563,-0.3239223182987618,1.4293781640985428,1.488606509530122,-0.6119898831817572,-1.7253966684824211,1.8315933736131849,-0.9852515777399585,-0.6573197219718208,0.34000745612825495,-0.017990654624789264,0.04671651634464,-0.42574643493761144,-0.5965758538051376,-1.092864228013476,-0.08370184179321957,-0.8657551206581747,-0.6242153485426917,-1.010649464476872,-0.1806233902468558,-0.7397101154441758,-0.4325224752651342,-0.6060196288029441,-0.5274659751003069,undefined,1498791605590
903d185fccf839df,0.0816935281642018,-0.33155345481835513,1.6469404861717751,1.8553420732058632,-0.4869775185234674,-1.7363720419649822,1.8307255416127468,-0.9386998169197646,-0.5789306121752879,1.1942100501690636,-0.015790745636512518,-0.00684738806913424,-0.44315396613190733,-0.6623100613213282,-1.079180007254182,0.023390361635022814,-0.9239813519181982,-0.5864520031797369,-0.9999303503911974,-0.07793115678475701,-0.6990323419836022,-0.43951221134480367,-0.616291073036559,-0.549684399315724,undefined,1498791607090
903d185fccf839df,0.00407671445330021,-0.3902550423144709,1.8511039458605574,1.9547608349632164,-0.639113268718836,-1.7087193138944605,1.8755584729618544,-0.6654973592832254,-0.4524460044287288,1.1340493084701944,0.02708555435662608,-0.08690688293872575,-0.3909313725490196,-0.6576808717133542,-1.041285205829756,-0.015001213921400854,-0.9420331587438618,-0.5781368477769746,-0.9905686173647983,-0.03663252557278643,-0.6852676327095094,-0.4489703820058307,-0.6065496851397161,-0.5402173696846121,undefined,1498791608646
903d185fccf839df,0.2715775570522183,-0.3286184090557406,1.9665837756785502,2.254721350260608,-0.563636826823328,-1.725408313781518,1.9005521565059993,-0.5244747607885104,-0.34195866660011653,1.5564349178933161,-0.015392785768609,-0.17405852906385844,-0.0950033422459893,-0.6539775329777495,-1.0433904807558172,-0.04531035103096051,-0.8998364430355505,-0.5467761116277629,-1.0023162626615787,0.12303395336157284,-0.6438245331836145,-0.44569626936657447,-0.6058159426666077,-0.5343527285769811,undefined,1498791610109
903d185fccf839df,0.3505803840613356,-0.3227483467585037,2.1592632948967885,2.2480124588113672,-0.6267807250415542,-1.6944434101770973,1.9692584636009987,-0.03103375765459573,-0.46259347586967847,1.2625904469636342,0.018287979365272856,-0.1630156231173884,-0.3778757241532977,-0.6539775329777495,-1.047601015883472,-0.10188736362956552,-0.9001305843366068,-0.5526910802916071,-0.9998114051568293,0.1012143518023965,-0.6545306902334123,-0.4481833689444343,-0.5950164265638778,-0.5372130613568499,undefined,1498791611597
903d185fccf839df,0.21613695611276873,-0.31981327176789676,2.0074164676163067,2.0640061448723412,-0.6158367434406362,-1.66250721161395,1.90419180135712,-0.39500916188617374,-0.4861471386753049,1.0060717733092348,-0.040835605834118625,0.027662123473572067,-0.6999150512477719,-0.6437933805940795,-1.0339167877619444,-0.10188736362956552,-0.9094599261199527,-0.6048492060685337,-1.0080186642784692,0.08239745095546659,-0.6846054153339336,-0.45354552896589473,-0.5939995947860175,-0.5309522431268494,undefined,1498791613111
903d185fccf839df,-0.03195959679489962,-0.2840051815145381,2.1535210705245666,2.055021152161112,-0.5739842424811832,-1.66383254827362,1.850811997228423,-0.7065927733024401,-0.6847060778535111,0.6596048344131603,-0.07940950705097759,0.06614910335564046,-0.3604681929590018,-0.5789849850979345,-1.0339167803997107,-0.16452619799713813,-0.8861332264658921,-0.6090732805367107,-1.0167087035341118,0.12728391980833656,-0.68083352720058,-0.4420953646919608,-0.5942257871905811,-0.5181079474910593,undefined,1498791614604
903d185fccf839df,-0.1331387400916982,-0.30337679336451323,2.2326349194278685,2.112670295181525,-0.4820609661378919,-1.6531553152160317,1.8727629892611943,-0.4917904004691737,-0.6751780811711321,0.8789412745848437,-0.20802188869165025,0.0630202736846585,-0.6085255124777184,-0.5345449720737769,-1.0318115128358833,-0.019042390747750555,-0.8715877005474697,-0.5841088165161382,-1.0254057394844067,0.23488825405607267,-0.6501631220071192,-0.4378167007103259,-0.6042282446277376,-0.5427348546023786,undefined,1498791616100
903d185fccf839df,0.07199150408751101,-0.25465446083646104,1.48105742103769,1.7891698908318951,-0.42898676785498663,-1.676671315533773,1.9064639552160358,-0.29516596197736805,-0.5555522224611832,1.2483500435602768,-0.16890072957492266,-0.009062925465514782,-0.6085255124777184,-0.513250803483293,-0.978127226769453,-0.03520732417092165,-0.8720207434545718,-0.5931142620101397,-0.9909394486838179,0.1181834371629632,-0.6610993102987447,-0.4457193368012161,-0.6152833578351793,-0.5565276785917186,undefined,1498791617590
903d185fccf839df,0.4087929080809875,-0.35914321818604505,1.4344827588646611,1.6311888003499093,-0.42745419346081326,-1.6793243191968088,1.9538399044194457,0.044421555916629996,-0.5933576057116691,0.986386404633793,-0.3073797738810889,-0.061855453352165655,-0.6868594028520499,-0.5030665992965248,-0.9707588197449921,0.02339030510557974,-0.8365300382392067,-0.574926049473963,-0.9472583582155615,0.026424102027461194,-0.6501660799886344,-0.42867864897346203,-0.6502492610801242,-0.5820169077945331,undefined,1498791619105
903d185fccf839df,0.4476015909797162,-0.38673295232574256,1.6010034536048496,1.9991208326586845,-0.3505686100967813,-1.7300854282271305,1.965008689681007,-0.01513476737363164,-0.49057057475706456,1.665468525466489,-0.15415677812881876,-0.061635979571189055,-0.8696384803921569,-0.5345449979753261,-0.9054955768019785,0.1284619483853688,-0.7803965733517763,-0.5289995402645168,-0.9446765353813253,0.17247835579310727,-0.6028354722406304,-0.4432912824971084,-0.5907531183254207,-0.5817716467010582,undefined,1498791620586
903d185fccf839df,0.6069931892853472,-0.4254760298857312,1.9506333783218894,2.208749126933427,-0.011737183897019098,-1.7554974284826608,1.923465649273812,-0.24218778233973462,-0.5989136625695313,2.215333984718963,-0.19398005588586065,-0.035189955040043325,-0.7303782308377896,-0.5243607937885578,-0.8928639787812478,0.2032245110850413,-0.7452365171051198,-0.5243701576169166,-0.919334085927221,0.27486262053475263,-0.5739905243285057,-0.45632513046598056,-0.5417478443830048,-0.5755237510909588,undefined,1498791622106
903d185fccf839df,0.550166437026043,-0.3961252799796618,2.0712178029060007,2.1905889267928673,-0.06897708680980873,-1.7401687047468757,1.9157603219827641,-0.3315412606481542,-0.38767016408162636,2.5094702185293323,-0.10859083596215784,-0.11285209919320609,-0.5301916221033868,-0.5632458310862448,-0.9023376644128867,0.1729153457107601,-0.760910976035608,-0.5507468683377709,-0.917074115885596,0.2968823986537764,-0.5875130886242788,-0.44910561305069685,-0.4891173604083936,-0.5499100226138054,undefined,1498791623635
903d185fccf839df,0.3173159958933381,-0.4002342972825345,1.5984511562217905,1.5908689759334231,-0.2885561429219245,-1.7462619962260513,1.7458801196623737,-1.4964940241949831,-0.5174275278567612,1.7404407547953464,-0.15171365499219439,-0.051764638815272886,-0.669451871657754,-0.56231999316465,-0.9139166470572881,0.3850792206835131,-0.738855625152823,-0.5410131335789561,-0.9257711517013157,0.4348832682646372,-0.5655711214679147,-0.43067922324078367,-0.44898189389124177,-0.5395940863037358,undefined,1498791625131
903d185fccf839df,0.1399061902054926,-0.3532730389768388,2.3340782572553085,2.4194818364468977,-0.3876896865015184,-1.7746833724366093,1.8157724660244337,-1.0575788371528159,-0.3498602827074738,1.6413923403206903,-0.25230411552477555,0.08710673875697898,-0.669451871657754,-0.46047824916478225,-0.9076008443658059,0.30021354632963715,-0.7575436614223228,-0.48122381059879543,-0.9465376859979187,0.6709106371843829,-0.4988856072232842,-0.43505247471807046,-0.40033438576835206,-0.5016503792781328,undefined,1498791626594
903d185fccf839df,0.13990615570008288,-0.44954364480870806,2.5286719359766034,2.6663231264664975,-0.38005770465637023,-1.8390355946982844,1.888786391716646,-0.7011249800411564,-0.31612222574620147,2.4532789652475193,-0.1086949832906761,0.20651400619679097,-0.11676275623885918,-0.2642015033901287,-0.9149692845203188,0.27192502589797385,-0.6560229725998368,-0.3764135933414551,-0.914534271922458,0.7098379092515549,-0.42847333796277826,-0.4014829298370791,-0.47163311311382855,-0.48484901642264083,undefined,1498791628092
903d185fccf839df,0.2701915437540025,-0.5610765821357487,2.457852608828582,2.5166633802727247,-0.2918989971981403,-1.8972828785603055,2.0390613961215336,0.19741923981305382,-0.22984115755800072,2.693905952039227,-0.12223053457666382,0.254183016152323,0.6274092023172906,-0.2614239766745698,-0.9012850416743237,0.32244038631594046,-0.6571990035057114,-0.35892200417793163,-0.8920535185879283,0.622143762004159,-0.42503244353173136,-0.4161952212059956,-0.5158105496683498,-0.5308685950316305,undefined,1498791629590
903d185fccf839df,0.3921607830078082,-0.5205725472653729,2.5356904361088293,2.475981183119431,-0.20674371134664063,-1.867198423871999,2.0010080996729878,-0.020280976671186703,-0.27623717092221645,2.5091705760439895,-0.1525115165872624,0.07223073025854108,-0.16028158422459893,-0.1401397140258585,-0.8781271352833909,0.3466876168623679,-0.6364309734408121,-0.3137301183064559,-0.8780109193603002,0.6156456190354995,-0.39324264192580194,-0.42920791323596386,-0.5734430391456387,-0.57839679085388,undefined,1498791631137
903d185fccf839df,0.32286004908620114,-0.48124254239124,2.3455624518628024,2.2926375257929608,-0.2086671344382472,-1.8287217214763796,1.9432523099134373,-0.31923719824050184,-0.33080557168985397,2.030614218367652,-0.2454626506991761,0.0503155644440166,-0.3038937165775401,-0.1956897562076046,-0.8833902710629075,0.3244610312585584,-0.6824472467410945,-0.3124002006103569,-0.8801309530131141,0.636726090689918,-0.39061103441750294,-0.42870214994928146,-0.6234429113076946,-0.5677775004686638,undefined,1498791632600
903d185fccf839df,0.3630545037452774,-0.3432938424647599,2.581626960401856,2.5236743108652755,-0.22898138774365334,-1.8074697426967996,1.8755348063019641,-0.6756297220629677,-0.41765595402182343,1.939589202459389,-0.36102085214640134,-0.2039428010994701,-0.7173225824420678,-0.2938281485210932,-0.8739165854312685,0.21736868650670832,-0.7189976512705576,-0.3360410799449476,-0.9161785232186416,0.566955733645829,-0.4306183489198614,-0.44213360685283953,-0.5966089257862002,-0.6237983133012434,undefined,1498791634101
903d185fccf839df,0.6111512291799944,-0.1343162693096073,1.9889142811504856,2.1688147699549263,-0.1015004633220914,-1.7611039065542975,1.8744513241323766,-0.5496661178407716,-0.29592621648381334,1.6891865311605399,-0.2499845637453757,0.024398568262679568,-0.8217677696078431,-0.3234548454551558,-0.8707586730421767,0.23555418007833273,-0.7799283953874642,-0.3583647057433544,-0.9409332402410178,0.5780426126305175,-0.4551192728282451,-0.48332319163836,-0.5018777476385565,-0.5379697208248474,undefined,1498791635597
903d185fccf839df,0.6069932582961667,-0.25582854928868853,2.510807887390784,2.563543551093291,-0.1954603022975975,-1.7529981534944648,1.9033975965210117,-0.4041452647755089,-0.33058113246518156,2.112271889129157,-0.31194749036613023,-0.06777003678918837,-0.7695451760249554,-0.29290231059949834,-0.8981271440096994,0.2476778518809895,-0.7401495490863932,-0.3369466896672116,-0.9499171453026813,0.5610735230158607,-0.4517453840827171,-0.4671465368294662,-0.47416684315750063,-0.5287879676008083,undefined,1498791637100
903d185fccf839df,0.5155161045706491,-0.35444712742906626,2.4068117439063865,2.404210053774805,-0.15479065657958974,-1.8228101124755511,1.8309096199987884,-0.9736697720405723,-0.3446190842511438,2.178161937555698,-0.22434003286719045,0.015873904154697267,-0.8870460115864528,-0.35493320528163347,-0.8960219058948071,0.3850792206835131,-0.7315364059523218,-0.330056447062479,-0.9486577199382344,0.6761615002561757,-0.4309351383978957,-0.45366324312460676,-0.5025965497908956,-0.48964120902612385,undefined,1498791638589
903d185fccf839df,0.6208531842458658,-0.49122176813131124,2.2562411923859096,2.233975275472126,-0.07350279668356224,-1.8723460442269118,1.8669379672565662,-0.8290081463255257,-0.2547682898234843,3.423331429353985,-0.15548943543399205,0.0020002444993074612,-0.7608414104278075,-0.2725339799306092,-0.9349692932466273,0.562892640396749,-0.7052772456260501,-0.29178646721854284,-0.9481749400427971,0.9047976184849598,-0.3699482458335727,-0.45083426750850525,-0.3513240684261015,-0.4406992997283687,undefined,1498791640141
903d185fccf839df,0.9368646993147935,-0.3773407708117851,1.8887467108091514,2.065043221348195,0.15164082802205694,-1.8543293791952555,1.723760814446559,-1.577757777904163,-0.13682979141252227,3.605762706889985,-0.2754302143801639,-0.031647086410972636,-0.8043602384135473,-0.2512398113401252,-0.9097060972051657,0.6720054322381662,-0.6190769869303037,-0.2823757110591553,-0.9134427710467176,1.0939521239222334,-0.3200133643555745,-0.4433445201430233,-0.38263829591622545,-0.3866587079981351,undefined,1498791641612
903d185fccf839df,0.9659709785773244,-0.3333145436547078,1.7496600997592189,1.9981402375918498,0.14300084564656065,-1.829897988501398,1.7920095425477756,-1.1025037700142721,-0.016368882049807423,3.111256965564849,-0.3359301637373618,0.020120673173800497,-0.7956564728163993,-0.2910506736086324,-0.8612850094972391,0.59724298259738,-0.6558127521207102,-0.26844956900883027,-0.878598653865712,1.1934106850252955,-0.2846899134591141,-0.415878243410277,-0.5145180870824112,-0.38871379809294404,undefined,1498791643093
903d185fccf839df,0.6790658807925662,-0.301028674916043,1.4797811452776857,1.6599194985521366,0.029652465538964248,-1.7745575939075418,1.8378207602615986,-0.7913462042902427,-0.08092369994260278,2.1035081381972804,-0.27533922245077347,0.014676090404477551,-0.5780623328877006,-0.2734597919506549,-0.8391796890337004,0.613407859491108,-0.6707153463816543,-0.31254585609473373,-0.8494149556256868,1.1920248267390792,-0.2958795235108678,-0.38913837004396695,-0.47737703389569625,-0.360520565133382,undefined,1498791644575
903d185fccf839df,0.5058139424723194,-0.38790698232198534,1.775818670100319,1.8681390557537991,-0.09606960853802236,-1.7371243917633497,1.8686157813426112,-0.6080005636931977,-0.2799187949030847,1.9078236410978835,-0.3453988665222138,0.014290680099915408,-0.6389886920677362,-0.27531148074461903,-0.8044427926361325,0.6598817887002311,-0.6529665106778124,-0.28244537528331637,-0.8474138671399533,1.0981405078147781,-0.29182967734505666,-0.41448298670246586,-0.5203109815953469,-0.3529415522714965,undefined,1498791646096
903d185fccf839df,0.7261903329319018,-0.37675375581366366,2.374911457466964,2.4407447791488726,0.07819067211608406,-1.7713292688182072,1.8250609250491394,-0.8790350416940228,-0.4140181181433229,3.0272515415073538,-0.33668231292374223,-0.01055708388687458,-0.7129706996434938,-0.28827319869617163,-0.8002322869574128,0.61138721454849,-0.5716321392817428,-0.23997032156289524,-0.8523256284487855,1.0725174970288354,-0.2846040945801,-0.4143854405052599,-0.5174151460851945,-0.3311391071227328,undefined,1498791647604
903d185fccf839df,0.8703359229787985,-0.333314558268704,2.7341119255623396,2.8000286341377616,0.14624084492290482,-1.8295858702151615,1.8182076640317697,-0.9691495333678009,-0.34306846203671687,3.2399153705864223,-0.4394745129202903,-0.10796013256819664,-0.43445020053475936,-0.25864648881133445,-0.796021781278693,0.47600649068858436,-0.5738093494748322,-0.22489158475434803,-0.8583708725446355,1.0665890970936431,-0.27715177482934705,-0.44825520211675424,-0.4943256821557503,-0.3769788425563537,undefined,1498791649099
903d185fccf839df,1.1724871670439299,-0.35444709820107395,2.431056408881379,2.3138309978362783,0.19944875794348627,-1.8436684503931426,1.9367803620181216,-0.22528121019502056,-0.24724703858204333,3.535224301295584,-0.34542595297064016,-0.11310037060179827,-0.5127840909090909,-0.13365884857469493,-0.7876006962989158,0.6113873276073761,-0.6351864581948431,-0.16123916640781158,-0.8379261905757468,1.1220388929799834,-0.2288265574431543,-0.5301221748605367,-0.5584672201785653,-0.3792111581849343,undefined,1498791650602
903d185fccf839df,0.42403915787759,-0.45717486901227844,2.091634148874879,1.9007447142574962,-0.1119198671261595,-1.8492236854932826,1.9860340000603904,-0.031319965220158855,-0.18385814749047769,2.244563958922852,-0.21983760389924478,-0.07992840516105625,-0.847879066399287,-0.1540272569482314,-0.7497059316856587,0.4881301907559627,-0.6381910785438555,-0.08654842830015765,-0.819510584397269,1.2290118956762297,-0.17553507134122234,-0.5041561648889555,-0.5662527967978797,-0.29751578734938483,undefined,1498791652089
903d185fccf839df,0.31731620292579654,-0.5070711438525963,2.4374365169966534,2.470390952945382,-0.35443602898241167,-1.8694880674805394,1.9144743383994645,-0.6232330516476351,-0.3018320617191888,1.9715859205584043,-0.1928629436353859,-0.0028051668539076607,-0.8913978943850268,-0.12810389874977343,-0.6223373140153206,0.4618622587374743,-0.6078760794383817,-0.10958134269417233,-0.7886266614506495,1.223360665874347,-0.1754038552705633,-0.5133212935829659,-0.5545508228904898,-0.2866111681165297,undefined,1498791653600
903d185fccf839df,0.3575103815415949,-0.518224458044895,2.7073152173412374,2.695099497384432,-0.34980747008434304,-1.8583356700279665,1.8743540195710588,-0.8409996975542515,-0.271263963449429,1.7884928752311025,-0.27731858269838855,-0.061514043603526684,-0.7347301136363636,-0.11051306889489408,-0.5981267701613573,0.5386453533208786,-0.5700649344614813,-0.12649030125530575,-0.7660059720086934,1.200278395463786,-0.18693228917904306,-0.4885975233523251,-0.5279609278842856,-0.2741436107866918,undefined,1498791655102
903d185fccf839df,0.8883542338772422,-0.3497510366720875,2.6958310227337434,2.4537638286529253,-0.07503535383324422,-1.8131717212747642,1.8872242874117187,-0.5523607080623553,-0.22871579390198468,2.4596186617867772,-0.444477076647533,-0.02287680014449609,-0.47361714572192515,-0.13273304950542378,-0.6591794927011836,0.61138721454849,-0.5392581594973898,-0.14590077249703223,-0.7962112052239515,1.1400858710968802,-0.20675454448538585,-0.4554937430485468,-0.6372625045751479,-0.2869504946240135,undefined,1498791656657
903d185fccf839df,1.173873249352965,-0.37147059160257884,2.3136621654233798,2.117879679460417,0.11376889504333199,-1.8080590405967418,1.929740357719267,-0.18835551633927258,-0.2180997847089489,3.0325852423153057,-0.4765171549105282,-0.013690136459586152,-0.6172292780748664,-0.14291722779064292,-0.6507584224458739,0.823551089521243,-0.5391329431942655,-0.13479278759266686,-0.785722985689227,1.2779327550147455,-0.1731129981581707,-0.45981029669440476,-0.5749106519066808,-0.2845786647973831,undefined,1498791658110
903d185fccf839df,1.0380438081061825,-0.3650134266232436,1.948719472955782,2.238085820060893,0.20289446635334765,-1.7836229918525583,1.9633834632840605,0.08872370818425103,-0.33580790423359486,3.0620197274990915,-0.536389427170012,-0.018066447689221762,-0.6172292780748664,-0.06514723089991627,-0.700232154979065,0.9043753044015539,-0.5300001560450743,-0.16179645987599947,-0.7891724141120715,1.2793340108444333,-0.18399831094529964,-0.4439551313131416,-0.5311142099506176,-0.3791877189709956,undefined,1498791659595
903d185fccf839df,1.082396302659906,-0.45541382401791425,1.8727963134524905,1.9497187333932746,0.08193466569004805,-1.7749302715794208,1.9218036071996571,-0.27332712353502125,-0.29145277345310294,2.9856452636568824,-0.44623820779226714,0.08082702342856381,-0.7260263480392157,-0.09847721476648534,-0.7528638072635816,0.8013244473879905,-0.551752590628786,-0.17927538449204133,-0.8345117483054378,1.2557589895334003,-0.21058348419383166,-0.4135491969302049,-0.6109493939293813,-0.36966445241568024,undefined,1498791661103
903d185fccf839df,0.6513456148282513,-0.423127911437261,2.013796575731581,2.067101826622655,-0.08743990120478916,-1.8097221171763096,1.8523030978873538,-0.8415652982613127,-0.27195929249703155,2.4416608597780662,-0.40974163777496386,0.014075982025325342,-0.9349167223707665,-0.0345946571919352,-0.8023375766079416,0.7892006907911691,-0.5605278322542088,-0.14409588260774228,-0.821070874721448,1.2305671314370445,-0.19554877453231123,-0.4150804545067373,-0.584269789575188,-0.33457477400910535,undefined,1498791662607
903d185fccf839df,0.5266042109563751,-0.47126325819518405,2.1343810003156927,2.2167481304863763,-0.2752361558886676,-1.8306223811597189,1.8044906144030017,-1.2615697807343194,-0.26009738353185213,2.2114959635255054,-0.3184276732077356,-0.00963535173817679,-1.035010026737968,-0.05033387595749768,-0.7654953905598447,0.5224804764271506,-0.6031977439125424,-0.17128321154222567,-0.7809581580816818,1.1419644765275843,-0.22566787333238872,-0.3868811592611574,-0.45021433449497594,-0.38937844941425115,undefined,1498791664093
903d185fccf839df,0.22722506249849475,-0.42312799912123794,2.089082105628769,2.143798567022082,-0.3778257026335207,-1.8433050882343398,1.8767524304461556,-0.8541100943209544,-0.4148078124853136,1.5334448129956038,-0.29147630023888027,0.0068701013877022,-1.017602495543672,0.00799365408748368,-0.7770743658420125,0.4578210253816815,-0.591701707538062,-0.23491029899991914,-0.7585123888871744,0.8871664009260266,-0.29737157268117714,-0.3214427933116386,-0.4544891069029584,-0.3666092903970576,undefined,1498791665598
903d185fccf839df,0.18010061035915917,-0.5088321888469606,1.9353211188452308,1.8999293599092881,-0.4464415909140138,-1.8543503403743804,1.9211067338985532,-0.611524547163784,-0.37933760268721606,1.2520768905756845,-0.26002524310349434,0.015382212833425538,-0.9349167223707665,-0.05125970092831793,-0.7844428207209929,0.3305228247628045,-0.4987220433913975,-0.273503257830849,-0.7863596960540084,0.777960625767113,-0.34487705482807696,-0.3539449997242615,-0.402483773432392,-0.3723150470410232,undefined,1498791667109
903d185fccf839df,-0.06106591056284015,-0.42019280721866165,1.511043802111005,1.5627945673681056,-0.29427499786123684,-1.8097151295791611,1.8780515365968475,-0.7387914120107313,-0.3082541400734571,1.0942198919986215,-0.24850414239802396,-0.07782592629568494,-0.9218610739750446,-0.0781088711468216,-0.7718112079757946,0.2759663723126528,-0.5158901274857404,-0.28019084636524844,-0.750144202833986,0.7727867505069144,-0.3359157097050388,-0.37507922863305637,-0.4366817095420915,-0.3833622286308154,undefined,1498791668609
903d185fccf839df,0.14545020889294588,-0.4313461506389527,1.7458320348900542,1.8081579130608199,-0.23601680047291237,-1.7569415565408668,1.896512773671991,-0.5143302968200273,-0.3261994352309483,1.5913106216016049,-0.2810482668365956,-0.014517657678795261,-0.44315396613190733,-0.22439062817084696,-0.7644427530968142,0.215348126358255,-0.5423069408368306,-0.38957345029753887,-0.753621617582778,0.47689022518043883,-0.43138136495966095,-0.38022251057351997,-0.5393499563088264,-0.4412139449491109,undefined,1498791670099
903d185fccf839df,0.2604895886881312,-0.40434346072536886,1.5946230913526256,1.6284082514066898,-0.18239745571578822,-1.7625946203151452,1.9219745575188167,-0.3465975925331116,-0.3920413365359921,2.1553858627346396,-0.2590031848897722,0.033983886186761916,-0.3038937165775401,-0.2336489426329222,-0.7802322487821691,0.03551392037879345,-0.5803854937225836,-0.37707855129256473,-0.7815248983557687,0.3802649791434032,-0.4529301859529913,-0.3854100665458417,-0.5106685312365872,-0.4186498715649546,undefined,1498791671593
903d185fccf839df,0.5806587985976089,-0.5264426680185945,1.8223933322733477,1.638161515531452,-0.25064305265526876,-1.8291992159849229,1.9156656464392685,-0.516485214057736,-0.2137556641711043,2.2728352221049484,-0.2197041356294447,0.01781420109263417,-0.15157781862745098,-0.2938281485210932,-0.8328639084289196,0.06986426257942435,-0.5317488629269636,-0.33227930594696087,-0.8064965169006967,0.49897159078088693,-0.4185408260480676,-0.4441435740012967,-0.5365226370303258,-0.4522650918978256,undefined,1498791673098
903d185fccf839df,0.6319413251370015,-0.49885297772088544,1.521889858838497,1.4798770275389725,-0.1470969493452917,-1.875686172948202,1.9965768776941795,-0.01676584785693535,0.013751588931532787,3.0175304711272584,-0.09745830613257285,0.11581289319519876,-0.6563962232620321,-0.3030864629831684,-0.8812850182235475,0.09613219459791277,-0.5243461462482147,-0.30279312115947715,-0.7867725066050324,0.480755229777543,-0.40226135385695927,-0.42644480474119506,-0.5089634520856632,-0.41887575161987656,undefined,1498791674644
903d185fccf839df,0.509972189399425,-0.5123543080636812,1.7522118888683793,1.7230297436085438,-0.20851284633998177,-1.8425643925079256,1.9949595543254068,0.009160123902611294,0.020973960102916692,2.8540867238050818,-0.15362675514100532,-0.07172841951403951,-0.6128773952762924,-0.3104931663559268,-0.8097059873135193,0.0860291677378739,-0.6339930586291728,-0.30094390265210863,-0.7804403931470144,0.3470505284790049,-0.4258547040604912,-0.42314027044768754,-0.43448374665887546,-0.38389096938603834,undefined,1498791676103
903d185fccf839df,0.1939607433413167,-0.434281254857552,1.4804192831576877,1.5425163578469245,-0.41651021135976485,-1.857921067084878,1.9841168631220554,-0.16456044525807734,-0.16271274967295027,1.9283752265003666,-0.23562801675801606,-0.055254812329672234,-0.6128773952762924,-0.2299456427496412,-0.7854954287350884,0.43357373830581103,-0.5253717201114675,-0.25215490579062066,-0.7928037581802001,0.5466297768254557,-0.36739829427642284,-0.4606819822072138,-0.46388438354799105,-0.36606856289293577,undefined,1498791677602
903d185fccf839df,0.2438572565824935,-0.4407384198368872,2.01634912725159,1.8876118841081346,-0.43655703395749773,-1.883374992532791,1.9263873682545753,-0.5779169655275663,-0.18407501477574525,2.0042844111966396,-0.21033910180293125,-0.0030148576619659037,-0.7782489416221035,-0.11514228440441718,-0.7402322166050846,0.5871399840020626,-0.5076745255801376,-0.22443561315284907,-0.7496684204895899,0.6931151898099089,-0.3150914247289736,-0.4366027738578061,-0.4558139636766031,-0.32150621778387634,undefined,1498791679126
903d185fccf839df,0.37830065002565066,-0.5023750530956176,2.428504365635269,2.4608516397765072,-0.39123825929969663,-1.9264030283954414,1.8244008559025042,-1.2714104281403222,-0.21389605156873862,2.1115805202237947,-0.23011420757680862,-0.07747483635592829,-0.8609347147950089,-0.17439563942021877,-0.7044427121934211,0.5487482671220313,-0.5024798343621575,-0.20817261467517303,-0.7293636743406259,0.6920372998941259,-0.3041958839394492,-0.4327583239874272,-0.4350273672071746,-0.3201432219223236,undefined,1498791680598
903d185fccf839df,0.6943119925675298,-0.5364219376006543,2.5069795683846703,2.7221856311551615,-0.3041801243993577,-1.9255388794727308,1.8806418877709303,-0.871920056110041,-0.23078857828900948,2.339492250075281,-0.2561653040030484,-0.13527599463847442,-0.6433405748663101,-0.011448851610585257,-0.6791795382386611,0.5851193390594447,-0.5548393360876284,-0.15358263932894461,-0.7124803693709996,0.816164169700164,-0.2509112879925596,-0.4327763245256323,-0.4960114880750413,-0.3537518271052312,undefined,1498791682106
903d185fccf839df,0.634713351733433,-0.5252686526363479,2.4731648683052407,2.685331885167822,-0.2345973802231511,-1.9177079768354068,1.8736729028308987,-0.8873175722597194,-0.287643175212355,2.7373715503975466,-0.27356498176067773,-0.09948147328482393,-0.051484514260249546,-0.04477887432947798,-0.7086532399588422,0.42145009476787576,-0.5133794862981355,-0.1083590886671052,-0.725599390131793,1.0544397147648612,-0.2014512784553404,-0.40111835749041835,-0.5270519329447524,-0.2977219646296627,undefined,1498791683649
903d185fccf839df,0.5875888650886877,-0.4624580039953709,1.993380229762703,2.0246144078346373,-0.1585243641344313,-1.885683266579456,1.9332458962115249,-0.4518731954360951,-0.2184173285902072,2.386344490480045,-0.2538213437165639,-0.2310036006375295,-0.6868594028520499,-0.01978131520029116,-0.6949690118373146,0.5164186546581829,-0.4848749911755372,-0.13507144470524118,-0.7258232875782477,1.0898869395208655,-0.2105675255381861,-0.3732595947579173,-0.47926348048519174,-0.2698598165351658,undefined,1498791685106
903d185fccf839df,0.6291692640351603,-0.5023750238676252,1.992104208139648,1.977006732881901,-0.13781925106070872,-1.8593978023869207,1.8800633362465369,-0.7607982469883301,-0.29759455588462413,2.882980997728142,-0.32233712901278694,0.09632267622446186,-0.7390819964349377,-0.030891344357879647,-0.6718111054463819,0.484089013929613,-0.5607030557250492,-0.13803526087350748,-0.7363115060547204,1.0776143784867125,-0.21632071210180612,-0.3909431686647975,-0.5304944261506906,-0.3514037248826047,undefined,1498791686598
903d185fccf839df,0.5848169765138951,-0.45365274979555775,1.5557048130548756,1.588004032441948,-0.09874388718535154,-1.8512291593630814,1.8474984506255994,-0.9635254676869337,-0.22870324006374526,2.560386972675394,-0.3737035807404777,0.060663515203647704,0.009441844919786108,-0.06144384036121343,-0.6981269242264064,0.5305629996681791,-0.5891506259779763,-0.20636772299754014,-0.7593869885217478,1.0587820837311348,-0.2558990598649772,-0.38695185206021854,-0.5712399541033345,-0.3302874806009113,undefined,1498791688108
903d185fccf839df,0.4794796898062201,-0.4313461652529489,1.7011712780831332,1.5663471847161328,-0.14387753009527293,-1.8608978317392184,1.89430900674963,-0.6558827770256896,-0.32167398301879097,2.3676553108979626,-0.39410321362064155,-0.0026742832790660194,0.013793727718360084,-0.06236970418435732,-0.6949690044750808,0.5406660547929395,-0.5561412862846212,-0.22812771954930858,-0.7370601651794315,1.1179737058457664,-0.2373031420329756,-0.46067293192514963,-0.636550910654935,-0.2986149891578137,undefined,1498791689618
903d185fccf839df,0.34365038658107633,-0.4518917340291859,1.7203113482920072,1.885980990212635,-0.06719766208837923,-1.828409601887239,1.8787089861533572,-0.7039856738010892,-0.1120262686554768,3.0121941800425125,-0.10543640640764014,0.03203332584890513,-0.1863928810160428,-0.04940803803590288,-0.7360216814774297,0.7649534037152985,-0.5627785374692534,-0.18589331767755504,-0.7444627898635438,1.1050082131914403,-0.2144543820204039,-0.4309466724028675,-0.6374039209685353,-0.24922047179049786,undefined,1498791691159
903d185fccf839df,0.6097652848925982,-0.5141154115140301,2.009330627119364,1.9624021994768825,-0.09612104101625461,-1.8051055646048138,1.8780147243240852,-0.7085517028507434,0.0344615641036599,3.0185426726196436,0.11117478306870292,-0.11365216961064592,-0.8174158868092692,-0.12069722127856414,-0.7065479871194824,0.6841290192466585,-0.6065352413318817,-0.23409968491664268,-0.7410483463759395,1.0804476906179552,-0.238279075332019,-0.41948416285689416,-0.6209411004551322,-0.27842185258531893,undefined,1498791692614
903d185fccf839df,0.8204393062213925,-0.5299647872353151,2.394051781812787,2.513916704220346,-0.01959545612232804,-1.8209816592659527,1.821260871352552,-1.067180450124754,0.03254439829477533,3.8907453218454635,0.07070104273685587,0.0224303170535462,-1.0001949643493762,0.0644694953385009,-0.7339164212758361,0.7831389820810876,-0.48029929804952237,-0.14852895081144235,-0.7274185585740751,1.175764067795846,-0.17794595579648959,-0.41872622987143565,-0.5159750026057278,-0.19012641368226071,undefined,1498791694095
903d185fccf839df,0.7054002714803045,-0.434281254857552,2.316214462806439,2.2962364164296467,-0.2535436308991589,-1.847681728969783,1.8275303267380905,-1.0860799960923222,-0.11109666890087377,2.9183437147045646,-0.24779657987976186,0.013141004904352807,-0.9175091911764707,0.12372292805894979,-0.7107585075226697,0.7609121703595058,-0.41784997364185633,-0.10987266270430178,-0.7408034576832856,1.221420455434292,-0.15658590118576848,-0.40395718999833635,-0.4656788923868249,-0.14661837757190224,undefined,1498791695605
903d185fccf839df,0.8440016013018797,-0.4160837753017928,2.418934076393883,2.3081650755937853,-0.17721347634750959,-1.861407935083986,1.860197773646589,-0.8629817906393756,-0.15725714832479123,3.0768960606064626,-0.32521417730777424,-0.011878838651508086,-0.8130640040106952,0.06261789719995858,-0.7139163978250601,0.7568710500625991,-0.5159491144874717,-0.12324783896474699,-0.7808462068871618,1.2150301073456249,-0.18382160877447407,-0.37065661386107673,-0.38626112131672274,-0.1500198051404701,undefined,1498791697090
903d185fccf839df,0.8578617342840372,-0.42195396912499517,2.0214532137438095,1.9920438704486831,-0.11747414332287946,-1.8469084204984327,1.8703093889147435,-0.7883021187793298,-0.17500706801942964,2.913674169704731,-0.30115917434466094,0.03331529439731478,-0.7738970588235294,-0.01792969116019975,-0.721284837979573,0.5932017492415872,-0.5164486625584501,-0.21225736312562427,-0.7902359276158469,1.0643255204838988,-0.2595221094978824,-0.400847007129379,-0.3810553854681575,-0.23696203584843234,undefined,1498791698607
903d185fccf839df,1.0560619119721677,-0.43428128408554434,1.6277999076890022,1.8008445810708278,-0.05730281483562674,-1.8504861341913224,1.889935636256934,-0.6851826518485199,-0.20793436425753567,2.873310301886125,-0.253137060267449,-0.0006063231307868779,-0.8826941287878788,0.006142030047392271,-0.7444427370082719,0.6235108580864253,-0.48077815904401955,-0.19160563337839917,-0.8095331320381909,1.0158512183653803,-0.2673370694806427,-0.3687729487259732,-0.348248564016253,-0.24459673504131269,undefined,1498791700095
903d185fccf839df,0.5418503572367483,-0.434281254857552,1.2756174314519537,1.4579793812999955,-0.22104082834562117,-1.8469270563475044,1.841084349502549,-1.0631222227460648,-0.2379648341690969,2.656635380711118,-0.16416642400635995,-0.04758204237718463,-0.9001016599821747,-0.21605816458114105,-0.7454953744713025,0.4780271356312023,-0.6267802170871543,-0.3246924462536911,-0.8313072079696581,0.8986074581837059,-0.3555685376101364,-0.41221490206547495,-0.46718941699659655,-0.2909716041733446,undefined,1498791701601
903d185fccf839df,0.47947982782785903,-0.40610453494772536,1.6290759293120571,1.6512738957047084,-0.3195675210633162,-1.8368344640238399,1.8582201457291,-0.9520293015289589,-0.31498780247849273,2.3728677542287246,-0.1953233523840532,0.07823772205259591,-0.9349167223707665,-0.2604981517037495,-0.7454953744713025,0.562892583867306,-0.6380003231792681,-0.3622468025983621,-0.8327065698758428,0.9173935561355532,-0.3731694279573807,-0.3894969223515956,-0.4438165670962897,-0.26412544010355576,undefined,1498791703148
903d185fccf839df,0.46561972935111123,-0.4612839447711358,1.1965040908225506,1.3545940493420627,-0.3751411369307993,-1.8528433241982503,1.849494453646636,-1.0433626541803793,-0.35052936038836713,2.0535461068997254,-0.21164471779595834,0.056873876492453644,-0.8391753008021391,-0.3410456623592606,-0.7665480353851092,0.5911811608284123,-0.7003310249022572,-0.4059947769515091,-0.8219524720294037,0.8777579586472588,-0.39515440591129125,-0.39570618710578576,-0.4825184740139674,-0.279019332904182,undefined,1498791704622
903d185fccf839df,0.7151023645678147,-0.42782408987821674,1.4638310020579741,1.5679695987274918,-0.10039988413447358,-1.833459396168385,1.9229580872538716,-0.446591720514868,-0.27880853457125737,2.761296561207006,-0.24453835126100162,0.07643514682032272,-0.5954698640819964,-0.31512235596390076,-0.7876006962989158,0.7285825578956574,-0.5723911573545334,-0.40002281070938184,-0.8192656961939802,0.855368621701207,-0.3956773874148759,-0.38700677048982535,-0.3984930305359187,-0.22848131626224316,undefined,1498791706095
