UUID,iqrAccX,iqrAccY,iqrAccZ,iqrAccXYZ,meanAccX,meanAccY,meanAccZ,meanAccXYZ, covarianceAccXY, covarianceAccXZ, covarianceAccYZ,pressureDerivative, pressureIQR, iqrGyroX, iqrGyroY, iqrGyroZ, iqrGyroMagnitude, meanGyroX, meanGyroY, meanGyroZ, meanGyroMagnitude, covarianceGyroXY, covarianceGyroXZ, covarianceGyroYZ, class, timestamp 
903d185fccf839df,-0.6487361355982846,-0.886283212602913,-0.4935879466668734,-0.5143049647481566,-0.9378657424386052,-1.6797958248667322,1.8722850902151842,-0.8856398696735488,-0.09106794857664728,-0.8135491884312751,0.13065540978014598,-0.7249916374924691,0.03555314171122996,-0.7465609236632185,-0.8802323954849846,0.676046609064516,-0.6735137195273595,-0.6436764868619711,-0.7807487933724098,0.5044913398927103,-0.5539123641941093,-0.4361463202781198,0.19646130655199923,-0.3830430636858415,undefined,1496069625321
903d185fccf839df,-0.5413199842176297,-0.7210383737197731,-0.19882695174119377,-0.22816970530901626,-1.0720720536712973,-1.7036854984866694,1.8858642966755585,-0.8487220536074864,-0.2816847312207903,-0.7490845574597516,0.01731406372801644,-0.1951442586302545,0.042080965909090925,-0.6743458895481879,-1.0065483315188894,1.1529100534586696,-0.5907178996428849,-0.661504682215776,-0.9212444280088318,1.203921764038681,-0.4482337738080126,-0.461827445990194,-0.23847926912188402,-0.6059168865628457,undefined,1496069626837
903d185fccf839df,-0.4061835151145452,-0.5167569205495915,0.1495272054897407,0.08205760378399335,-0.9017691513588157,-1.7299297325904697,1.9143250448077533,-0.5942896157124473,-0.370100028790478,-0.8472585549414852,-0.02544023292381886,-0.053193618008589544,0.048608790106951884,-0.49288243396208015,-0.9770746297987082,1.1811985738903328,-0.5058388458248577,-0.5403514486227263,-0.9224961928409744,0.7960225101947547,-0.4704007875583042,-0.46034615098332216,-0.4000317796053183,-0.573784138989302,undefined,1496069628387
903d185fccf839df,-0.0763121258540329,-0.41021358147859044,0.7345840091397309,0.6234288501072557,-0.6453875402353441,-1.6994023597873946,1.8963470834835199,-0.5614820626978436,-0.37644791089997115,-0.6950652596372909,-0.09545741320162796,-0.08662755220766517,-0.15157781862745098,-0.4428874128345156,-0.9707588123827583,0.9670142235632911,-0.5645488069858615,-0.531890896905284,-0.9305074543475557,0.8399553634577376,-0.45512947569652934,-0.45583542565506663,-0.48940834777260434,-0.5854834240659206,undefined,1496069629859
903d185fccf839df,0.3367203200899976,-0.21473738250822205,1.2418027313725244,1.2842573415459877,-0.20880084688932782,-1.7259137597949126,1.860213545658479,-0.668978803995706,-0.5182670002568897,-0.36471945519311727,-0.1455361162028064,0.03429590826483979,-0.2864861853832442,-0.38548576603884,-0.916021936707817,1.0033851541770968,-0.49482702944240137,-0.491485335778716,-0.8861149022025488,1.056465475463287,-0.39157441639290474,-0.37674048128519455,-0.4047073624943356,-0.4342815314802353,undefined,1496069631336
903d185fccf839df,0.26880553045578676,-0.17305925918561885,2.020176937983805,1.8651315868929443,0.18686934127304475,-1.745647075776881,1.9059143090080246,-0.26874928792527075,-0.6200507674212075,0.1901544863539329,-0.19870455957896013,-0.10562447808206481,-0.29954183377896615,-0.20402227160040867,-0.9539166939588403,0.7043351860256223,-0.5035546716853291,-0.4412059431998485,-0.9250224923319221,0.948021063683961,-0.403897482958789,-0.38758820292238944,-0.455828951637406,-0.42125423199384726,undefined,1496069632835
903d185fccf839df,0.14683636021280058,-0.3591433058700221,1.934683235102178,2.0174280525172463,0.47650428572568393,-1.7684386820323728,1.9122810694786418,-0.2272632129496077,-0.5579070818708477,0.7204678321449968,-0.1271942425451484,-0.09578667776920377,-0.9436204879679144,-0.2577206379389651,-0.9086534597421352,0.26788390560106723,-0.5588609538936256,-0.41842634349668983,-0.8983366546756626,0.6750220247706165,-0.4441771715592943,-0.38937975071786785,-0.5050077467555214,-0.40439615101150117,undefined,1496069634336
903d185fccf839df,0.3381061953665744,-0.23586998089657665,2.0463355083249053,1.9776603652935685,0.2309846919240085,-1.701289046027384,1.8113359757966427,-0.7134197198607265,-0.6201772771946046,0.20658695158629756,-0.23060185602187872,-0.005687280799410369,-0.9262129567736186,-0.2243906152200724,-0.8391797111204019,0.11835894979005149,-0.5563765542868686,-0.3790924263909121,-0.8398783002169848,0.7292861470214356,-0.4080999907853717,-0.30372441920230175,-0.3491094266223256,-0.3389840363238598,undefined,1496069635864
903d185fccf839df,0.3658266683633479,-0.43310728331729387,1.495731288497397,1.3991707255694439,0.06995182733989361,-1.6946670196608384,1.7364180671591418,-1.264517397076023,-0.5398971173196502,-0.03839339124234343,-0.2260080697739524,0.041177336132066186,-0.8348234180035651,-0.2308714547696869,-0.8465481586371485,0.23555409528416812,-0.5349098829543547,-0.36971333819439783,-0.8487012795888634,0.561319904699146,-0.43935925108483437,-0.30556974979158213,-0.3239131620890289,-0.3100580642060608,undefined,1496069637324
903d185fccf839df,0.22583898018945953,-0.3802758165743997,1.3770615316902417,1.2532014479771785,-0.23631509339103465,-1.7235868529643523,1.8255080049938623,-0.8334812975289638,-0.3493132245585777,-0.5346911685371856,-0.19410203342308424,0.047705052075753235,-0.8870460115864528,-0.3012348130415279,-0.8718112957807397,-0.06349575980842032,-0.7279200653257302,-0.3975592908573437,-0.8583498811026903,0.09062022315276307,-0.5443943502473366,-0.37227634971899576,-0.36593115078850863,-0.404521694892606,undefined,1496069638875
903d185fccf839df,0.19811878323596394,-0.6045157796807084,1.4102380938896688,1.2867991057991026,-0.2929172823952587,-1.811184881864605,1.879952868264476,-0.729919177854105,-0.25027572846662255,-0.6785268706132527,-0.09996735561529635,0.04655523647271976,-0.7651932932263815,-0.3364164986528357,-0.8539165840671938,-0.11199036222488284,-0.7711617353781214,-0.39510210905378884,-0.8519268089136467,0.04373195442637894,-0.5443342395336535,-0.38636428033247094,-0.41491595835582523,-0.3705083310305529,undefined,1496069640374
903d185fccf839df,-0.15115684395768353,-0.5775130313111398,1.4312923236015997,1.4785303077415461,-0.5042163540578415,-1.8644336187682957,1.9047098632117618,-0.7345922383861493,-0.34829404905975325,-0.3926085748306751,-0.005599852542848285,0.08618270292922536,-0.7216744652406417,-0.4002990821289349,-0.8286533585767971,-0.11603156731595408,-0.7909397237392809,-0.434239700354428,-0.8862461668509862,0.03400013444072309,-0.5749965672851125,-0.3875553849572673,-0.4061877689577302,-0.3668844543752129,undefined,1496069641852
903d185fccf839df,-0.09710232532726917,-0.586905271281082,1.8542941269866695,1.8693074169729165,-0.552363701028687,-1.8728864273598624,1.9026007624052006,-0.7531973709169292,-0.36362271495270443,-0.6161629126160058,-0.04195800382687804,0.036779624777476164,-0.8217677696078431,-0.29105068655940697,-0.8581270971081473,-0.09582554186059788,-0.741235200162267,-0.38954811812418944,-0.908510019360309,0.06938576222437488,-0.5565613995789402,-0.42732052386908165,-0.3336440276419234,-0.3899205359556026,undefined,1496069643342
903d185fccf839df,-0.3091624979759182,-0.6679134287058105,1.8855565296830394,1.8284677277506332,-0.4069239471213191,-1.8906911311710262,1.8999630716262073,-0.7614368309440613,-0.37409067614758007,-0.5163644080088647,-0.014537064161516974,0.013494756702136993,-0.8783422459893049,-0.37437572393047697,-0.8897060663921559,-0.10996977381170799,-0.7687259011420348,-0.4413136006733512,-0.9301371606178764,0.0684926530212188,-0.5850234329899289,-0.5164773795542398,-0.5430837729416,-0.4575534057540654,undefined,1496069644830
903d185fccf839df,-0.31332060688138497,-0.5769260163130184,1.7375377672717227,1.7351315222161448,-0.3409103394993785,-1.867757440598856,1.8903958324839194,-0.7519492853814597,-0.3687592397770407,-0.5479047471920091,-0.031549812588658355,-0.06651174675902258,-0.8826941287878788,-0.3595623560372838,-0.913916654419522,-0.055413349626277836,-0.7037725261647706,-0.4038415719985264,-0.9356436513038888,0.20236673762353552,-0.5478119029489746,-0.4969213017057025,-0.542887455295731,-0.48641030214875036,undefined,1496069646335
903d185fccf839df,-0.142840764168389,-0.5810351212998682,1.3936495586530058,1.5186269559611294,-0.4208507776585582,-1.9087520512245761,1.8494918269857374,-1.1005739004601094,-0.3376008698070028,-0.5016200120501805,0.05205463439033148,0.15284275485408222,-0.6563962232620321,-0.2956798632166064,-0.941285081213642,0.005204839798676869,-0.681080101746162,-0.40154904708493044,-0.9304590149214017,0.1949754854921066,-0.546425796446528,-0.5000218292404143,-0.5423960256987778,-0.5066687475310423,undefined,1496069647837
903d185fccf839df,-0.1871931897112931,-0.6074508546713153,1.618867756327618,1.5623149145035033,-0.5911304897157764,-1.9199067783345103,1.8955818111993599,-0.8552008131174849,-0.3223464214974277,-0.6849414597636876,0.07273426449641644,0.00037186414894875634,0.4925008355614974,-0.31141904312984525,-0.9591798665495257,-0.045310379295682046,-0.6705667219662775,-0.40567812686642657,-0.8978748664974384,0.2088956828680117,-0.5372302499849472,-0.4766498615707835,-0.5455955853371522,-0.542287570451586,undefined,1496069649326
903d185fccf839df,0.1939607433413167,-0.6526510679826468,1.6845827428464701,1.5067857513002791,-0.3884405460562827,-1.9301531027361487,1.9170988861843898,-0.5933257542812992,-0.25193801809196964,-1.1250293877616402,0.0501085842819532,0.09144064806938634,0.2966661096256685,-0.37807904971530704,-0.9065481995405416,0.05774064730621063,-0.5715651965492495,-0.43227648976334293,-0.7876401095633044,0.23935381123210767,-0.49189044163004797,-0.4415532545892198,-0.5401846212677496,-0.4048317095461306,undefined,1496069650847
903d185fccf839df,-0.10264637852013218,-0.6737835640730283,1.7790085970894816,1.5958042377652724,-0.4545878632085434,-1.95141672790526,1.9429446244794735,-0.49078508919517666,-0.22277118818205208,-1.0446632412267467,-0.08141275483082187,-0.06943615482256149,-0.051484514260249546,-0.3762273609213429,-0.9202324423865367,0.10017348448314861,-0.5187277706492792,-0.4726490063545066,-0.7765431673599679,0.15515511127602888,-0.5251196629457098,-0.4002497462734774,-0.5030879142700376,-0.3785921390751889,undefined,1496069652330
903d185fccf839df,-0.07769807014142918,-0.5645987305804617,1.8383437296300085,1.6139486577098794,-0.46601526989157166,-1.891282759456796,1.9552310809269327,-0.33221524322534823,-0.30002090549726707,-0.8844494220181544,-0.0819438203048663,-0.16444417179325302,-0.13417028743315507,-0.3919665278838072,-0.9339166705080643,0.09613219459791277,-0.5777783065896869,-0.5221029641402937,-0.7702810220718873,0.16499471774119598,-0.5461527418196687,-0.382232587908647,-0.4913849432849155,-0.370526938652413,undefined,1496069653817
903d185fccf839df,-0.21907166809730405,-0.5193985172691302,1.4727631534193584,1.4702453451951842,-0.8254695252731873,-1.874134898886145,1.9483488852625708,-0.5704556826243947,-0.33786580556900736,-0.2779024667743799,-0.024844146381205443,-0.10973451478964648,-0.7086188168449198,-0.466033276694351,-0.9054955694397447,0.04359641535510054,-0.6245350508529743,-0.5517158083660653,-0.7892983539245888,0.0069142789974372815,-0.5962806899786925,-0.36362113674117447,-0.5213363864342759,-0.31145153692450867,undefined,1496069655318
903d185fccf839df,-0.46023818901930336,-0.5781000755372536,1.4561748723196448,1.3033884056420273,-0.9105836707331572,-1.8478820437572532,1.9228713294038549,-0.7233075366395958,-0.32391987586669996,-0.4391375778275133,0.09315782848234165,0.16925964780646727,-0.5824142156862745,-0.4401099249712803,-0.9002323894868255,0.03551401930531883,-0.6038196166397884,-0.5769399227839674,-0.7998705348595121,0.00791517715716963,-0.6108610450593616,-0.3510622095793803,-0.492488149744718,-0.29523490665773255,undefined,1496069656822
903d185fccf839df,-0.2869863197098759,-0.6866979671016796,1.409600210146616,1.3092658547282299,-0.7349451137777457,-1.8639654397044219,1.88148607196687,-0.982594095626221,-0.3362244479206412,-0.4047324167713471,0.10541530519665204,0.2050941196890732,0.5795384915329769,-0.49195666079435807,-0.948653514005921,-0.23524744254685326,-0.7452145414422456,-0.6022653650149379,-0.9561443071358506,-0.10010492061023848,-0.7048788976435277,-0.44730675361867195,-0.5570282223192348,-0.4462495615858676,undefined,1496069658323
903d185fccf839df,-0.04166168988240988,-0.6015806462341168,1.2877400180763994,1.3786410967299343,-0.5316997399215091,-1.873920608740382,1.8789561916071462,-0.9023544747778687,-0.4095601721880088,-0.40053460589355117,0.006592907174730543,0.24901231862936077,0.10953514928698754,-0.4743658179887042,-0.9486534992814535,0.02945223993343351,-0.7332874132944581,-0.5651986459369226,-0.9790868501411675,0.039404993665725724,-0.671581126131894,-0.4563777430429668,-0.5537340141332245,-0.43219958858950863,undefined,1496069659827
903d185fccf839df,0.11495791633219933,-0.5516843713937988,1.2335087178911424,1.3389381754322474,-0.36293202020961246,-1.8731309971674148,1.8735177569968047,-0.8405814630616485,-0.4896245359335342,-0.3677125541926946,-0.06073240580773841,0.11692890730363406,-0.8739903631907309,-0.54565501418214,-0.9518114411194805,0.02743156672609405,-0.7854162833938989,-0.564305700751067,-0.97797435753598,0.04048288413346343,-0.6671113633826234,-0.47203403439494424,-0.5781808314333314,-0.4452194317219212,undefined,1496069661324
903d185fccf839df,0.17317047485726092,-0.5651857163505908,1.2826359315841798,1.4234916565879776,-0.3443560462488073,-1.8781272158537385,1.9072502732605578,-0.6132510915545146,-0.36108910969823554,-0.35336649104469753,-0.0444624237173118,0.022798950340478904,-0.8565828319964349,-0.47899490399048184,-0.9791798605513666,-0.043289649558899516,-0.7690948550597818,-0.5535460290777581,-0.9745179331097109,0.08130415996908691,-0.6554659331031297,-0.46971302927098907,-0.577617792849469,-0.41065778767158195,undefined,1496069662848
903d185fccf839df,0.13159007591078836,-0.6004066746938587,1.3853552910346743,1.5036362235266276,-0.4016782351780192,-1.8813555414631469,1.9315496876427782,-0.4763855994510243,-0.23159860921216233,-0.7204699650017776,-0.00735740053656608,0.041030768388480195,-0.9784355503565063,-0.5049182751397143,-0.992864096035128,-0.0917843650342482,-0.8070625010370981,-0.5566681709308189,-0.9814657656006722,0.08920356185030351,-0.657261308237439,-0.49173768539728335,-0.6164877709928063,-0.42206162748371806,undefined,1496069664315
903d185fccf839df,0.14129216899829863,-0.6356275453531496,1.6635285131345392,1.69810297379897,-0.18254145855112805,-1.8953379637590306,1.929945509101237,-0.47109101751365057,-0.19444547783445307,-0.16145002005923742,0.1047999596069393,0.014103973138070774,-1.0393619095365418,-0.5410257727710678,-0.9760219481622748,-0.1301758840612288,-0.8491695600832982,-0.5454461937378805,-0.9504349095950573,0.10198427197459062,-0.6476630582410873,-0.4999513091940593,-0.593314492800944,-0.4305329355222739,undefined,1496069665814
903d185fccf839df,0.038727184930332954,-0.6338665295867777,1.697342959077019,1.8235904415074342,-0.1575780777863139,-1.8866056459222196,1.9621369594877716,-0.24553203855006747,-0.16141251483116414,-0.017455888350366187,0.07612151082827823,0.037570720433090864,-0.9436204879679144,-0.5975016787759577,-0.943390363501937,-0.32011297557712154,-0.8063433877906134,-0.5869839722702009,-0.9350699133380684,0.0451332133254733,-0.6716418812794179,-0.5139702169179781,-0.5971831727729116,-0.39235241163016943,undefined,1496069667314
903d185fccf839df,-0.12066462040775644,-0.5158764272804018,1.3604732505905281,1.502852330551486,-0.17227633517132615,-1.8784183695192087,1.8803315777711112,-0.8059963124239645,-0.20289922011999617,0.09680976713649372,0.06666901404833318,-0.027150140300376862,-0.7434338792335116,-0.6558292088209391,-0.9623377568519162,-0.3968961266899689,-0.8967492940818296,-0.62251178532038,-0.9551577584232602,-0.05407897209849334,-0.7135901715653074,-0.4924125000000895,-0.6166385565713782,-0.3979115350325603,undefined,1496069668815
903d185fccf839df,0.006848775555141449,-0.49239576889956166,1.117390496056198,1.1259206827972617,-0.4041262341699812,-1.8634716417621928,1.8998263276074676,-0.7318581095138595,-0.29986479144413963,-0.3780718569295226,0.05279698417941424,-0.02964385614498796,-0.6433405748663101,-0.626202524837651,-0.9833904030412552,-0.37264878308465527,-0.8982265401547296,-0.6235820529070558,-0.9508337283900316,-0.03449214912733462,-0.707667709641943,-0.4868517766834284,-0.606295218557285,-0.4221672286869536,undefined,1496069670316
903d185fccf839df,-0.1774911656346023,-0.5070711730805887,0.6682306306039271,0.6073872204448104,-0.5653236787690199,-1.8669119280955773,1.8565265732489484,-1.1005098074327413,-0.3582648544704374,-0.9107869440342033,-0.0022666327823892525,-0.05753093525871766,-0.5258397393048129,-0.6549033838501189,-0.9676009220803679,-0.08370189832266264,-0.8728158192454205,-0.6644612037577344,-0.9654500664154003,0.18864672410404967,-0.6781059881693444,-0.46956970782937146,-0.6801111761522688,-0.4947497668688531,undefined,1496069671832
903d185fccf839df,-0.346584926038563,-0.5857312705128316,0.7148055469139053,0.6225308700733035,-0.6180687380955665,-1.870932196008534,1.9226004486481207,-0.7017482185413331,-0.36907464724271344,-1.0855304428292485,0.02106948709479355,-0.18411314439830853,-0.6563962232620321,-0.6604583854781386,-0.9918114732965649,-0.08370189832266264,-0.7927030874186464,-0.7044220775371145,-0.9787020261913586,0.2470530272106338,-0.6863921834179236,-0.46057217275360646,-0.6857792836192822,-0.4990569854086503,undefined,1496069673345
903d185fccf839df,-0.45469403231021116,-0.5211595622634944,0.6656785873578174,0.5991374924009025,-0.7656479156185796,-1.864969343592696,1.908178592835703,-0.8317577367208561,-0.36150712676876545,-1.1820883187129343,0.021346010178495474,-0.12528247576490623,-0.3343568961675579,-0.6447192185156743,-1.0286536225334928,-0.08370189832266264,-0.8475253404175597,-0.711229991159811,-1.0004481146040516,0.1873378561603415,-0.7035668887380774,-0.45065663526806077,-0.7068449798547715,-0.531003721960284,undefined,1496069674824
903d185fccf839df,-0.5628032420980885,-0.4348682552416772,0.5253162088217794,0.39473394298674147,-0.9412556228427927,-1.8980887957034311,1.9007599156934754,-0.9542849813624523,-0.3927042999044184,-1.0322938489475195,0.09209394824068481,-0.0367698879439664,-0.5954698640819964,-0.6956400710894464,-1.0223378272042443,0.16685349567707095,-0.8175595428908072,-0.7106093626406699,-0.9920099599955509,0.3938772076911562,-0.6582452997012506,-0.44611174039482393,-0.7238434889419215,-0.535577801983902,undefined,1496069676318
903d185fccf839df,-0.30916253248132797,-0.40375641649925514,-0.00040520815073420496,-0.07538354124941571,-0.851214630699969,-1.9333814278377148,1.907021483501786,-0.9238341766489033,-0.5645120017692128,-0.755589790494706,0.09634769808620355,0.03275267611005055,-0.7303782308377896,-0.7669292931844313,-1.0054956977369756,0.36689372711188867,-0.7379210912374515,-0.7519698188275367,-1.004114442952895,0.5416714857787704,-0.6468805725300079,-0.40646426494844756,-0.7082467461306265,-0.5259356463132776,undefined,1496069677814
903d185fccf839df,-0.0943302297200182,-0.5375959529829009,-0.13311196522234164,-0.16911439097146388,-0.7482650861711894,-1.951999037116713,1.957526906683348,-0.5998120118929164,-0.5476508761943247,-0.8160978916462454,0.1725104012073939,0.07330842603806587,-0.5998217468805704,-0.7669293061352058,-0.9718114572080228,0.34264635524185355,-0.7265679903184394,-0.743363347871661,-0.9692493348437773,0.47223989457488663,-0.6501258460988796,-0.4225489007057047,-0.6640014699106243,-0.4792626102613536,undefined,1496069679318
903d185fccf839df,-0.1719470434309198,-0.6720225775346488,0.03659916478090819,-0.042473017684701596,-0.6785897701074768,-1.9775950474054562,1.9127938984381627,-0.9188059363243172,-0.4626313351383603,-0.787133486360584,0.09726421715604992,0.11752882480770385,-0.5084322081105169,-0.7511901003204179,-0.9707588197449921,0.40528516134470466,-0.7337037095291585,-0.7363021162582556,-0.9814167891357137,0.4376241884577451,-0.6590428710699031,-0.4240016489085096,-0.6495453594368316,-0.4766415162297065,undefined,1496069680824
903d185fccf839df,-0.4297457929423276,-0.726028001203805,0.5827369277223,0.5234949766221597,-0.9048133880468447,-1.9770197254998558,1.9142113609337847,-0.9570063738060194,-0.32926806567264677,-0.9595867926750324,0.09326126563664952,0.014040213848485429,-0.6520443404634582,-0.7178600646507506,-0.9349693079710949,0.3729554075572486,-0.7475864837969932,-0.7015089238773741,-0.9592578884653369,0.5047922058520452,-0.6292683749898196,-0.40658795837189476,-0.6002707368838222,-0.464302830102726,undefined,1496069682321
903d185fccf839df,0.0054627967623354316,-0.770054126062909,1.142273044774243,1.1091329356931514,-0.5945659098579298,-1.996343094141813,1.917548586243,-0.8889201536970144,-0.1817413662466594,-0.45912391854225365,0.09007501339241371,0.09013342482430493,-0.8174158868092692,-0.6086116949827717,-0.9370745755349222,0.1062353627815593,-0.7656479560209308,-0.6575392949618619,-0.936329339846406,0.23539640252694075,-0.6520289304230207,-0.4332014279280727,-0.6110738271807868,-0.46754146537828684,undefined,1496069683859
903d185fccf839df,0.060903397701784996,-0.7571398253322308,1.0236030338301383,1.0159892056002728,-0.5643568205306964,-2.010607354747744,1.9564644577038606,-0.6346320222592184,-0.19132371643127777,-0.3447636459393374,0.16628884431625932,-0.09791567707011517,-0.843527183600713,-0.6437933805940795,-0.9297061353804094,-0.027124857459336103,-0.8086898061982934,-0.637748846003232,-0.9381834944840428,0.12840800625860385,-0.6698581471823168,-0.44456679492804285,-0.5969287900337024,-0.4583571893475001,undefined,1496069685326
903d185fccf839df,0.09000974597513527,-0.7453994669138183,0.792004982177201,0.8033669170355866,-0.517176330027713,-1.9885797385973658,1.9538504299184312,-0.635994743704216,-0.17718374724176106,-0.05154510523169954,0.17383388456059706,-0.3605705982810047,-0.2864861853832442,-0.6576809105656778,-0.988653568269707,-0.21504136056205397,-0.9361649436474357,-0.6901222902761668,-0.9831310069196427,-0.12377233430366279,-0.7577541423371754,-0.4559582616501934,-0.5890982591502071,-0.46076687806033445,undefined,1496069686823
903d185fccf839df,-0.11096249281483643,-0.7653579914639417,0.5182984711004016,0.5831315712942168,-0.6714515019182267,-1.9935503355530804,1.937340507013313,-0.7923355723936026,-0.2068002756999954,-0.11385842382343907,0.1392321930926248,-0.2829006205636579,1.7197317847593583,-0.6789750532546127,-1.017074654613559,-0.18473226584957664,-0.9119217921380248,-0.7043777462503629,-0.9720900390075736,-0.16707276314094205,-0.7693016018004322,-0.4597443517949713,-0.5697594047292383,-0.45649086555586404,undefined,1496069688344
903d185fccf839df,-0.38955133828325134,-0.6960901778436295,0.42004455198822566,0.40433862701279394,-0.8095369877864815,-1.968629804222997,1.9154578919656402,-0.9578370098622787,-0.2002369682008583,-0.3453590167964378,0.13545722938155974,-0.3187668226775254,0.11388703208556152,-0.703972599433025,-1.0581273463403753,-0.235247456679214,-0.9540608552896531,-0.7184178827873174,-0.988525548013805,-0.2622967512481697,-0.7967600736902409,-0.4746153090156432,-0.6104328895026933,-0.4913519338693416,undefined,1496069689925
903d185fccf839df,-0.5822073937676993,-0.6632173379488318,0.4404608979571039,0.4163666781630367,-0.7937998700733006,-1.9259185446402807,1.9245201999389736,-0.868199273460567,-0.1675867140302143,-0.3913218692621813,0.0980723715596395,-0.14539982066561677,-0.6259330436720143,-0.7419317599567935,-1.093916850752039,-0.24535046940689212,-0.9919055866969003,-0.7892201936929828,-1.020696884761205,-0.2940175494733238,-0.8479748683151458,-0.4896261975613059,-0.625107457060802,-0.48359038841041235,undefined,1496069691320
903d185fccf839df,-0.5212228086462062,-0.6485419337678048,0.30073640316411876,0.284777441136006,-0.8742443017138876,-1.9074173980479234,1.899828946411952,-1.024676016551986,-0.2608193159299785,-0.5265222826895306,0.09751118540570443,-0.014322156256746304,-0.5824142156862745,-0.8030367843403975,-1.0981273858796936,-0.11805215572912893,-0.995327650323955,-0.8402257228347576,-1.036334756018444,-0.18321033874777032,-0.8510660460389192,-0.4877371708171294,-0.6658154564887034,-0.5161129138574005,undefined,1496069692808
903d185fccf839df,-0.2842143276188541,-0.6966771636137585,0.260541594969415,0.18590988018118723,-0.9157573745850487,-1.9169882424865428,1.8930046121851607,-1.0827216870129805,-0.2789764389939496,-0.6174885945287676,0.08168092201992655,-0.08819774642673966,-0.5824142156862745,-0.7780392705389215,-1.0233904793917425,0.2375747260944253,-0.8637516298425337,-0.8399724045616787,-0.9867763454597964,0.17839135410574825,-0.7562617030565786,-0.4738831668921871,-0.6544329138765534,-0.35643962363345966,undefined,1496069694317
903d185fccf839df,-0.28975831180089767,-0.5082452323048238,-0.08207059202624718,-0.17203958898040833,-1.0636554145437724,-1.8175367134040177,1.8861907846019625,-1.0115445426638843,-0.3320480252652031,-0.5080917951933187,0.03165452434481307,-0.16686631232550367,-0.7173225824420678,-0.7613742656548624,-1.0065483388811232,0.8781074289125086,-0.6528351603636571,-0.8226834686878185,-0.9525199593464143,0.68550835622474,-0.6301433741170601,-0.48635249451935286,-0.6627107323678444,-0.16368917377043343,undefined,1496069695822
903d185fccf839df,-0.5628032075926788,-0.24526219163852653,-0.27857843025059914,-0.29879103716017036,-1.1711512357111766,-1.6476280292559458,1.8915871454994513,-0.7167182858999832,-0.4483646437568749,-0.5470561174018874,-0.0066861656515696056,0.006264157248823962,-0.8304715352049912,-0.7919267875597453,-0.9749693401481794,0.718479502770897,-0.6422476549119159,-0.8546458351729291,-0.954758938826951,0.6378039719494358,-0.6521380989506881,-0.48036335959167514,-0.6325755029316041,-0.16436882027142827,undefined,1496069697347
903d185fccf839df,-0.5336969800882626,-0.44895668826657137,-0.3659857843613844,-0.34705321893053864,-1.1944894826735615,-1.5240455847431598,1.867482338668584,-0.6746003353877676,-0.38495442732378976,-0.5380280634564051,-0.012870732532484696,-0.008762531188759396,-0.7129706996434938,-0.8048884666589743,-0.9676008999936665,0.5346040917003643,-0.7562514107235405,-0.8419166182041979,-0.9539403124315103,0.6691244100141072,-0.6406144664384258,-0.4741793171748269,-0.6668876651409357,-0.1820669997800014,undefined,1496069698816
903d185fccf839df,-0.5586452194561461,-0.40082128305266357,-0.1401297029437194,-0.22006242183493002,-1.2814139091958807,-1.500832388425827,1.8516456433551163,-0.7429199472197391,-0.3138864586952972,-0.5943367742872444,-0.010088660690061287,-0.07704265132905756,-0.673803754456328,-0.7789651214112909,-0.9328640404072674,1.3165794390738461,-0.39593411591102246,-0.8171864735204756,-0.9182985586209349,0.8928792252905084,-0.5715453496812213,-0.460082853864119,-0.5637380201896284,-0.07334170174675417,undefined,1496069700330
903d185fccf839df,-0.42420170524405487,-0.2018230233215592,0.03915120802701797,0.061439058410018066,-1.098554789746638,-1.6849191519235927,1.9003943546803967,-0.6451890376963543,-0.2349797625715542,-0.5356474551699932,0.0009439596947946262,-0.0893295118321019,-0.6346368092691622,-0.7298959252545466,-0.8844429158881718,2.183420065095103,0.029219942103357655,-0.7547879808402258,-0.8365408250562272,1.4078340424016338,-0.408070929890948,-0.4035342561368591,-0.4281537308619449,0.48520151162237396,undefined,1496069701822
903d185fccf839df,-0.5475570958177153,-0.32157419985029156,0.27776750567523184,0.247423082838461,-1.1223867465979394,-1.8507423495050044,1.9063850501131478,-0.8495221832588316,-0.20481379036910033,-0.6015182279671059,0.04374801123553443,-0.04004402461662562,-0.8783422459893049,-0.7234150662787703,-0.9202324350243029,1.0579415500978055,-0.4418427648030796,-0.7326416765678461,-0.8490371296734646,0.9486370045039076,-0.5128590702613003,-0.3776806482130629,-0.3493847899143603,0.32808898277508464,undefined,1496069703318
903d185fccf839df,-0.38123536201018604,-0.42430198527549223,0.0506356567714614,0.11830776381763984,-0.8485712059629267,-1.918108605974536,1.9400044942556605,-0.6560690814334599,-0.06155210982419597,-0.4605629289880819,0.12310385378260764,0.06925640659295584,-0.8304715352049912,-0.6058341876933746,-0.8191797023940934,1.1044155923658148,-0.4247718615123561,-0.6646131961611149,-0.7864996346388446,1.326083702460388,-0.3868779040039565,-0.3779962878381186,-0.3786059974504883,0.27751656761021165,undefined,1496069704824
903d185fccf839df,-0.6515081621947161,-0.34270676901065383,0.27904378143523617,0.3805517973676127,-0.9442796134869863,-1.8513805610969063,1.9260954558800234,-0.706855180437629,-0.13770486261609374,-0.44972430827401794,0.06910233385603647,-0.0007945253310298768,-0.7782489416221035,-0.5326933221321365,-0.7865480735603528,1.0640034001314946,-0.4239246342583764,-0.6126070625882488,-0.7659989786417222,1.36276279914996,-0.34865918709561705,-0.39012207136730614,-0.4358708419919661,0.22148332110529456,undefined,1496069706323
903d185fccf839df,-0.6362620504197526,-0.4542397940216715,0.35624296256158233,0.35644751521261864,-1.0366348887898107,-1.7852837392096703,1.892239334663392,-0.8741263721990725,-0.18920450360092894,-0.3782077273266234,0.04687675671408375,0.017162933019442238,-0.852230949197861,-0.5650975328309835,-0.786548066198119,1.01752944265765,-0.4741930736423491,-0.608534980578819,-0.7631232892062473,1.5719044788068266,-0.29848112896585083,-0.3918875047122125,-0.5058655655018784,0.045471444067973474,undefined,1496069707818
903d185fccf839df,-0.7859515901432831,-0.6256483196130783,0.2043966435549998,0.15877149388403516,-1.4304330832800127,-1.7434575887810582,1.914584805595884,-0.8013458991466431,-0.2937833264058617,-0.5511452439419942,-0.026655379311436782,0.001464280808653585,-0.8348234180035651,-0.6447192185156743,-0.8328639084289196,0.8902310724504439,-0.5267849683217878,-0.6873167982756486,-0.8648009432389819,1.2804427031033443,-0.4169789011289615,-0.41498951196193035,-0.6313981270546768,-0.4996706454531669,undefined,1496069709369
903d185fccf839df,-0.763775377371831,-0.5827961662942324,0.17058168933862108,0.17776463425972308,-1.3270618292317131,-1.7577730939862097,1.8778490364925384,-1.0362010366510792,-0.3599167130079917,-0.7115332568198204,-0.009897370416769326,0.04201094632395814,-0.7826008244206774,-0.6530517209577038,-0.8791797432974864,1.2822290968732153,-0.397440704296085,-0.6804328896720967,-0.8992042625337008,1.1031296027392952,-0.4617702376749594,-0.42767874170347653,-0.5623052552379794,-0.4350469211965157,undefined,1496069710820
903d185fccf839df,-0.7318970025020493,-0.5992326446976158,0.17058168933862108,0.10256460701783246,-1.3163029900534553,-1.7359015380956597,1.8768181598199198,-1.0020557741647291,-0.38015237515609235,-0.7318715902860092,-0.059812072036857684,0.019333129983131796,-0.9131573083778967,-0.6974917339818614,-1.0191799442640876,1.0559210464787954,-0.3187885227254339,-0.739772572233776,-0.9613919167063996,0.7742342051058299,-0.5707931124443639,-0.4415564759282975,-0.5361881472573428,-0.46511879140065304,undefined,1496069712312
903d185fccf839df,-0.6806144414572469,-0.3532730974328235,0.5131936221973338,0.4709595081892924,-1.2854767579236583,-1.7943631138303806,1.8771021681187754,-1.0471696840986555,-0.38514068207361396,-0.7806941223779531,-0.06857403302159967,-0.06853407253251793,-0.9827874331550802,-0.7132309138951003,-1.0223378198420106,1.169074916220037,-0.3100982793252209,-0.770936987372602,-0.9924577563259697,0.7058805066448144,-0.6070827325780102,-0.44979219371433365,-0.5476628227509869,-0.4034085999698816,undefined,1496069713826
903d185fccf839df,-0.6709123483697367,-0.3914291599946907,0.6956652225680819,0.6317809742294221,-1.3403098111263307,-1.8323413591212654,1.8934069653062071,-0.9971395773362763,-0.37440789835956034,-0.7601061800849308,-0.06724188641459698,-0.018327546527038895,-0.8957497771836007,-0.7113792639534597,-1.0339167914430614,0.8619426933423883,-0.520777239894524,-0.7827542595548488,-1.0202910697120067,0.48880862307323636,-0.6719767269200748,-0.4607998752638081,-0.5396126501835006,-0.3670506059372938,undefined,1496069715318
903d185fccf839df,-0.7124928163270287,-0.5141153530580453,0.5068140223559582,0.4590960622507418,-1.3896091539168993,-1.889857264221898,1.9195998329446435,-0.9194916703567503,-0.370522002915377,-0.7369064290765318,-0.02550373512398421,-0.03095035524935401,-0.9392686051693405,-0.7187859219985072,-1.0665483945089838,-0.18069106075850538,-0.9708939923741994,-0.7771686035857357,-1.0515528202685718,-0.22186043322351273,-0.8385753218034958,-0.46050923561589235,-0.49453738470037406,-0.4459271774947467,undefined,1496069716816
903d185fccf839df,-0.7568452763753425,-0.4583488551665327,0.20248197577804392,0.10340072894479416,-1.3978582815893987,-1.8514108424321747,1.8853308331079806,-1.1070369676634744,-0.37081888238319144,-0.7702515243122001,-0.012749074702631218,0.04508763817880981,-0.8565828319964349,-0.7613742850810242,-1.0612852292805321,0.07188494991912457,-0.8855826252812312,-0.783982849864203,-1.0715217180946484,-0.041991192517394686,-0.8030436933849017,-0.4548916573436971,-0.532959214143502,-0.501384789081505,undefined,1496069718323
903d185fccf839df,-0.7485291620806382,-0.74833460036041,-0.21541523284090736,-0.16222396309629478,-1.339898376771106,-1.8395736490541041,1.901943325157072,-0.9956446129437398,-0.3326083611460881,-0.6660357417834246,0.02907832338477578,-0.005546063232401979,-0.7913045900178254,-0.7919268134612945,-1.01917992953962,0.8356746765297351,-0.5180108580903291,-0.7826782634943436,-1.0297297670279917,0.6708490382465333,-0.6339891801987713,-0.4655581200262651,-0.6308174139684312,-0.2812054625866209,undefined,1496069719807
903d185fccf839df,-0.7928816911397716,-0.7272020312000477,-0.4100084032883034,-0.4125322125589935,-1.353619496620423,-1.7681917826127622,1.9065139267194542,-0.8931913540820938,-0.3250494788644322,-0.6752743043533457,0.021602183397491904,0.05801698293296306,-0.5998217468805704,-0.8141468199733732,-1.0149693944119653,1.4317539113606235,-0.40199826244226344,-0.8151282672959399,-1.0246220950390807,0.9616948790938722,-0.5680135608665614,-0.48032692585899966,-0.7175160500113904,-0.24484872751991635,undefined,1496069721357
903d185fccf839df,-0.7970396965290091,-0.7835555294756855,-0.5446288115890691,-0.580022736996892,-1.4011702733670908,-1.7476874893933365,1.9291092179820142,-0.7411890566161123,-0.2943510150332265,-0.6400317922405492,0.014731885048995913,0.02129829639017827,-0.7956564728163993,-0.8632160096547302,-1.0128641636593068,1.8358754945271654,-0.36899660830184067,-0.8678373573623098,-0.9925557104487137,1.3715553023184948,-0.48827453519012975,-0.4972865295750137,-0.7798531363573119,-0.11359825019321501,undefined,1496069722826
903d185fccf839df,-0.8413922083354375,-0.7571397961042384,-0.3634337411152746,-0.3970121884659604,-1.4632444562925868,-1.7854514436958293,1.9612244009255377,-0.5768405819060951,-0.3277090264403933,-0.5914188116552319,0.018818732653912113,0.006491983210870684,-0.8739903631907309,-0.8474768103153296,-1.0086535769960154,1.8257727785790634,-0.2731070737324052,-0.8445447907770856,-0.9825992491278547,1.4437894107955371,-0.46067833227754496,-0.5007682211982499,-0.752150145264953,-0.14283915809527556,undefined,1496069724322
903d185fccf839df,-0.7901095955325206,-0.5974715412472671,-0.0718629273157069,-0.11497305048546828,-1.4219988108682495,-1.83764969400175,1.9624183411257292,-0.6123659380547076,-0.37700565232919414,-0.6600717163883971,0.015990941718255495,-0.025620986992652695,-0.7869527072192514,-0.8169243143119957,-0.9749693106992442,1.6075469122490136,-0.44269645689978504,-0.8305363200658511,-0.961930670385388,1.280365705827747,-0.4860939156267868,-0.4899351475552561,-0.8146646487193723,-0.12913510786889737,undefined,1496069725817
903d185fccf839df,-0.8538663280193792,-0.44954364480870806,0.6822671225944803,0.7570737706879336,-1.4605187471795493,-1.8514667418122301,1.9357073985386282,-0.7827220325264429,-0.42086821032740607,-0.6999556078227847,-0.01691603480720487,0.041794270618077584,-0.8391753008021391,-0.750264262398823,-1.033916773037477,0.22747174163146872,-0.7364019562143926,-0.8015821016669383,-0.9948296750663538,0.6981042936330122,-0.6161281147567401,-0.47218039183152927,-0.782046481965911,-0.2719682337118061,undefined,1496069727311
903d185fccf839df,-0.941185252070496,-0.49239576889956166,0.7492581307363874,0.7657886721130188,-1.5351003358793478,-1.8476491198354674,1.9470444964594718,-0.7059016441539794,-0.3987272785741945,-0.8421463334455788,-0.058636519671338004,-0.033568596165542836,-0.8696384803921569,-0.6771233968375849,-1.0581273389781416,-0.010959895771443472,-0.8457628926078953,-0.7586637434947329,-1.0334100904483317,0.2432496151567824,-0.7174240019507965,-0.4671943683991218,-0.6851750661723539,-0.449235071461384,undefined,1496069728825
903d185fccf839df,-0.8843586378328306,-0.4736112889596773,0.613999838692569,0.652099212946439,-1.470557589501619,-1.847111064954137,1.914093029729378,-0.9064987135074395,-0.405686650337608,-0.9105404170943822,-0.048833887684979704,0.023144452086034006,-0.6259330436720143,-0.6308316950194632,-1.05286417374969,-0.08370184179321957,-0.8937671186638845,-0.7080951872839882,-1.0425409290216532,-0.09811852357088327,-0.7634275240943509,-0.4406192917713599,-0.7070908823930053,-0.5787068405240252,undefined,1496069730314
903d185fccf839df,-0.8829726245346149,-0.47067618474107803,0.564872879136481,0.46299780597009516,-1.4210319606840238,-1.8676968807420657,1.9143244576717875,-0.9155581243830614,-0.43505019833127934,-0.9075501810237148,-0.044559156514917965,-0.03573769176979452,-0.669451871657754,-0.6262025442638128,-1.0097062328646305,-0.09986669042222605,-0.9535173011548866,-0.6893623401575594,-1.0305623878404033,-0.041267462538937025,-0.7421095185821679,-0.4427632645432595,-0.6940403454653326,-0.5779769080903909,undefined,1496069731820
903d185fccf839df,-0.8095138334656556,-0.49474385812003957,0.697579382071139,0.5960745900795995,-1.334745246293807,-1.8783321868051326,1.9071109010096372,-0.9640674711316254,-0.45238698722262766,-0.929200298926707,-0.035117555447614836,0.033481661881038294,-0.6650999888591801,-0.5521358343055927,-0.9802325201010986,-0.182711663304041,-0.8991423906155603,-0.6583499146593177,-1.0079486950992167,-0.002324793009067651,-0.7183780796093531,-0.4397349844849113,-0.6131656098244422,-0.5746299468472366,undefined,1496069733354
903d185fccf839df,-0.7998117576308503,-0.5810351212998682,0.48065545201485826,0.3835059341273127,-1.3423052313824995,-1.890218296007558,1.8966337545827756,-1.0656363637458215,-0.4120065679677122,-0.7341766287577056,-0.03744690528138037,0.029298054589725248,-0.8087121212121212,-0.5243608067393324,-0.9749693291048287,-0.019042475541915165,-0.8331711530761056,-0.6469759477648916,-1.0022812786316637,0.08507678184973838,-0.6955631487816423,-0.4427746738548599,-0.5650779509995482,-0.5506377324320393,undefined,1496069734818
903d185fccf839df,-0.8150578694058138,-0.56812082056919,0.3530530355724198,0.34199136010820275,-1.4016125592479813,-1.8718219653544197,1.935205120218616,-0.8109174399375554,-0.3606678541951132,-0.738976323158461,-0.03441572059990369,0.00026456427024467257,-0.9131573083778967,-0.5697266512096975,-1.0139167643111684,-0.20493836196673665,-0.8375447955172055,-0.6642268852181642,-1.001364696731023,-0.004434383239238613,-0.7304237303999449,-0.4385582929295071,-0.5341924912848764,-0.5107277661508681,undefined,1496069736322
903d185fccf839df,-0.8039697285146781,-0.44660859904609346,0.18015197858000748,0.06319904156109316,-1.3365349530513218,-1.832106105482319,1.9236287002311239,-0.8268184241129625,-0.3681382873448318,-0.6910166319379053,-0.032840996029798855,0.011800450694821895,-0.9305648395721926,-0.6428675556232593,-1.024443087405838,-0.22312382727363952,-0.8668355885871413,-0.7041244317145333,-1.006381410441571,-0.0950850335604869,-0.7744732327310202,-0.4404215200523404,-0.5047979278832239,-0.4831961491292879,undefined,1496069737816
903d185fccf839df,-0.8192159438058708,-0.5358349079885367,-0.1949988868720291,-0.19523575628706666,-1.336113242531541,-1.794703181985137,1.9200758226577157,-0.8146529275603841,-0.36752844791943173,-0.6961756564353808,-0.03340805441530684,0.008458521292944327,-0.8174158868092692,-0.7354509204071791,-0.9433903414152356,0.8417364700339813,-0.511210094905139,-0.759487024843994,-0.9477131516627099,0.8986228435303251,-0.5494294799096592,-0.4835602343251709,-0.752872905170084,-0.1513556234500973,undefined,1496069739323
903d185fccf839df,-0.8621823905559689,-0.5810351505278605,-0.12035124071789388,-0.17781369554512041,-1.2849521855362176,-1.8202363021350052,1.9308369815735198,-0.7764800829378765,-0.35890889107932944,-0.6646412887334637,-0.017124104324936353,-0.051622936829503176,-0.7651932932263815,-0.8715485056213725,-0.9507587815697485,1.1327040845327565,-0.4907502351386442,-0.8388388089832987,-0.9603633854769427,1.259146650170196,-0.5018520569180054,-0.4801820930841676,-0.8316431127841152,-0.16253370217129265,undefined,1496069740813
903d185fccf839df,-0.8192159093004611,-0.6596952187321111,-0.1369397759545569,-0.19329692982242436,-1.4496981970559037,-1.872909719167637,1.9212986859821588,-0.9312937026918466,-0.335547638832734,-0.6932970125324459,0.00490611528949984,-0.021083928884201478,-0.8261196524064172,-0.873400155563013,-0.988653568269707,1.156951371608627,-0.5258172570910203,-0.857166347902621,-0.9785410992598104,1.1836326728669437,-0.5261509653513536,-0.48495841576675863,-0.8342798544638056,-0.15703171375163502,undefined,1496069742337
903d185fccf839df,-0.7831795290414418,-0.6591081891199936,0.002784718838428309,-0.041744278213967534,-1.3947622894955272,-1.9431782080731956,1.9365673531751753,-0.8984284720236074,-0.3467664353829385,-0.6683491572995882,0.0758062506342648,-0.05900329249159995,-0.7564895276292335,-0.8511801490509342,-0.9707588050205245,2.1793789165334747,-0.13955839716605956,-0.8591232274601784,-0.9638338023749575,1.7793061366187903,-0.37567030665672674,-0.4901212353821099,-0.8513106495709727,-0.21855419866173553,undefined,1496069743859
903d185fccf839df,-0.7138788296252444,-0.7125266416330168,0.003423110855379889,-0.04542544205425162,-1.3464297989577232,-1.9936761146352933,1.9346397046175186,-0.9362451867994009,-0.3577997488922526,-0.674379550488276,0.0804372226587841,0.048370740984035716,-0.9001016599821747,-0.8511801555263215,-0.9612851193888856,2.579459266344224,-0.0031185950592381778,-0.8816685068188139,-0.9543531239245618,2.2273085147064866,-0.2820465328914961,-0.48849991904400075,-0.7927714764001412,-0.23697434122798156,undefined,1496069745327
903d185fccf839df,-0.6057696888481866,-0.7565528103341094,0.1903601515644466,0.11059886978613934,-1.249805960070113,-2.0042252390883095,1.9756331229097028,-0.6643626221852974,-0.2893789962531654,-0.6278559939047396,0.176582185809808,0.05038681821335951,-0.7390819964349377,-0.8030368231927211,-1.0518115362866594,1.53480482490363,-0.42867275196845966,-0.8565647179819721,-1.0155752187345808,1.682449923996792,-0.4111877882134196,-0.4700682351289147,-0.8105665485493394,-0.2957959999262033,undefined,1496069746820
903d185fccf839df,-0.5253808312881486,-0.8164283839844795,0.4774652708887463,0.4689965615210498,-1.3298595362214982,-2.0266092272389304,1.9493219073065111,-0.8727507719271517,-0.24263038634216613,-0.386902068053023,0.22824808569621133,-0.03449294750437338,-0.5650066844919787,-0.7484125930310207,-1.087601066466141,0.6255313899701571,-0.7654015746635466,-0.8089789795665422,-1.0577519951763215,0.9313137519229059,-0.583689615698766,-0.4742197675260211,-0.724990908352668,-0.42234158597281835,undefined,1496069748315
903d185fccf839df,-0.6321039760196956,-0.7976438602026065,1.3528171208521986,1.3339801062623873,-1.4324285033441313,-2.0083829304520604,2.0233772482643495,-0.3789475246440678,-0.2311323462665773,-0.25394013389637254,0.24537500707284152,-0.1683059840985925,0.0660163213012478,-0.7234150792295448,-1.079180007254182,0.766974020393195,-0.7442497330840699,-0.7932289485135251,-1.0472987604850816,0.8978221320540971,-0.5779013029993952,-0.47538154520433085,-0.7222599678069398,-0.4383887516310146,undefined,1496069749828
903d185fccf839df,-0.6820004547554627,-0.7536177061155102,1.6820306996003604,1.7050107583329506,-1.402713125362194,-2.026378632253741,1.935978276151797,-0.9588986260361572,-0.290568196448711,-0.32189089763444684,0.2328385392261211,-0.3123783381029463,0.9755598262032086,-0.676197578342152,-1.0918115905504453,0.6619024053781274,-0.7737645752523542,-0.7595693539035433,-1.0697095461635069,0.8818539444090063,-0.5702183646824535,-0.4885789070327353,-0.7744542880542591,-0.4172754142475462,undefined,1496069751319
903d185fccf839df,-0.8635683866014797,-0.7817944698673253,1.6871350402295293,1.6831402165195832,-1.3632880506922855,-2.0090258009079234,1.9088597166466355,-1.1081457821804963,-0.3536225933749788,-0.5297787006229285,0.12278207878071797,-0.29545775628275733,0.3184255236185384,-0.6197216852880366,-1.1054958223530897,-0.16250555305452022,-0.8897445882655787,-0.7572578300980118,-1.0860401027129691,-0.03367602982243037,-0.7945596708905791,-0.48811099992781376,-0.6422990280478602,-0.5266143229516662,undefined,1496069752820
903d185fccf839df,-0.8510942496648332,-0.7547917288047549,1.8319636215147341,1.8429604294160569,-1.3114378562604956,-2.0255470941632887,1.9426737610078488,-0.8827200055130586,-0.35187381910187576,-0.7217424584331402,0.13805226394841683,-0.32664065561749617,0.19657280525846704,-0.6345350272796806,-1.087601062785024,-0.2857626333764906,-0.974071728793707,-0.749772289635978,-1.0778398400596505,-0.14480661184681262,-0.8163791091522498,-0.4989608443263451,-0.6036371524461829,-0.5365756348606333,undefined,1496069754324
903d185fccf839df,-0.8607963427523434,-0.7453994815278145,1.5301843805937778,1.4773927269188485,-1.3870377293371992,-1.9897699793778696,1.943665191152273,-0.8570555861493515,-0.3128602984573216,-0.74648765603836,0.06647945359070406,-0.33238623747246937,0.48814895276292336,-0.6132408586891966,-1.11602215649111,0.3709349322029599,-0.8134258480442869,-0.7116036390778632,-1.083731154854515,0.3017329081481558,-0.7028143108305894,-0.4885025801494159,-0.5658963187088081,-0.5480061537905331,undefined,1496069755840
903d185fccf839df,-0.7069487631341657,-0.6661523983254426,0.9546978661851742,0.9799952633936954,-1.2431819692968493,-1.966435660665946,2.038290870515577,-0.19604444062225318,-0.25639076192683885,-0.7264104393718931,0.07991096394101681,-0.2790337323612112,0.7840769830659537,-0.6076858505857896,-1.1139168926083993,0.9589317851164272,-0.6517811672363694,-0.7162076887991272,-1.0782246646272824,0.9151607848037208,-0.5638909499426326,-0.4840703646012345,-0.5326675000420231,-0.5311169090440884,undefined,1496069757368
903d185fccf839df,-0.5045906145622074,-0.701373312826722,0.853254274220785,0.939314326551638,-1.1253490211974173,-1.9352261848311885,1.953634781844325,-0.7018416773703524,-0.32078229753113263,-1.000877622017887,0.07842039927619522,-0.2613414995686297,-0.06889204545454544,-0.5725041779252564,-1.0686536767972787,0.9407462915448027,-0.6404141360538035,-0.6962335842468497,-1.0572692150117338,1.0238892086115177,-0.5289769835982474,-0.4840579184167049,-0.526363241299238,-0.5298057891079195,undefined,1496069758836
903d185fccf839df,-0.3853932983886041,-0.5980585854733808,0.5693388277486984,0.6011316805032284,-0.970580137369453,-1.89224706402003,1.98097688250031,-0.42826622121174596,-0.381457599520001,-0.9798142055927119,0.034268996646611406,-0.18966452311296267,-0.33870877896613194,-0.523434955866963,-1.047601015883472,0.9245814429157962,-0.6690867704264776,-0.6606107755909032,-1.0406517893142007,1.0200088001436565,-0.504313248182678,-0.4696412148405887,-0.6189014450825527,-0.5660407885929091,undefined,1496069760332
903d185fccf839df,-0.46162413330669966,-0.5510973271676851,1.2654092584675145,1.088986475197921,-0.9440944680615441,-1.907687590189516,1.9274156276939913,-0.7555507953027807,-0.47322298659170997,-1.1753202372599685,0.051638244860869494,-0.13300575663190484,-0.29954183377896615,-0.4854757953431945,-1.0444431108566141,0.9589317568517056,-0.7420327901622976,-0.6478118971608073,-1.0232227330717254,1.0344987378874917,-0.49208783787891963,-0.4554127023512554,-0.6261944650919496,-0.5888343054148545,undefined,1496069761816
903d185fccf839df,-0.5960675957606762,-0.5469882221808354,1.0695395581231648,1.0961959302196596,-0.9281413519148688,-1.8708227199137757,1.9368066647666065,-0.6304778318065395,-0.5112684989675096,-1.0962944282855196,0.030999276016265086,-0.06427320329664765,-0.8696384803921569,-0.48640160736324023,-0.9918114659343312,1.0579414935683624,-0.6119790596408731,-0.6277807961597266,-0.9940390352965967,0.9702410226034595,-0.48510599099851337,-0.4350403985511438,-0.6353700738387602,-0.6041585693813543,undefined,1496069763319
903d185fccf839df,-0.6057696543427769,-0.5710558663318046,1.0720921096431735,0.9731904709306052,-0.9401139033156587,-1.8447841550384672,2.0001902444135777,-0.180737832977542,-0.4887330177305052,-1.0227329995947356,0.03414941765854543,-0.003486272271072546,-0.9392686051693405,-0.48084661868599504,-0.9981272759880473,0.4598416137948564,-0.723800890702491,-0.6315805620782551,-0.9900228658289159,0.6713109988122575,-0.5576911945514662,-0.430138154454844,-0.5993266566049094,-0.5447073187708262,undefined,1496069764816
903d185fccf839df,-0.6806144759626567,-0.5299647872353151,0.7773303523066455,0.8416387765369694,-1.0734371099567124,-1.818314680807736,1.9635307527046997,-0.4307136356996247,-0.5095033592837783,-0.9179878883748309,-0.034581635430687915,-0.03233333760660684,-0.8783422459893049,-0.4891791211280246,-1.0223378198420106,0.06380249733989979,-0.8165184890916254,-0.6309472671070193,-0.9768408742167778,0.1379704416884865,-0.6722482091347932,-0.43292469134401523,-0.5732459060198816,-0.5018639790816155,undefined,1496069766313
903d185fccf839df,-0.5475570613123055,-0.4207798514447754,0.5859273629853614,0.5681308285161574,-1.0404920207160742,-1.73427573106689,1.9590022196175616,-0.3247328107977739,-0.526847190341773,-0.7283201019483965,-0.15839190754900834,0.030682134965681736,-0.6476924576648841,-0.5882433448877207,-1.058127361064843,0.06582302922363158,-0.8288407336872387,-0.6718580828311115,-0.9615388496736391,0.28656543939702583,-0.6599740817677663,-0.4020147701450331,-0.5777392744829047,-0.5394982883634681,undefined,1496069767830
903d185fccf839df,-0.4824143155272311,-0.30631192681110486,0.1425092136314135,0.09712974663624496,-1.2326494127607364,-1.6110962454602273,1.8822828966549845,-0.6792015408664359,-0.43173843410050344,-0.46154468127465337,-0.20531545858257408,0.03994784147593977,-0.7303782308377896,-0.578985017474871,-1.0433904954802848,-0.05541340615572091,-0.7935791694784257,-0.7023892037904449,-0.9734334282129269,0.29563512319947177,-0.6759236184577718,-0.4104635848426413,-0.5443532879613899,-0.5458027673388611,undefined,1496069769312
903d185fccf839df,-0.35767306692969875,-0.18597373528425107,-0.1324740814792889,-0.13838121323031946,-0.995666955491071,-1.6237836111741084,1.9003654388887978,-0.5116296563796436,-0.6362053452610162,-0.4682005025817268,-0.18316338958152087,-0.06479592258424471,-0.7608414104278075,-0.6484225443005044,-0.9202324202998353,0.9063959493441718,-0.29361549731632614,-0.7385123149415386,-0.8813064182497108,1.409789641419262,-0.40467042651684126,-0.44675860318604,-0.7651630584321738,0.14048768483678328,undefined,1496069770865
903d185fccf839df,-0.4311318752513628,-0.26404678849038027,-0.17011633815398403,-0.2160992788792701,-1.0895753700804527,-1.5982877593088294,1.8748168778128025,-0.6751276381406003,-0.5809794636095273,-0.5415424341259016,-0.10797312822285898,0.0224063228697367,-0.8565828319964349,-0.6928625767508237,-0.9728640725843519,0.7892008038500552,-0.5478043483734499,-0.7790938178435562,-0.9030734969726925,1.310639053963859,-0.4525708364500758,-0.46346248830751174,-0.7730638651015992,0.17871302846383574,undefined,1496069772312
903d185fccf839df,-0.43667585943340637,-0.3239223182987618,0.02447683229341202,-0.14180033701540523,-1.0141297824933353,-1.7559912280308683,1.9201126503814245,-0.6404044273574441,-0.49830752041740345,-0.6255831060842749,-0.04056561173480192,0.037327336840647464,-0.6259330436720143,-0.7197117469693275,-0.9476009059918256,0.799303830710094,-0.5306581742544244,-0.79420422217758,-0.8945443839451361,1.3276081390686418,-0.44960872163104765,-0.46939760798025554,-0.7500589960794641,0.1674033042409646,undefined,1496069773837
903d185fccf839df,-0.6556662020893634,-0.333314558268704,0.20567241104110529,0.24575619380037012,-1.2598962237955302,-1.8066778022502064,1.9056066282879085,-0.8530439749192668,-0.3429452053134447,-0.7201462515519456,-0.004555872406168116,0.02720235311357255,-0.7826008244206774,-0.7576709463454196,-0.9381271688245502,0.5184391865419147,-0.6815699650109387,-0.8121137868529511,-0.9264988184909907,1.119852311922661,-0.5037471471630238,-0.5024528955045637,-0.7757564307967529,0.23210083043986274,undefined,1496069775318
903d185fccf839df,-0.7734774359539315,-0.4284111048763381,0.12911111365781186,0.13528968234285438,-1.2505362386062935,-1.8560041014798323,1.9038393993128166,-0.9410365758412084,-0.39132122525890334,-0.7023267350110907,0.00808488226812926,0.043088791064968004,-0.847879066399287,-0.7724842818616764,-0.9560219836093691,0.635634416830196,-0.626083688641637,-0.8330568314612065,-0.9518272737789233,1.0251210738812424,-0.5390252289825932,-0.4929454351265458,-0.7448697804193956,0.3152448138810759,undefined,1496069776819
903d185fccf839df,-0.8303040501915968,-0.4413254056070163,0.06977623525423418,0.06426213811814875,-1.3375120931236775,-1.820308512537391,1.9574716645740236,-0.5829190587145922,-0.41288893560501844,-0.8101752845858647,0.04549029513545631,-0.006870676156890657,-0.8348234180035651,-0.7715584568908561,-1.0812852637746588,-0.19685589525515113,-0.9033667276050784,-0.8335128035776154,-1.0742154910590358,-0.17227744260206773,-0.8538064637057808,-0.4760135854849895,-0.628138600571779,-0.5059741255512222,undefined,1496069778328
903d185fccf839df,-0.7402130822913437,-0.6062768246750725,-0.3155828031822415,-0.37489026061825603,-1.2593819443430132,-1.816896176508791,1.9314891958779838,-0.7658872727716559,-0.37960631763727454,-0.7357598727316152,0.043127452442984326,0.08550594443309302,-0.852230949197861,-0.7734101327340458,-1.0812852748180095,0.45377983442297104,-0.7005876286035463,-0.820124960737732,-1.051776718363435,0.363788637709832,-0.7171833526767069,-0.4801457981211392,-0.6216882230738145,-0.43971068764676646,undefined,1496069779822
903d185fccf839df,-0.6875445424537354,-0.7054824762695564,-0.49677787365603593,-0.526832700779925,-1.2530870957629514,-1.791414298731519,1.8973569395362997,-0.9857661435458707,-0.3115408705140792,-0.7246754431643763,0.058796748490333325,0.07047031738997642,-0.7303782308377896,-0.7798909528574984,-1.067601039334248,1.3610326950756297,-0.43346237376537833,-0.8442154785086777,-1.0436604184132492,0.9032885718005097,-0.6053184465945594,-0.4855384621913197,-0.6144243065064232,-0.29132107535938023,undefined,1496069781316
903d185fccf839df,-0.6515081276893064,-0.704895461271435,-0.3659857843613844,-0.4647788261788419,-1.1600735363537962,-1.7667686174791914,1.8985797902904815,-0.9200274020289034,-0.26238740905879315,-0.6778248955639657,0.03502157019716424,-0.05003884033017542,-0.7042669340463459,-0.8271084796464404,-1.0339167877619444,1.4964134189355354,-0.4010044781778653,-0.877159451828524,-1.050062500573389,0.8669482426743185,-0.6322449007456817,-0.4821684084709512,-0.5543796126738068,-0.2613767997457034,undefined,1496069782857
903d185fccf839df,-0.748529196586048,-0.5493363114013132,-0.13885393545761393,-0.2263974452238746,-1.0856565162939587,-1.6909611973774203,1.890724557393114,-0.8453313901714117,-0.2981947929956359,-0.6937788018200562,0.020003389552638338,-0.01019932353411495,-0.5954698640819964,-0.8308118054312705,-1.0665484092334514,1.5691553084278684,-0.406928876240998,-0.8842270168894434,-1.0481943521121353,0.8054468526388348,-0.6487616203884566,-0.4815746364822884,-0.5502849636946834,-0.25186882889762396,undefined,1496069784326
903d185fccf839df,-0.6944745399339947,-0.5076581880787101,-0.014441191867388573,-0.14937284523939004,-1.2052688897829944,-1.6609256577623508,1.8752718207179908,-0.9134452391692853,-0.30586828707965064,-0.7483389161991887,0.02300610240923886,-0.08100692995863759,-0.517135973707665,-0.82896015548963,-1.0244430947680718,1.6398766095070267,-0.3301806818580656,-0.8909209385114735,-1.0382099026852643,1.0735491882561643,-0.5913851689991901,-0.48140845409993566,-0.5330351210049331,-0.27982504606927877,undefined,1496069785818
903d185fccf839df,-0.7069487976395754,-0.788251591004672,-0.3672620601213887,-0.42714152821211887,-1.1384324306530844,-1.6547508433377542,1.8742514695443577,-0.9197538642134959,-0.3149139265115888,-0.735472921928318,0.03509254846738256,-0.004754986313241923,-0.852230949197861,-0.8826585024020246,-0.9928641033973618,1.807587171948553,-0.2904225964936103,-0.9283992989728124,-1.0182689912524228,1.2417618069172027,-0.5543913565010037,-0.4741097152288703,-0.5734335361911927,-0.2246640925056051,undefined,1496069787309
903d185fccf839df,0.19673273543233846,-0.8651507311265277,-0.6001363875343303,-0.6524475201668188,-0.7125634259031421,-1.732547433058379,1.8740884248721772,-0.9496533180001021,-0.37436070354431467,-0.7376665479395891,0.07408726445163058,-0.027478587063856773,-0.8609347147950089,-0.9308018735879486,-1.0339167803997107,0.7730358704268842,-0.7025576306875023,-0.9663969605499375,-1.0567234636410117,0.47610490622624096,-0.7479248034626049,-0.4690883782488658,-0.6616282455742911,-0.408280488970572,undefined,1496069788821
903d185fccf839df,0.08862359465528057,-0.7964698594343561,-0.6301225144706961,-0.7167779610499537,-0.6134504497485913,-1.7534966103328198,1.8792717753554367,-0.9332814257965432,-0.3408687096842806,-0.7268799143308419,0.07898310717351767,0.08136307090429752,-0.843527183600713,-0.9604285510958495,-1.077074728647004,0.665943652866281,-0.7215809752886798,-0.9940085948449499,-1.0699194494743751,0.4785994533115546,-0.7618361315463847,-0.4647172802128447,-0.6462575198280671,-0.4059201381336964,undefined,1496069790323
903d185fccf839df,-0.40063951367979683,-0.7477475561342962,-0.546542971092126,-0.6142347518550574,-0.7455599423026275,-1.7666428379009147,1.9047388004775583,-0.8110105565606122,-0.24503726222878638,-0.758158673431972,0.06030671687965922,-0.02436593756578878,-0.843527183600713,-0.959502719649642,-1.0160220429183466,1.209487235645604,-0.5010577818056122,-0.9794238255448429,-1.0587875229230361,0.9718886502350975,-0.645580484600027,-0.45771499400627896,-0.601545516120887,-0.37385528191925094,undefined,1496069791826
903d185fccf839df,-0.6709123828751464,-0.7700541845188936,-0.5733396793132282,-0.623004646866426,-0.9484041781814596,-1.7445383577642122,1.8926600969324447,-0.9178559673085069,-0.23112567462597527,-0.7997465113361044,0.06819383800432377,0.015191168387700935,-0.843527183600713,-0.9798710729823866,-1.0486536459842688,1.3388060529423773,-0.4502636332688735,-0.9863900631802608,-1.0504893054006919,1.2498459860108453,-0.5792254027906565,-0.4558418528394984,-0.5966908451448751,-0.4051910975217909,undefined,1496069793808
903d185fccf839df,-0.6334899548125016,-0.7970568744324775,-0.6065162415126554,-0.657538674545519,-0.9856795447129906,-1.7483909198591125,1.9166176347693473,-0.7715284319736572,-0.23315349268149466,-0.7991238974889081,0.06318820900773672,-0.00573516437143075,-0.7042669340463459,-0.9891294133460109,-1.0560220714143143,1.3994241858378889,-0.45978120755087176,-0.9987836343112634,-1.0520775814513461,0.957167732928634,-0.6483254319829312,-0.4538320277717995,-0.6088954965729387,-0.42682314103153823,undefined,1496069795147
903d185fccf839df,-0.6237877927141718,-0.7747503045038647,-0.5478192468521303,-0.5688667356522162,-1.0587285632117076,-1.7529795221647844,1.9125256574373488,-0.8096081259159016,-0.2417932646779885,-0.7530114381733991,0.06083084375103484,0.007378708681308245,-0.4083389037433155,-0.9817227455878825,-1.0844431688015168,0.5346042188916111,-0.7916914292517425,-1.0006581860660948,-1.0807435158638923,0.3827287267799853,-0.7927233901006395,-0.45368339673540276,-0.6167710650158353,-0.49993631489310386,undefined,1496069796367
903d185fccf839df,-0.7166508562216759,-0.7812074694832,-0.46615386297661743,-0.5472857206500265,-1.1865077781387636,-1.7408115756824938,1.9390577681513133,-0.6323905267060673,-0.2448561480112935,-0.7523498830910926,0.04266983074127235,0.023360603641301606,-0.6607481060606061,-0.9400602236646539,-1.0465483784204415,0.4901507226396945,-0.8192372935497204,-0.9669669260622528,-1.0661761557287575,0.13213442496785233,-0.8321540549901184,-0.45322743740694926,-0.6219147282978523,-0.48085127576280734,undefined,1496069798093
903d185fccf839df,-0.765161356164637,-0.7395292877046121,-0.3449315546494534,-0.34730015668396075,-1.3990308515719199,-1.7541092021847102,1.9225899304817877,-0.7860187518811987,-0.319667625375998,-0.6439677383816187,0.046087424963954356,-0.039450226515353334,-0.8913978943850268,-0.9252468784353163,-1.0381273155273656,0.6134077746969433,-0.6676735093621473,-0.9441429971430555,-1.0838221127046839,0.3296194870087383,-0.7876821089272907,-0.45861527218709947,-0.6351365553827595,-0.4440413418710745,undefined,1496069799317
903d185fccf839df,-0.7221949266672438,-0.6133210046525291,0.019373254075091304,-0.02463815210643877,-1.448566769789518,-1.771722908799512,1.9252276301647167,-0.7776874453078008,-0.3599614702411299,-0.6264538191884703,-0.029708980990643275,0.008245812652920584,-0.9044535427807487,-0.8289601490142428,-1.0254957248688685,1.3327441746439666,-0.4452713208681885,-0.889033721140584,-1.0350823273914689,0.7372317378040069,-0.6660612507524911,-0.45718583071695884,-0.5772232199991149,-0.3920622571697328,undefined,1496069800823
903d185fccf839df,-0.7360550423966965,-0.5845571820606041,0.1131604621642016,0.015335563220310034,-1.4722033013958697,-1.800239785443008,1.9285964089254077,-0.7850095777137214,-0.3929898723813995,-0.552044955839132,-0.039357746954358744,0.0009220314791759756,-0.8565828319964349,-0.7780393029158579,-1.020232559640417,1.365073900166701,-0.43573295227390085,-0.8680336797568622,-1.0297577545834684,0.6671380136478675,-0.6726408982013269,-0.4609697395335022,-0.5822376710462561,-0.3597115871577192,undefined,1496069802332
903d185fccf839df,-0.4158856944655798,-0.46421901976174273,0.08445010271394128,0.07478438495438128,-1.1658540979053675,-1.813413962451966,1.9483331074893107,-0.5941551541080541,-0.37604743586216893,-0.6674885060455971,-0.0722320997207741,0.02353507334456877,-0.7521376448306596,-0.7641517988458086,-1.019179936901854,0.5487483519161959,-0.6813971715519977,-0.852739620471444,-1.0424289796071982,0.20293648173398743,-0.7764980876513058,-0.47093927616986264,-0.5871885243423064,-0.3940448008027525,undefined,1496069803816
903d185fccf839df,-0.49211649487826564,-0.45600083901603566,0.03596128103785545,-0.015022747245235463,-1.1305947269411023,-1.7796143723840607,1.902890051261419,-0.8442550249375255,-0.33229755842422204,-0.7013015939352527,-0.04181018539725281,0.08069727441016596,-0.7956564728163993,-0.7558192705022301,-1.0307588900973204,0.7932418676175188,-0.6594993550922097,-0.8090803067539671,-1.022662989486174,0.4572880044100247,-0.7021726379512323,-0.4816760997059002,-0.6355751219248515,-0.3761335424912883,undefined,1496069805316
903d185fccf839df,-0.6182438085321283,-0.590427419725795,-0.16884006239397972,-0.08291260479532561,-1.1366735739148435,-1.6820914549866963,1.8869218668222907,-0.8320737045009328,-0.2616035635296299,-0.8477663279803747,0.008967707134483303,-0.03412556921796012,-0.9044535427807487,-0.7697067939984411,-1.0497062834472994,0.6740260489160627,-0.6433739465241364,-0.8235700811403901,-1.0294289049188101,0.4851591924717528,-0.7091623011737118,-0.4821586542380432,-0.6206868769318942,-0.36801419666023916,undefined,1496069806828
903d185fccf839df,-0.6833865715699077,-0.5522714448479049,-0.23965938954200083,-0.2105016446819855,-1.2451465359988236,-1.6097569309651163,1.860739512112578,-0.9336387548014443,-0.2619228648567688,-0.7246659791401283,0.04215497933153012,-0.07307378069598595,-0.5780623328877006,-0.7854459415347436,-1.048653642303152,0.10421474610366292,-0.7492772002967875,-0.8667987547653175,-1.0531341004687285,0.10409386126239985,-0.8178406863810577,-0.47710766254550335,-0.5867177675714542,-0.38138100155185783,undefined,1496069808322
903d185fccf839df,-0.6598242419840107,-0.5358349079885367,-0.21031114634868778,-0.19444847999989878,-1.176119222523492,-1.6028833463390095,1.8733468003925149,-0.8255800288664527,-0.30776798494204843,-0.6840629645258236,0.028488140790706155,-0.05285572974433021,-0.6433405748663101,-0.8826585283035737,-1.058127327934791,-0.11199036222488284,-0.7960909981280407,-0.9153787661741346,-1.0733548834802482,0.08564652423701487,-0.8407487345493666,-0.4752416488066297,-0.6282018060706582,-0.43793213804191466,undefined,1496069809817
903d185fccf839df,-0.6029976967571647,-0.6743706229131381,-0.3130312682100306,-0.37470959404787907,-1.213188875634389,-1.6620180725461018,1.869296894678326,-0.9675123956062254,-0.33572544653281877,-0.6672921794349973,0.03773582407241547,-0.06913570963582184,-0.9523242535650625,-0.9446893841333852,-1.0223378272042443,0.9589318133811486,-0.5185514779597331,-0.9481327512168791,-1.0324585236002168,0.8474538193148112,-0.6551834504067952,-0.4767617270513518,-0.7046137853767447,-0.20454407655126894,undefined,1496069811367
903d185fccf839df,-0.6057697233535962,-0.6643913094890899,-0.3423795114033436,-0.3924624503087903,-1.2562859450872759,-1.7062666295940085,1.887658197126807,-0.9160548605543545,-0.3488982728047876,-0.6865322279092579,-0.0041007760728328175,0.04709091818855819,-0.9392686051693405,-0.9493185510775037,-1.057074705196228,0.9063959493441718,-0.5304618290696528,-0.9552256483404148,-1.0602568533294798,0.9055059566818142,-0.6476403495594526,-0.4612515318509736,-0.7183709312759841,-0.2181669212492457,undefined,1496069812817
903d185fccf839df,-0.6903166035555767,-0.6191910961777584,-0.3340849896480627,-0.3930835254299794,-1.431687940347234,-1.7139927156696555,1.8967573338713704,-0.8908392652653878,-0.354286130349017,-0.7510051171664618,0.004329078527464498,-0.015604048056702475,-0.8870460115864528,-0.9261727098815238,-1.074969479488761,0.9912615954333263,-0.5401507800430366,-0.9554093040835524,-1.0701153601605708,0.7998726207048916,-0.6705927684570593,-0.4585653978375346,-0.734803193666275,-0.21590368583345368,undefined,1496069814319
903d185fccf839df,-0.7443711394386958,-0.5980585562453884,-0.36662366810443714,-0.40041009553706064,-1.4408730686007944,-1.6992369853092395,1.903700017110439,-0.8228868957316691,-0.3201102712924818,-0.7437628458659514,0.007817992786468868,-0.017008525663714597,-0.8870460115864528,-0.9298760389040475,-1.0844431651203998,0.9569112814974169,-0.561635972388821,-0.9632494884558236,-1.0649377200323078,0.8324865279851161,-0.6645492652682973,-0.4580489257943456,-0.7267443129065706,-0.23073320628713803,undefined,1496069816651
903d185fccf839df,-0.8067418068692241,-0.6033416912284809,-0.3883157815594208,-0.39580233132708087,-1.4516524779608138,-1.6910939645723257,1.9156971951768968,-0.7337066269113875,-0.30859610229083956,-0.7132646521068639,-0.0019937132190679437,-0.027319111863182727,-0.8739903631907309,-0.9095076920466901,-1.0423378580172542,0.7528297884420848,-0.6386261885726243,-0.9525911443464329,-1.0434015358358082,1.0175912419334594,-0.6154766409395824,-0.46311573541747164,-0.7407306993953138,-0.25475700906824833,undefined,1496069817313
903d185fccf839df,-0.8247599624933241,-0.701960386280828,-0.4259585465080148,-0.4746091072532552,-1.3635246243748607,-1.6544457138478275,1.8928152506229519,-0.829183627746164,-0.2716454896168828,-0.7273902581532788,0.025328440374344164,-0.03765730318441954,-0.8261196524064172,-0.9261726969307492,-1.057074708877345,0.49419195599548726,-0.7682724766245072,-0.9698547487390269,-1.0329972782028818,1.272897466302056,-0.5560271596299782,-0.4585352999482768,-0.7752904033151147,-0.29173683390969646,undefined,1496069818820
903d185fccf839df,-0.6917025823483827,-0.7189837627703636,-0.5140048009096505,-0.5946459827114959,-1.2789864800315875,-1.660054522692629,1.8944851773936495,-0.8273272994793754,-0.2860615865463074,-0.6387063538019416,0.03458955248580196,-0.004576231578366993,-0.7608414104278075,-0.9048785218648779,-1.1170747902730236,0.4820682841928305,-0.8175605779875819,-0.9598676966151463,-1.085837194059772,0.4244431196807539,-0.7738332832362489,-0.4502363706473309,-0.7260862705259651,-0.48882504289803613,undefined,1496069820329
903d185fccf839df,-0.5780494573892813,-0.6596951895041188,-0.3149449194391888,-0.34582001934382733,-1.1236724556549478,-1.7045988933191762,1.8989926731006002,-0.8189682194823585,-0.35472899747086595,-0.5547524113444412,0.007210973801432114,-0.05800512368225462,-0.7651932932263815,-0.8780293581217615,-1.1139168889272826,0.24767778121918568,-0.8612791610707434,-0.9482974082286445,-1.0946811632953939,0.10814365182243146,-0.8428301297520191,-0.46657822499490675,-0.7095316478539174,-0.49331057305720544,undefined,1496069821831
903d185fccf839df,-0.5059765933550134,-0.5223335922597371,0.6242075034031093,0.6006389916482578,-1.0727171150270258,-1.8416513294669574,1.9482094915374535,-0.6386552374667276,-0.3754599970757304,-0.3063667794022737,-0.04515952140862163,-0.0391209128180077,-0.5475991532976827,-0.8687709853812008,-1.09707475209778,0.3022342478016981,-0.8487243222266025,-0.9207871009106638,-1.0739776000948178,0.1320728362344332,-0.8171371213753307,-0.46273505768973516,-0.7058793315960007,-0.5252423581660001,undefined,1496069823314
903d185fccf839df,-0.6986326833448712,-0.6162560942571322,1.405771891140502,1.4515421638677426,-1.1862917804234563,-1.9366819595720342,1.9377744219660105,-0.8233389106478979,-0.3419020573933314,-0.36464055902001047,-0.08369456000532201,-0.16613430609913546,-0.15157781862745098,-0.8456251538983018,-1.0981273821985769,0.22140989159777955,-0.8765179438062628,-0.8880394487340835,-1.0720884615740753,0.0024333225682173993,-0.829684890809279,-0.46814496271041495,-0.6857817039437163,-0.5522302264858198,undefined,1496069824862
903d185fccf839df,-0.6556662020893634,-0.664978382943196,1.5518762399118122,1.5431041244099537,-1.3404949501581076,-1.9512164127771139,1.9062193803513519,-1.0641804955074372,-0.3384375966478675,-0.3223214639274671,-0.08052235936598647,-0.34196796094159476,-0.042780748663101595,-0.8039626416881541,-1.1139168815650486,-0.2837420166985942,-0.903611125681712,-0.8537972220434219,-1.0636573045839035,-0.23052975757897834,-0.8697020434962089,-0.4770161308140338,-0.6390273196354553,-0.522203986172435,undefined,1496069826312
903d185fccf839df,-0.6944746089448142,-0.6444328287809551,1.690963105098694,1.6185465333216815,-1.376412604224442,-1.9633121523702384,1.9202415144174696,-0.9793224339556729,-0.3367930846493441,-0.5839614524487855,-0.029304281433247793,-0.3158310806603286,0.6883355614973262,-0.7326734325439437,-1.0949694808528356,-0.46761734297496244,-0.9812276015554977,-0.7757246926376836,-1.0701433477955693,-0.41657377488213276,-0.8789843528804412,-0.4778175683230585,-0.5719111676747924,-0.5447315295441201,undefined,1496069829140
903d185fccf839df,-0.7069487631341657,-0.650302993376165,1.7215876240520114,1.6279574959536556,-1.3538766420351633,-1.9575216636737367,1.9399545421313948,-0.841455592106008,-0.34241689979513995,-0.5855183763057912,-0.026601335156252785,-0.3050430630785949,0.7405581550802139,-0.7150825767875153,-1.1023379246884655,-0.46559675456178756,-0.9760123229980696,-0.7642620644819442,-1.07105293324624,-0.4100756310518852,-0.8711338467654436,-0.48061482866177857,-0.5786101292271628,-0.545659567870111,undefined,1496069829324
903d185fccf839df,-0.6625962685804422,-0.701373312826722,1.7228636456750663,1.6778290443162933,-1.2536425265818567,-1.9604332126915291,1.942460744308489,-0.8210418290479006,-0.3132668926165549,-0.7794975337730481,0.0445426684630698,-0.3659747627037766,1.0408380681818183,-0.7021209106390609,-1.076022102227324,-0.14432008774761734,-0.7912724935876894,-0.7267710377733672,-1.0662671147105829,-0.017276685974089913,-0.771746454895246,-0.5014674941528615,-0.5312652221604732,-0.5672319020005127,undefined,1496069830820
903d185fccf839df,-0.6113137075356398,-0.7471605411361749,1.2239386827867054,1.1462620022550523,-1.1103833392483318,-1.9876922986306829,1.9513757895729882,-0.767423161499182,-0.3447126769839805,-0.735090750359006,0.07566231493149943,-0.28518827269678776,1.2105614973262033,-0.6780492282837924,-1.0739168383446136,0.6457375567491209,-0.5581483606670491,-0.6984437808372729,-1.043121664452876,0.7055417432951362,-0.5997064910968761,-0.48666027087048913,-0.5040750760757815,-0.42936625437949916,undefined,1496069832320
903d185fccf839df,-0.7249669705163801,-0.7536177061155102,0.35688084630463507,0.30449174696777676,-1.0290543318189143,-1.94966048021397,1.9427395055706786,-0.790817927544579,-0.32641069134980305,-0.6997537800400646,0.027792349506138184,-0.2207556194540723,0.2923142268270945,-0.6632358862921485,-1.040232583091193,0.9164990044689323,-0.5150024008156349,-0.6871141443215852,-1.0314509845039332,0.8695505858108458,-0.5597299518147751,-0.48402130011159694,-0.5230156762154691,-0.4330323664243903,undefined,1496069833807
903d185fccf839df,-0.7318969679966395,-0.5980586147013731,-0.10631525700123952,-0.1516449121910764,-1.058121709885167,-1.8693529705494463,1.9708442471360776,-0.5108969864362735,-0.3693015128649619,-0.7233292318797929,-0.009863108373511847,-0.15571750380488417,-0.7086188168449198,-0.6752717404205572,-1.01917992953962,0.9629729336780553,-0.5492967769331119,-0.6904959360792127,-1.0333051398939688,0.8041841843124802,-0.5725067260778551,-0.4772112020387604,-0.5359583554061081,-0.43044141813775044,undefined,1496069835317
903d185fccf839df,-0.8011977364236563,-0.4830034704736348,0.09912447844754724,0.05670838246651696,-1.112111329188929,-1.8240679019087014,1.9256378669347838,-0.7620202803456337,-0.4117342872005045,-0.8811548121675338,-0.016674839916417578,-0.052062779020707536,-0.9827874331550802,-0.6669392056015913,-1.0497062908095334,1.0458178782951488,-0.46518657763291277,-0.7088804708881349,-1.0307583007470924,0.7855982611299931,-0.5853167441111571,-0.47710508049144457,-0.47831636560771773,-0.41479348202964,undefined,1496069836815
903d185fccf839df,-0.40618356687265983,-0.45600083901603566,0.24331517598969926,0.15183892393521353,-1.0112189292211855,-1.8467197537952658,1.9265977457227754,-0.7397193680717897,-0.5090131632880688,-0.9477143968623186,0.028223866281629262,0.01366991314151527,-1.030658143939394,-0.6539775588792986,-1.023390464667275,1.3610327516050729,-0.4481436879737706,-0.704992043359483,-1.0239923843968972,0.9649439536408774,-0.5378959358063568,-0.45711128019014635,-0.40770178401406465,-0.30754710292836795,undefined,1496069838366
903d185fccf839df,-0.30500456159750017,-0.4806554835511301,0.23757269748052812,0.17751446869142395,-0.8869368521034213,-1.9404832787878552,1.9435336978365256,-0.7091608873273697,-0.5292749347544119,-0.8437542191203448,0.06310500404710949,0.012670879076959345,-0.9784355503565063,-0.71230508892428,-1.0812852748180095,0.4598416420595779,-0.717460827564873,-0.7762439929063599,-1.03261245523792,0.49647704754579375,-0.6736014982520168,-0.45434530078435104,-0.4617207742768313,-0.3542251412450298,undefined,1496069839823
903d185fccf839df,-0.36737519452261874,-0.4882866931407043,0.07296616224339669,0.041943963910375706,-0.8777208696294934,-1.9221288742186553,1.9298376772077706,-0.796538787510253,-0.4819497181314965,-0.7750714146788865,0.0730509657605076,0.0011868423790750602,-0.9349167223707665,-0.7456350986923982,-1.0812852748180095,0.24363657612811443,-0.7953311098520967,-0.809124636429549,-1.0401620136906067,0.3269247596883668,-0.7255870591191038,-0.4639942038998544,-0.5254214700462686,-0.3555576139439995,undefined,1496069842571
903d185fccf839df,-0.4144996811673641,-0.4835905731557332,0.04297952703313206,-0.02123779802197845,-0.865943746770512,-1.9242065561464285,1.9647167935430427,-0.565450809699602,-0.4707719922057417,-0.83820692693169,0.08876129540599297,-0.006376921811142873,-0.9218610739750446,-0.7447092607708033,-1.0802326226305112,0.12037949580614403,-0.8140090519112613,-0.807174089799059,-1.0474247034540023,0.2557223481601347,-0.7434639531956365,-0.46227147072328256,-0.5180447669428276,-0.36332632771630596,undefined,1496069842820
903d185fccf839df,-0.4879584204782087,-0.4471956140442148,-0.3251530924236279,-0.3970699809690182,-0.894692272639721,-1.8288195521470052,1.9077078585394713,-0.8315278956322364,-0.4663379951365296,-0.7622565503865628,0.042195232326957814,-0.060148305257894066,-0.7956564728163993,-0.7400801100151531,-1.108653716336597,-0.11603155318359332,-0.871040253152624,-0.8117528086591632,-1.0709899621807981,0.10996066330980278,-0.7837710448137409,-0.45722376407677234,-0.5384244694965832,-0.3585751215083957,undefined,1496069844326
903d185fccf839df,-0.7041767020323244,-0.7418773476970977,-0.05846431906820642,-0.036559475931275856,-1.1327650168482593,-1.6837242542330304,1.8916975972449248,-0.8248103701514665,-0.290130391398264,-0.7245707020466996,-0.0297448729838234,-0.024129017867312558,-0.8043602384135473,-0.7335992769409257,-1.1254958421227488,-0.055413363758638604,-0.8302959111201801,-0.8223351577157219,-1.0962624425596401,0.10169169856286528,-0.7953939045688216,-0.45552600650721037,-0.5095153063245028,-0.33559656106359576,undefined,1496069845814
903d185fccf839df,-0.763775377371831,-0.6708485329244098,0.05510135124672939,0.013494948652977044,-1.1726632326656987,-1.6571476335368147,1.8680240813246605,-0.9390247707679851,-0.2928046860155968,-0.7809005432482063,-0.03440367285841958,-0.11679088852995433,-0.6085255124777184,-0.810443468286994,-1.104443184890059,0.1284619483853688,-0.8333135934080595,-0.8520176654735713,-1.1005095066394417,0.24437369436432704,-0.7790141868668151,-0.45401006184200404,-0.4988208812917803,-0.33800352431208536,undefined,1496069847318
903d185fccf839df,-0.6321039415142858,-0.6315184695942921,-0.0354959298532184,-0.07443887065064139,-0.9704052845968612,-1.6974527878355046,1.88596461626648,-0.8547160505400384,-0.2651353431569974,-0.6868021488460363,-0.03267086575188375,-0.09243287969030738,-0.3343568961675579,-0.891916842765649,-1.1033905584703791,0.14260629339536504,-0.834845093383677,-0.8924851755222759,-1.0991941061089876,0.19466751515617614,-0.8105666233696996,-0.4748968706504146,-0.6442457846139175,-0.466434145457317,undefined,1496069848821
903d185fccf839df,-0.44221991262626936,-0.5041360688619895,-0.20137874085035412,-0.1440874427038316,-0.9322659188339216,-1.7893086651507548,1.8959868093129357,-0.8994845792570326,-0.2818117395808701,-0.7061080883123078,0.0019845626332361957,-0.053571434636807184,-0.42574643493761144,-0.8465510047706711,-1.1023379210073485,0.049658208859346624,-0.8921027092619916,-0.8955629859999983,-1.1075972759596429,0.017185035311644163,-0.851834615611318,-0.47591445029404844,-0.6363109659554408,-0.49385212317956956,undefined,1496069850329
903d185fccf839df,-0.5087486199514449,-0.6368016045773847,-0.24348770854811494,-0.2820106840913238,-0.8775460078205477,-1.8451428593349501,1.8916502597350568,-0.998259019089566,-0.20610512250782198,-0.625327905751893,0.011057444805600777,-0.08569907466567947,-0.5301916221033868,-0.8419218151626972,-1.0739168346634966,0.08804981268049182,-0.9043104210865768,-0.8902559784398207,-1.088272083853364,-0.10871265445525988,-0.8711670751041419,-0.4633845938477333,-0.6091841003225459,-0.47371580136764296,undefined,1496069851806
903d185fccf839df,-0.6321039415142858,-0.5945364954846525,-0.041876292105442275,0.013988745391700403,-1.149952408355393,-1.8327000633851307,1.9398361973092046,-0.7096062478483448,-0.32267628193962,-0.6775057924130382,0.026183882455050704,0.02313022257078626,-0.7695451760249554,-0.8530318184187365,-1.0454957483196445,0.11633827658271202,-0.8542113458559648,-0.8799269481324943,-1.0693736974491275,-0.1752031410845865,-0.8722477420119201,-0.4619691421142774,-0.6309855727957622,-0.4680295338382319,undefined,1496069853373
903d185fccf839df,-0.8400061432791072,-0.6825888913428223,-0.041876292105442275,-0.065464179824017,-1.2463088148348869,-1.7946100140373509,1.929711439308863,-0.756369466606867,-0.2916337134677529,-0.7090080623236321,0.016078027326830335,-0.0322316010359681,-0.7521376448306596,-0.8687709983319754,-1.0518115362866594,0.29819297204882306,-0.7834767638820351,-0.8782043873415104,-1.0640911056226112,0.05201631877652104,-0.8197089528780943,-0.45340576665619803,-0.6402289851181813,-0.5094202874640272,undefined,1496069854818
903d185fccf839df,-0.5988396223571077,-0.7166357612338627,-0.1541661949342726,-0.2160082765962753,-1.0308028931095772,-1.771876638871485,1.9027401435600566,-0.8549617677426617,-0.31455505006191625,-0.836455301534185,0.03873455435298943,-0.030359725163324438,-0.6172292780748664,-0.8409960031426514,-1.0444431218999648,0.49419197012784805,-0.6692106200401935,-0.8484078862486579,-1.0579828897578571,0.21890467394280122,-0.7717101394418967,-0.4556944392241193,-0.5407689176647498,-0.49170514310063035,undefined,1496069856496
903d185fccf839df,0.9146884865433416,-0.8299297143272751,-0.2300896085745133,-0.3586225732509685,-0.1308866867396043,-1.839971947261056,1.8844498431862893,-0.7498431141910226,-0.4708952484454136,-1.1391060206481602,0.0790483270978589,-0.06616880647864334,-0.852230949197861,-0.8456251733244636,-1.0033904301731482,-0.0008569678379299877,-0.736575679037886,-0.8447221131557592,-1.0169675836769623,0.08904958132683509,-0.7880549911025422,-0.45646286438039635,-0.5045890989665444,-0.4892634239780803,undefined,1496069857818
903d185fccf839df,0.727576553262576,-0.8616285826818147,-0.39023044933637674,-0.4880031414658905,0.038950743127684484,-1.8569521005349723,1.846701612843462,-0.9838232942463951,-0.36459254198885443,-1.01063083246831,0.056012333556726364,0.01660944898302165,-0.6955631684491979,-0.838218489377867,-1.016022024512762,0.0981528395405307,-0.7164089601668809,-0.8353176918557355,-1.012552596117769,0.10118355631158407,-0.7822041421570308,-0.4553571011166216,-0.515972084718992,-0.47513740055834325,undefined,1496069859323
903d185fccf839df,0.28682370333259155,-0.8240595935740537,-0.19244684362591932,-0.3106877150797621,-0.1617952090609112,-1.8653210571403256,1.8817832287592828,-0.8275776727164808,-0.309918868155855,-1.0360891926330054,0.0552449904537344,0.05152052562200363,-0.7826008244206774,-0.8743259934846078,-1.0518115362866594,-0.04935149959258868,-0.7935843127869286,-0.8867285286011201,-1.0449128470157558,0.06784592165112761,-0.8247222339194306,-0.45045833364387594,-0.49131526101543865,-0.4835198104915688,undefined,1496069860828
903d185fccf839df,-0.43806190723703187,-0.8275817127907743,-0.14778583268204873,-0.21696167084219595,-1.062565131383884,-1.8165700802281015,1.9108294462497977,-0.8993428182952837,-0.2122089577977297,-0.7905192678986307,0.05325486076677626,0.01429567051212073,-0.8870460115864528,-0.887287653157675,-1.077074732328121,0.06582308575307465,-0.8160660753947868,-0.8902939757918317,-1.065756346800889,0.18644474986504436,-0.8099055100559671,-0.44781248359575393,-0.4788606622935456,-0.45208228096309894,undefined,1496069862322
903d185fccf839df,-0.10680441841477945,-0.8375609093028532,-0.19372311938592363,-0.2808668817039555,-0.6923109009176489,-1.8058183116686646,1.900436448296164,-0.8581355946441848,-0.2325756310506415,-0.7222009955912395,0.04012798528606924,-0.045239308685790555,-0.9610280191622104,-0.838218489377867,-1.0212852007845645,0.36891425899562047,-0.6895435013089977,-0.8732900226713609,-1.0194864359045361,0.2962664614955783,-0.769466949057186,-0.45073540003498425,-0.5071695550552459,-0.3637053813500785,undefined,1496069863809
903d185fccf839df,-0.2564939236329002,-0.7682930810685448,-0.21477684082395576,-0.2872090634912643,-0.6769234958575033,-1.7197133258513815,1.8824696195097952,-0.8531402563961987,-0.33396297663262403,-0.6223987849416258,0.018806889956821143,-0.020329291553693733,-0.9044535427807487,-0.8474768167907168,-1.0454957409574108,-0.13421706088757848,-0.9254335297480735,-0.9112433547888343,-1.0518256963209567,0.00777658833453042,-0.8531526337151549,-0.4384770596405478,-0.6427054458722476,-0.36221733108649445,undefined,1496069865380
903d185fccf839df,-0.09987435192370069,-0.7336591961793829,-0.2868724437319812,-0.30475517279731423,-0.5809065105605026,-1.6657332068194102,1.8588171430647624,-0.8947149693467465,-0.3543449942361569,-0.6518551763255749,-0.010127350477813801,0.05035149971331204,-0.7651932932263815,-0.8493284991092938,-1.0528641590252223,-0.02308359583882179,-0.8485298198168023,-0.8959176315103323,-1.0462842216356145,-0.046364346433492284,-0.8552353084976134,-0.43568602295215586,-0.6386744656195159,-0.37686472907953167,undefined,1496069866837
903d185fccf839df,0.23276932272381615,-0.7477475561342962,-0.168202178650927,-0.29019270276492326,-0.25016992383894976,-1.6308318859912314,1.8240774099793897,-0.9285576459331111,-0.28268788360761604,-0.880996748135364,-0.003105124924014486,0.0076881364819371585,-0.5911179812834225,-0.8558093257081336,-1.0276010034760468,0.08198800504388497,-0.8612657070881767,-0.8989131134600253,-1.032878332283403,0.04952177431635787,-0.8333268525737048,-0.44207249435648116,-0.6373482598502426,-0.3927023025110532,undefined,1496069868322
903d185fccf839df,1.713032905434629,-0.7031343578210861,-0.4476511682368974,-0.5414717021471583,1.19534079155833,-1.710652583899498,1.7319053346288629,-0.9686779381878338,-0.5764817974700074,-1.2719735593712136,0.06878915384926179,0.06832253804145502,-0.6128773952762924,-0.7780393093912452,-1.0518115289244256,0.546727763503021,-0.7709084579158847,-0.8447601116372501,-1.0173733991788232,0.5458752666897564,-0.703749642023091,-0.4550269643943297,-0.5155274737115688,-0.46267842689623134,undefined,1496069869818
903d185fccf839df,0.4171089533648723,-0.49591785888829,-0.4891217439177066,-0.6234697290204316,2.696569126250587,-1.8761543477617824,1.6590281403851288,-0.9050518544158008,-0.6139105629796388,-0.9524993167738913,0.10799935974147686,-0.0800583859333496,-0.5954698640819964,-0.6984175589526816,-1.0560220714143143,0.6073459246632542,-0.6287229381743317,-0.7454342217331381,-1.0357610182116672,0.7581120366949492,-0.6325647140631978,-0.4598012206588571,-0.3648641007547934,-0.5983339943028938,undefined,1496069871318
903d185fccf839df,0.6804517560691431,-0.7289630469664196,-0.40809424378524634,-0.6219546537549341,2.453014107475054,-1.9630000327348893,1.6845004355893956,-0.93524906404055,-0.42520007423409834,-1.1505130425640586,0.11546403867696596,0.07161555742103436,-0.6607481060606061,-0.699343409825051,-1.032864150298914,0.8215303597844605,-0.62141278541986,-0.7310647719034925,-1.019920239041396,0.6889884145884637,-0.6336233087784648,-0.4720904545204807,-0.3466668733942512,-0.6229027491548841,undefined,1496069872820
903d185fccf839df,1.740753309420583,-0.7277890169701767,-0.4348909520063485,-0.5605254319525071,1.726885035120227,-1.9711803210310972,1.7237292520911476,-0.9894302230064521,-0.7456294756251259,-1.298021240108459,0.14106193918415458,0.05885692321830426,-0.3822276069518717,-0.6910109073830215,-1.0128641415726054,0.8659837571098518,-0.6101268259328875,-0.7391646070495868,-1.0172404603838723,0.667522981838275,-0.6423389403890852,-0.47040036768753357,-0.32453416470968915,-0.6237855446022385,undefined,1496069875796
903d185fccf839df,1.740753309420583,-0.7277890169701767,-0.4348909520063485,-0.5605254319525071,1.7160850555384362,-1.970980006421213,1.7245655306401086,-0.9906267100819939,-0.7474211741794429,-1.2977728389893652,0.14130960039035334,0.05885692321830426,-0.3822276069518717,-0.6928625702754365,-1.0128641415726054,0.8599219353408841,-0.6140203330047223,-0.7384869821259358,-1.0163238781162083,0.6726352655648943,-0.6408614516966316,-0.4707503880939441,-0.326463022976872,-0.6248402742607273,undefined,1496069875837
903d185fccf839df,0.8550897076876057,-0.7066564770378068,-0.45403153048912126,-0.5335859602207929,1.3525165255825378,-1.8919069934234611,1.7327547449110328,-1.1328839780148712,-0.4613486574099268,-1.162920331359652,0.10158186478831174,-0.034706268006794036,-0.45185773172905525,-0.7030467485606556,-1.016022024512762,0.6336139697406288,-0.6658624103716411,-0.7261124097539886,-1.0286452621679099,0.8503487247970448,-0.605641453756058,-0.47593997093140594,-0.3524631977153915,-0.6101079045457735,undefined,1496069877320
903d185fccf839df,0.5903608916851192,-0.7753373195019861,-0.47891407920716633,-0.48701707693995094,1.0856026965686574,-1.8787165117141555,1.7382510404351832,-1.2573574980220614,-0.24383828001942165,-1.0585595895472841,0.06085275912196397,-0.01154743425072312,-0.4823209113190731,-0.6956400710894464,-1.0233904573050412,0.6598818452296741,-0.6587826372853242,-0.7397092402279891,-1.0158760827645195,0.8346731077500569,-0.6080890336928937,-0.47598567451702123,-0.3343148033310787,-0.6344963216624078,undefined,1496069878854
903d185fccf839df,1.0089373218111932,-0.7377683011662327,-0.40043862232081584,-0.4288141794150474,0.9895754260327375,-1.8570080026150646,1.7409965573462733,-1.264540241296337,-0.28398887271066303,-0.9966761447425395,0.04863192787247819,-0.07528352028856986,-0.5998217468805704,-0.7104533936549285,-1.017074647251325,0.7346442242086566,-0.6677558575281165,-0.7923803330420081,-1.012664546406964,0.3736590472316295,-0.721573201092011,-0.46849539520204875,-0.3884523728446612,-0.5858147907410367,undefined,1496069880343
903d185fccf839df,0.6430296730605957,-0.6673264429356816,-0.3972481870577545,-0.40574770198905935,0.6616159757091018,-1.8424316236159834,1.7772799855885673,-1.1964944099166421,-0.41520077073278877,-0.9466823477917731,0.05851176233672314,-0.06929444281482372,-0.7260263480392157,-0.8409959772411023,-1.0507589135480964,-0.08168123924768395,-0.9455494593866473,-0.8996477338580262,-1.018555860932678,-0.15475400278560686,-0.8713694525244492,-0.4539023649501837,-0.49956132639505785,-0.5160908578875866,undefined,1496069881830
903d185fccf839df,-0.25094987044003714,-0.6743706229131381,-0.43297730077719027,-0.386121245119087,0.11788317264240243,-1.7873008620657482,1.8353276976741273,-1.0079195174473166,-0.25493311203646307,-0.7622760147526044,0.04443531622817943,0.07850353258449183,-0.7956564728163993,-0.8817326839065917,-1.0549694413135173,-0.06147517139524546,-0.9345200021266258,-0.9401785744453013,-1.016666722008209,-0.1023530966744159,-0.8777963635278478,-0.4613463129183735,-0.4843825892152403,-0.434916256362719,undefined,1496069883329
903d185fccf839df,2.629188385663436,-0.561076611363741,-0.35194980064473,-0.580373925626641,1.6712599869225497,-1.8617806143772464,1.686804148661158,-1.0320502773507012,-0.9617918649196937,-1.920484924944184,0.15127920003178522,-0.05639807439585684,-0.7390819964349377,-0.607685837635015,-1.0423378506550205,1.4903516254312894,-0.20139238986379465,-0.7093237790107288,-1.0160999799357064,0.6300893510500924,-0.6354223387320428,-0.4803663876337243,0.19903921671113545,-0.49150223997768516,undefined,1496069884820
903d185fccf839df,1.4732524668216649,-0.6614562344984829,-0.4017143898069213,-0.5755656784687336,2.719290223764677,-1.9367588250692016,1.6304474122492236,-0.9630336117225468,-0.707708546999242,-1.5822019861123213,0.13377065170731336,-0.05019226483774175,-0.6825075200534759,-0.44473908867770523,-0.9602325040125563,1.5327844484758666,-0.18418159775780668,-0.6825797571911659,-0.9682277989999218,0.4856981261347665,-0.634234417395417,-0.495024853848512,0.20852637985025088,-0.5201994966244012,undefined,1496069886318
903d185fccf839df,2.8537229540393043,-0.8369738943047318,-0.29452857347031053,-0.5433892710300063,2.0625587490043125,-2.016162589190995,1.6729424425577804,-0.9926877175021096,-0.3980556983362317,-2.07542492036173,0.10290954668050545,0.007342264803342592,-0.7260263480392157,-0.4549232734383116,-0.8886534510158267,1.466104394884862,-0.20669769623177228,-0.6795779415115889,-0.9445435939438043,0.5060702702814045,-0.6208362180046664,-0.5145427232086238,0.2107204912742158,-0.5623529236219734,undefined,1496069887823
903d185fccf839df,1.6617502753790072,-0.8510622834876375,-0.2715601842553225,-0.3647038397708128,1.1955979289329763,-2.0317079318301943,1.7990994958283306,-0.8611754886383695,-0.2949221200684144,-1.2162711315292454,0.08574779967209857,-0.09133532866364712,-1.02630626114082,-0.4391840935250728,-0.8844428938014705,1.2943527121464289,-0.35845657154730576,-0.6507947123760357,-0.9074744902005533,0.8942650799015138,-0.5177808939184377,-0.5414754225474112,0.08442915169040927,-0.6550949611987135,undefined,1496069889405
903d185fccf839df,0.5279902932654104,-0.898023534486335,-0.2683697489922611,-0.2932294102274356,0.6287120358983472,-2.0695068257144413,1.827869556195835,-1.0652350338905208,-0.3514091321395629,-0.8755930895538814,0.10228303705159422,-0.03705387226554053,-0.9262129567736186,-0.44010991849589304,-0.8749692376187667,0.9326639378921033,-0.46860157006307296,-0.6182053836419001,-0.9367491468841024,1.0485267079978897,-0.4843085473120819,-0.5317360437302443,-0.0034614710338843925,-0.6851781745988557,undefined,1496069890868
903d185fccf839df,0.10664183654290482,-0.9162210140420942,-0.26390405451699317,-0.29691357455604694,0.8270408515354893,-2.109390389316147,1.8279405603655925,-1.0522605486454557,-0.23417415990353874,-0.746079291969651,0.1171478097833636,-0.016392337644017863,-0.8783422459893049,-0.7141567388659205,-0.9328640183205661,0.20322439802615516,-0.8500220890211122,-0.7561495622304286,-0.9710894946301316,0.4547010577803714,-0.6669985901040115,-0.5230401396542762,-0.26148617849366906,-0.6842057115486243,undefined,1496069892334
903d185fccf839df,0.881424098375344,-0.8745429199474833,-0.24922967878338723,-0.30743284338073884,0.15217570000015518,-2.071256085271294,1.8847680436440208,-0.86183939430354,-0.3377393350983693,-0.9071062299113036,0.10385894076390778,-0.0025508256990347754,-0.8783422459893049,-0.874325999959995,-0.9897061983705038,-0.2251444156868144,-0.9986852172928266,-0.9032385131445743,-1.0053178935672946,0.028025541040452913,-0.8290095124765331,-0.4865798174023655,-0.6201061993324294,-0.521848208603061,undefined,1496069893821
903d185fccf839df,-0.10264634401472246,-0.8005789498072097,-0.18032451113842315,-0.22231908817356397,-0.9991332344387864,-2.054103567506084,1.940335858919776,-0.8723199118802729,-0.3642815601689878,-0.6201836885851194,0.06275728249029026,0.06671046651527672,-0.8870460115864528,-0.8835843467990067,-1.0960221146347493,-0.2211031823310216,-0.9472756728862226,-0.900148036829327,-1.0897344179260613,0.0914671360906811,-0.8475557658109704,-0.4654305537376502,-0.6198799361353009,-0.46538381490478176,undefined,1496069895318
903d185fccf839df,-0.8039697802727926,-0.848714238109148,-0.14268174618982918,-0.16761192134915176,-1.4502124801033571,-2.03419555995454,1.9783260406089545,-0.7082097686481458,-0.2921321320237415,-0.5941194503765451,0.05297421015872211,0.027227118720824586,-0.8826941287878788,-0.8956201879766409,-1.1160221491288762,-0.15038190951658498,-0.9201641407725096,-0.9214457263388827,-1.1170499669585519,0.24358837711984227,-0.8199132879530169,-0.465967140452413,-0.6548291483692258,-0.4116737120321059,undefined,1496069902455
903d185fccf839df,-0.7623893295682055,-0.8663246880527897,-0.09993489474901564,-0.15383640187869602,-1.443969061414854,-2.033722724179033,1.945235192724005,-0.9304100124672282,-0.28950429262743244,-0.6197167920784612,0.0496999448291428,-0.008740570989536388,-0.852230949197861,-0.8956201879766409,-1.1170747718674392,-0.17260860817928061,-0.9408027664287326,-0.918348916996908,-1.1172108936515348,0.23196255103675534,-0.8229410216564601,-0.4651490325490451,-0.6526865417253878,-0.4097834843364771,undefined,1496069902843
903d185fccf839df,-0.7069487286287559,-0.8669117176649073,0.1055048406997711,0.0733239237564886,-1.358206918911948,-2.0216153390344758,1.959607079651809,-0.793183133382401,-0.287329526695455,-0.7203023608580498,0.0005174250321209309,-0.15585040362909927,-0.8174158868092692,-0.9224693711459191,-1.1086537273799477,-0.09582554186059788,-0.9309059123286011,-0.9251441660942695,-1.1036510738116276,0.031474790074109846,-0.8593105102874619,-0.4700976001635246,-0.6816971354672259,-0.42165220420977056,undefined,1496069904315
903d185fccf839df,-0.5378550027302049,-0.8152543393742405,0.651642603641163,0.6296191898461208,-1.0385685980725843,-2.0089256440401515,1.9162810209735226,-0.9948201179927745,-0.31432836872905057,-0.6130807038030616,-0.02943493145626618,-0.2981198279175439,0.3619443516042781,-0.9002493711092276,-1.124443212021952,-0.06349578807314185,-0.9107420332858357,-0.9001733692130697,-1.1065897348875484,0.04828989287839939,-0.8464384315818356,-0.4748777442760329,-0.6654865082019967,-0.42596350587588094,undefined,1496069905819
903d185fccf839df,-0.35074296593321025,-0.7559657953359881,1.3643013154596928,1.2540382210450691,-0.8329472300669476,-1.9823816338491091,1.8825064189504157,-1.1292233099719267,-0.4316189816443454,-0.5361814914083038,-0.07028551378209404,-0.3407008608502691,1.1322276069518717,-0.8696968362535702,-1.131811644814231,-0.055413349626277836,-0.9368237592994988,-0.8626253466702594,-1.095597745257205,0.07703879132089267,-0.8194636033173313,-0.4773520501145818,-0.6877756078767449,-0.4500886951954782,undefined,1496069907324
903d185fccf839df,-0.40341154027622833,-0.7606618714789706,1.6590623103853723,1.6017224138277169,-0.7992204308921776,-2.000906072733526,1.893530569735325,-1.0686206031036356,-0.42364506253667944,-0.5751843379949162,-0.05235388812679679,-0.3113573938517502,0.061664438502673814,-0.795630152196899,-1.1391800776065102,-0.06551643301575977,-0.9638813734421109,-0.8163441937056024,-1.076272553273267,0.10142992762889111,-0.7909171262214932,-0.4857541575469971,-0.6853770903610309,-0.4705677131371957,undefined,1496069908865
903d185fccf839df,-0.403411574781638,-0.790599694839146,1.5748448832637496,1.5282123938360548,-0.9818121233907254,-2.0088231572395787,1.900652091132661,-1.065381411509606,-0.41071026319922305,-0.8376449523934234,-0.026556080794099008,-0.3188958073019389,0.11388703208556152,-0.750264262398823,-1.1318116300897636,-0.08976367769454796,-0.9691118713061482,-0.7429390436295387,-1.0784065811595405,-0.11645807457447556,-0.8079830895221192,-0.4952524004508101,-0.6270674089493656,-0.5248577700230072,undefined,1496069910324
903d185fccf839df,-0.6376480637179683,-0.6878719532559339,1.8530181053636146,1.838745985565168,-1.1437809917327286,-1.9663634559834717,1.9520174658082048,-0.7212592207375582,-0.35399964513644916,-0.9356219943374717,-0.0442784359903051,-0.3474401676538121,1.114820075757576,-0.7002692218450967,-1.1149695079847286,-0.031166090815128878,-0.8833739212177641,-0.7135351865838777,-1.0724802823836972,0.15413880227206309,-0.7369799858151306,-0.4935371803833226,-0.5629195731521571,-0.5082032406713484,undefined,1496069911833
903d185fccf839df,-0.5614171597890533,-0.4507177332609355,1.2449929124986363,1.2388720003118392,-1.1622438161743258,-1.8339275719663914,1.8949901143239745,-0.9412376341734604,-0.3315035969480318,-0.9101784132071409,-0.07477743066775185,-0.44175149821694004,1.2192652629233511,-0.6512000515899015,-1.0928642353757096,0.8073862691569581,-0.6474544922217689,-0.7076455485154334,-1.0472777696364912,0.5803985703816239,-0.63013744292526,-0.5019270941803503,-0.6071959699586,-0.4909947084688487,undefined,1496069913331
903d185fccf839df,-0.6307178937106603,-0.5170504280486523,0.5316960628001044,0.40186713744985125,-1.0516108616532938,-1.7808931215158457,1.9272762329213526,-0.6567091474353576,-0.31775633240268186,-0.7016770802210619,-0.10368862110218348,-0.34899936395616715,0.37064811720142604,-0.5928724956433711,-1.047601015883472,0.9973233324081293,-0.5963019407100304,-0.6877727698660742,-1.0210397278029344,0.904674431769515,-0.5517182165973739,-0.48602648280385613,-0.5401943719082237,-0.48217377560055186,undefined,1496069914814
903d185fccf839df,-0.571119321887383,-0.41256161224308363,0.49086337086234794,0.3909028470783795,-0.9029722571212625,-1.7621310988852659,1.8854123523015058,-0.8622382850109567,-0.42911775909402444,-0.7946842805529865,-0.08771404799612793,-0.07219193052253686,-0.7303782308377896,-0.5539874583456841,-0.9749693475104132,1.0397560282614595,-0.5770491053997411,-0.6523842812944278,-0.9690884079183459,0.9179324928275867,-0.5181010895290331,-0.46328992059482454,-0.5575617266156241,-0.5261330498966474,undefined,1496069916400
903d185fccf839df,-0.3341107718492115,-0.4947438288920472,1.00829052021653,1.0794152232181962,-0.8181358293143298,-1.7841307634968158,1.9410564219262496,-0.4716008291657367,-0.30712950087432206,-1.18026213635292,-0.19392297257090862,0.04539008399378488,-0.7129706996434938,-0.5586166803305944,-0.9612850973021843,0.9346844697758351,-0.5790983759854978,-0.6504970642391283,-0.9526528991078606,0.9532103319239087,-0.5093775447384137,-0.4523507312972798,-0.5496878179739185,-0.5417450382833182,undefined,1496069917817
903d185fccf839df,-0.2814423010224226,-0.42254089643913956,1.065712001527899,1.102569967848571,-0.7837198876957888,-1.8148930276650646,1.959417727517296,-0.38470940427275807,-0.31107388475744746,-1.0618926034130383,-0.11467992670019063,-0.013472150318476863,-0.7042669340463459,-0.5521358084040436,-0.9623377347652148,0.791221335733787,-0.5860005540393405,-0.6478435612424777,-0.9566550753942167,1.1884677784367166,-0.4603646728048064,-0.4483676958915449,-0.5188581042622201,-0.6023317856720416,undefined,1496069919319
903d185fccf839df,-0.5073626756640487,-0.5223336214877294,0.004060994598432623,-0.023695799173778887,-0.8005164299573472,-1.810462815733686,1.924036319244228,-0.6616552471011222,-0.30330278589373555,-1.0090150421207809,-0.04886208169490386,-0.03753625913171031,-0.6259330436720143,-0.5734300093714639,-0.9918114917021494,0.6619024619075705,-0.593151377981264,-0.7011479474110259,-0.9912892887627551,0.8555995862533606,-0.5614704213344414,-0.42613925955166077,-0.48159464821079123,-0.562943505075074,undefined,1496069922419
903d185fccf839df,-0.4657822767175761,-0.44484752482373696,-0.28623455998892844,-0.27505560166487736,-0.8326489453409591,-1.7591100791736958,1.9234577593396605,-0.6133568751889181,-0.36254795122513034,-0.8402168046350379,0.00030615934518900224,-0.04866701872463477,-0.6955631684491979,-0.6474967063789095,-0.9749693217425949,0.26384267224527447,-0.6626486189745213,-0.7390252842043705,-0.9855938849110029,0.6052516578182677,-0.6317391745196933,-0.420546056731406,-0.458323234603202,-0.5028119433329342,undefined,1496069924012
903d185fccf839df,-0.4838003805835614,-0.49533081466217627,-0.412560954808312,-0.4572970218574793,-0.8249038127702888,-1.7778301752346926,1.8598190871854328,-1.0707745131458763,-0.44785508015985803,-0.7505546622128472,0.05454689117299246,0.11349231798320947,-0.504080325311943,-0.6743459089743497,-1.0265483586507822,-0.00691880373925838,-0.7582667042247722,-0.7559785741962088,-1.002533164233067,0.3842839658525284,-0.6880590488981818,-0.4241612382940348,-0.5214959985816147,-0.5225073386216498,undefined,1496069925602
903d185fccf839df,-0.4200436653494076,-0.5657727605767044,-0.3870405223472142,-0.4500605803622029,-0.8967185482685575,-1.7866812837877823,1.8821277356318256,-0.9524397442827842,-0.43526023407351444,-0.6899605478410986,0.03671175955707632,0.04044880179608434,-0.4779690285204991,-0.7160084082337228,-1.0076009726630368,-0.04328970608834259,-0.7848741724033674,-0.78081637951487,-0.9930734757504048,0.3462190095843581,-0.6973786643116457,-0.4345520821656741,-0.5387757387469306,-0.5468408425780493,undefined,1496069926852
903d185fccf839df,-0.4810283539871299,-0.5522714156199126,-0.23902201407284696,-0.2907668732807844,-1.0054383662652484,-1.784680467643489,1.9192342939295233,-0.7125111645023505,-0.3999544234176424,-0.5155828302095381,-0.0047224849824820895,0.04194743680235824,-0.678155637254902,-0.7734101197832712,-1.0391799382659286,0.08602919600259544,-0.8391397917007123,-0.8126204229727858,-1.0314929638705133,0.37532207038739257,-0.713567740894297,-0.4666516182175298,-0.5612208856378451,-0.5414135718886708,undefined,1496069928360
903d185fccf839df,-0.5572591889052255,-0.4865256189183478,0.16164928384028743,0.06716594157330534,-1.0691479740536092,-1.8298560618973851,1.9138589630795693,-0.7940220175908301,-0.42714090826060475,-0.4356182741295438,-0.030021691854086728,-0.024353775352761287,-0.6128773952762924,-0.7919267810843581,-1.0539168112127206,0.32041960004971487,-0.7867358422901369,-0.840586701931022,-1.045724477426123,0.6037426075393812,-0.6799187567217768,-0.47309525000818037,-0.5373232418849555,-0.5319450896143945,undefined,1496069929837
903d185fccf839df,-0.6140857686374811,-0.6227132738504637,0.07551820548950648,0.11151524668614735,-1.073138827857408,-1.9063249852357433,1.9552021405185709,-0.6661714703043484,-0.3735726998227898,-0.36937952812329883,0.004175787746605634,-0.01832446535817829,-0.6215811608734403,-0.8206276724737622,-1.0423378359305528,0.42549127159422545,-0.7600860950805051,-0.8531132644307801,-1.0348234459456847,0.5741929921011129,-0.6898356320686333,-0.47088438868272375,-0.5181803578523303,-0.5117280608919891,undefined,1496069931365
903d185fccf839df,-0.5059766623658329,-0.5980585854733808,0.7550003551086091,0.740431114001302,-0.9252407903313182,-1.886547415252096,1.9363937641486173,-0.7341962814649946,-0.3386294121291919,-0.4485720614615525,-0.001443814914829942,-0.09879028142025528,-0.8000083556149733,-0.8030368167173338,-1.0476010122023551,0.23757482502095065,-0.8235081867123053,-0.8188837030793433,-1.033906863249826,0.24486644403972904,-0.7508148473479435,-0.47450750951327386,-0.5964316208352455,-0.4942385033232232,undefined,1496069932826
903d185fccf839df,-0.4782563964015179,-0.5869053297370668,0.7320314576197222,0.709820847016455,-0.872506017860112,-1.836801853805885,1.8832296101890704,-1.0135240966091008,-0.26134646811767115,-0.768915777523446,-0.018805435227330577,-0.0604017125002451,-0.8000083556149733,-0.7511900938450305,-1.0433904733935835,0.06178188066200341,-0.8505451338425124,-0.7933619404248736,-1.0387696469192238,0.10452501311732375,-0.7713587977746962,-0.4723029814875121,-0.5964852790168775,-0.528549018745912,undefined,1496069934323
903d185fccf839df,-0.37707728761012904,-0.5945365247126447,0.5119176005742789,0.4264301931958513,-0.7861575922764428,-1.8357886342092804,1.9215958522022683,-0.7416410309112309,-0.26997543442155725,-0.769500961202359,-0.025247215837207772,-0.031061446531794233,-0.6520443404634582,-0.7521159252912382,-1.057074701515111,0.07996733183654552,-0.7872430534578976,-0.781449673589166,-1.0519516392959947,0.031967537878250664,-0.793494787846398,-0.4467354880124694,-0.5679163525796227,-0.46112170747749703,undefined,1496069935825
903d185fccf839df,0.8523178191128132,-0.756552781106117,-0.0648446813204303,-0.298245296519024,0.040041029714465576,-1.814886041403891,1.88685874944412,-0.6574756466122919,-0.20936618243629235,-1.1012455383949245,-0.03173527275589467,-0.1305562688383781,-0.7738970588235294,-0.6530517209577038,-1.0623378704246795,1.0478384667083236,-0.4454364241601128,-0.7091844518413765,-1.038433800749542,0.5199134737203646,-0.6606263367825945,-0.46072691177304337,-0.3558546548341244,-0.4477727660620917,undefined,1496069937376
903d185fccf839df,0.7261903329319018,-0.6379756638016197,-0.3513119169016773,-0.5009457001247417,0.8884053226316608,-1.9106014678544208,1.8503780864658135,-0.7047124830032755,-0.2888208190376168,-1.0524111718055278,0.039132094116117865,-0.011625071015509357,-0.8000083556149733,-0.6215733740820008,-1.013916749586701,1.2943526132199037,-0.33188880198030046,-0.685948882341672,-0.9958931903930134,0.520052062367994,-0.6340964315785866,-0.472768854886072,-0.22305953191704211,-0.4976949565133326,undefined,1496069938825
903d185fccf839df,1.0297275212844295,-0.5775130313111398,-0.473172108971894,-0.5090287035007569,0.7018124963077538,-1.8385208316609707,1.7848301864246752,-1.077638045881667,-0.6395682288505153,-0.8636277748689558,0.03319899406518645,0.06613282210529907,-0.7695451760249554,-0.6512000451145142,-0.9686535448189308,1.302435037534407,-0.34046289191260604,-0.7027121846266852,-0.9723909029763418,0.4915649366903491,-0.639556239507275,-0.4725085514399429,-0.22470688960294194,-0.5031349631872742,undefined,1496069940320
903d185fccf839df,0.5252183011743886,-0.5581415363731341,-0.18287655438453293,-0.2631026182636091,-0.27145102500797735,-1.8826436107596833,1.8869718524672534,-0.7778030623133465,-0.7182027877475571,-0.8884412958814026,0.006412682523979053,0.06921737114934708,-0.8913978943850268,-0.6465708684573148,-0.9802325127388648,1.3206205028413098,-0.32710480883207593,-0.6909329095140794,-0.9661427506249036,0.5046074203737606,-0.630725849563205,-0.4719449036623714,-0.22889607384604582,-0.5001904260658365,undefined,1496069941818
903d185fccf839df,-0.6140857341320713,-0.596884555477138,0.38878164101795676,0.24668214658192825,-1.1813135053374317,-1.8424339542228878,1.857249783342995,-1.239201957621913,-0.3801796462593927,-0.6869544852427184,0.014393881285717263,-0.03406960990118231,-0.9523242535650625,-0.6465708814080894,-0.9823378023893936,1.2721259286895688,-0.35028605092691495,-0.6783620169124163,-0.9525969246453154,0.5304614092145534,-0.6132275625456822,-0.47498647232746644,-0.26247734286079877,-0.5340099153827896,undefined,1496069943344
903d185fccf839df,-0.6182438085321283,-0.6180170954095079,0.7071496713125254,0.6579228667355503,-1.0395148890178991,-1.93991261555821,1.9091227064206961,-0.9884968924363555,-0.3584432062257163,-0.564646672922418,0.0941285300198384,-0.015521706054871472,-0.8783422459893049,-0.643793367643305,-0.91286399486979,0.20928636111873045,-0.6465708084214649,-0.648103212243304,-0.9168432213162945,0.33174447448621,-0.6257208618182523,-0.45333361038184494,-0.3968529423784812,-0.5111261501908182,undefined,1496069944842
903d185fccf839df,-0.6487361010928749,-0.6831758624989551,0.9381095850854605,0.9156276964582322,-1.0603228473029438,-1.9580736935491267,1.9096670773089537,-1.0150691416640691,-0.3171271464674721,-0.6254469273297462,0.1520487913332469,-0.003889469423931816,-0.9218610739750446,-0.6771233774114231,-0.988653568269707,0.15877097243604232,-0.7375386393518047,-0.666449748875252,-0.9719990822890611,0.09865820689660475,-0.6898149771459048,-0.4248157641225599,-0.6482032975080962,-0.5147197878702597,undefined,1496069946316
903d185fccf839df,-0.6043837100553805,-0.768293095682541,0.8047651984077498,0.7550647174911682,-1.009079499595975,-1.9708472406859587,1.9846297062231197,-0.5286975598218143,-0.31958020585554714,-0.5059285564116713,0.1374598839876844,-0.017589399951054005,-0.8348234180035651,-0.5863917014214675,-1.0149693870497314,0.24767773882210337,-0.6689535424191857,-0.5917400124459391,-0.9916741146149698,0.254475077054156,-0.6310156346058535,-0.415995555834946,-0.664000427321281,-0.5283853893191709,undefined,1496069947834
903d185fccf839df,-0.6542801197803282,-0.7142876720133848,0.6006017387189674,0.5632302954646898,-1.164136381964762,-1.9638199256472029,1.961006154997383,-0.7214807191905744,-0.334237050617015,-0.4190230702579326,0.09618210393536417,0.035055471991885766,-0.843527183600713,-0.5345449850245515,-1.0254957175066348,0.326481450083404,-0.6817868764877221,-0.5544643068688232,-1.0004201285044354,0.3316058900522836,-0.6029142998163334,-0.41898689674514117,-0.6778617467083047,-0.5362543866625599,undefined,1496069949369
903d185fccf839df,-0.6764563670571899,-0.7283760611962905,0.45960096816597784,0.4108562383064703,-1.1355010013136406,-1.9592988721146825,1.955885919797251,-0.7441099120703394,-0.36600916934208666,-0.37069749828506127,0.07167986923605595,0.024383225273676812,-0.8957497771836007,-0.528064119573388,-1.0339167803997107,0.5830986941168268,-0.6168056407964329,-0.5441226100595721,-1.0005950485867232,0.6434860056964612,-0.5286539750000079,-0.41843445393699885,-0.7255475012334793,-0.552985435609936,undefined,1496069950832
903d185fccf839df,-0.19966741291146406,-0.7412903765409649,0.1973783975597232,0.20245550960178468,-0.8880168467295326,-2.0022430556137487,1.9413036412597027,-0.8087971632935798,-0.3127092935477663,-0.5574028935887848,0.05707464368062867,-0.028859531856838656,-0.8174158868092692,-0.586391714372242,-1.0476010011590045,0.9851996323407509,-0.5909203557816655,-0.5771995753572069,-1.0145886698384785,1.3596677058803126,-0.3906017974549565,-0.46663715053752597,-0.7294398897605676,-0.5102755279322451,undefined,1496069952319
903d185fccf839df,-0.3881654285012648,-0.664978382943196,0.06913835151118145,0.11204469660791941,-0.815533542050057,-1.960260847532475,1.9161337540746017,-0.9142487860029169,-0.24574614435586467,-0.7189385228656598,0.049514524489744215,-0.017004595958166405,-0.7216744652406417,-0.5752816657884917,-1.0654957791326545,0.888210484037269,-0.4546232147525032,-0.6366405845692545,-1.043667415731842,1.010246179524586,-0.4966425824426823,-0.463193669920923,-0.6234090504734775,-0.45151500714119663,undefined,1496069953854
903d185fccf839df,-0.4325178195387591,-0.6960902070716218,0.016821210828981525,-0.02751965701505519,-0.8772065809325685,-1.9557025265294539,1.9446303253571053,-0.725472777617786,-0.23203196433716544,-0.75091875458977,0.011514862089358197,-0.04678785414606882,-0.6650999888591801,-0.6058341682672128,-1.0454957409574108,0.8255716779344179,-0.46744439555809686,-0.6674756874784293,-1.020612923648508,0.9922146003512406,-0.5149943786598459,-0.46249972603782075,-0.5711635127738572,-0.440437232954262,undefined,1496069955336
903d185fccf839df,-0.5489430401051115,-0.7031343870490785,0.3409307030849236,0.3049008620462383,-1.1143021814318033,-1.9282897107457462,1.9275707698617592,-0.8733325612800967,-0.2314600164529288,-0.9030253772583573,0.003861523432335984,-0.07927522500427847,-0.9305648395721926,-0.6474967322804587,-1.0381273155273656,1.0741064835209766,-0.4869806605212295,-0.7278349738226788,-1.0107194323715416,1.110813425105344,-0.5177584864175182,-0.4512234830993672,-0.4738173744626714,-0.4379738243284133,undefined,1496069956826
903d185fccf839df,-0.5447850002104643,-0.807036129400541,0.5808227682192431,0.48148966787449105,-1.1394712839914327,-1.9593128482313416,1.9524539964228214,-0.7519674373179177,-0.27477988396632136,-0.8787585517538704,0.04138188964265692,-0.031069779928423927,-0.8261196524064172,-0.6576808781887414,-1.0318115349225847,1.1023950039526398,-0.4832685605982733,-0.7296461945240297,-0.9989927772321235,1.1026830472828602,-0.5160453658766161,-0.45691150424280613,-0.48758177808180586,-0.43404456804751573,undefined,1496069958324
903d185fccf839df,-0.41449961215654463,-0.7682931102965371,0.48065519787790884,0.4875488495928872,-1.0878165135722717,-1.9316018895957983,1.9625235290741876,-0.6340389511339535,-0.3111740725441678,-0.794668685818801,0.012813750639863218,-0.08019772043701853,-0.7129706996434938,-0.591946677147938,-1.0549694486757513,0.18705954939714867,-0.8230244102252371,-0.6952329782765652,-1.0068711866952222,0.1930352771387094,-0.7078287780666183,-0.4423902236835318,-0.5505689710910534,-0.3951829659315612,undefined,1496069959827
903d185fccf839df,-0.3701472383717551,-0.524094608026109,0.4098358707298877,0.37976354265291695,-1.1813546449887684,-1.8757444034271482,1.9283334201988689,-0.8061531183057477,-0.414786961244136,-0.5981820513468948,-0.02755321736542954,-0.012351380296396753,-0.9088054255793226,-0.591946677147938,-1.0623378667435626,0.17695650840474902,-0.8251291157683964,-0.6824277660833653,-1.0170445497649643,0.09078960086968306,-0.726220493549387,-0.43088959377379144,-0.5389028565454657,-0.36887705572318474,undefined,1496069961324
903d185fccf839df,-0.652894158240227,-0.5012010523273671,-0.03358177035016135,-0.08774980877659794,-1.3007510146749113,-1.8442880281909007,1.915018712168407,-0.8840359698033701,-0.41517386580570625,-0.6420562513090344,-0.04978292811878343,0.00034041675981616546,-0.9175091911764707,-0.5706525085574541,-1.073916819939029,0.2113068223406584,-0.7268622829534099,-0.6895586611291885,-1.0190876186571782,0.11892256294825441,-0.7210263589758689,-0.4283279663990891,-0.4291496537921448,-0.37157127382315114,undefined,1496069962878
903d185fccf839df,0.25910340286286676,-0.6778926836738741,-0.2766642707475421,-0.40316700386779675,-0.8403940692613762,-1.8334920050644086,1.877906892168738,-1.0255507884846737,-0.3220063074804886,-0.7934064425946078,0.0026549540855096937,-0.03412691396068032,-0.8565828319964349,-0.5382483496617053,-1.0286536225334928,1.421651039956553,-0.3677138805206552,-0.6731563368607901,-0.9874340459085353,0.7648565522732976,-0.5577257027858473,-0.43672530203111815,-0.26954792842241315,-0.22171660362951082,undefined,1496069964329
903d185fccf839df,0.25910336835745706,-0.7442254369175756,-0.1809623948814759,-0.2818044655462772,-0.5059032006421368,-1.8705711646759002,1.9196103553010637,-0.7295414033263534,-0.24200117562105639,-0.7343600194144243,0.013613989100990346,-0.03731148753537341,-0.9392686051693405,-0.5650975004540472,-0.991811436485396,0.760912212756588,-0.40671539195307604,-0.6833460426342172,-0.9857268243727132,0.6484289040999557,-0.5849416050227514,-0.4202445484648329,-0.3000887698877685,-0.2261828031259928,undefined,1496069965838
903d185fccf839df,0.03595502031226251,-0.6638043529469532,-0.03102972710405157,-0.14553593450279428,-0.3583960225522769,-1.8819029138794106,1.9218430547753729,-0.6965213390712773,-0.2582630596147926,-0.704792091513008,0.016312123242767613,-0.02884174629495234,-0.9131573083778967,-0.6521258765607217,-1.0454957409574108,0.5204598032198111,-0.4016593400635279,-0.7420524310496239,-1.0096349271689045,0.6002163713537835,-0.6306395740221578,-0.41440626449441215,-0.23395495303895758,-0.22114882489713716,undefined,1496069967328
903d185fccf839df,-0.5600311809962473,-0.5734039555522825,0.333912457089647,0.32191841654370634,-0.8101541277643094,-1.9088941368287555,1.975165003227869,-0.47874352811569926,-0.34315635205239503,-0.6120762535276344,0.024384393102892886,0.06919949577878329,-0.7303782308377896,-0.603056693354752,-1.0328641650233814,1.07612704366943,-0.4039867958287383,-0.7309381142756944,-0.9907715247823492,0.7112545607265287,-0.5926731571321712,-0.4354459060555367,-0.24860980016866463,-0.2871764714839901,undefined,1496069968820
903d185fccf839df,-0.5614172633052825,-0.568707806339319,0.5635971116503755,0.44336283217791816,-1.038434887319946,-1.8805915501806179,1.9443726109027983,-0.6886020587278111,-0.3881693944448143,-0.6445016325376319,0.025745375424345015,0.030433057270392465,-0.6085255124777184,-0.4984374420654871,-0.9665482846173372,1.0761270154047085,-0.4192053759807713,-0.6703128453877177,-0.9573757464312665,0.9863169927970673,-0.5043691233025749,-0.4361732524772146,-0.3192717978537681,-0.33147342615113107,undefined,1496069970334
903d185fccf839df,-0.49766051356571894,-0.3292053948258696,0.18589394881527976,0.08533676220416586,-1.0473011564106485,-1.7417106602293206,1.8973884992729069,-0.803146875595438,-0.3637243830478253,-0.6071974861739022,0.010671002607850416,-0.03152816674867571,-0.49102467691622104,-0.6326833643872656,-1.014969401774199,-0.2594947861521668,-0.7987742945232236,-0.7409694965789934,-1.0016795532265907,-0.08649270018025806,-0.7796508604490002,-0.4461207818891529,-0.570902225581813,-0.4869836327239321,undefined,1496069971834
903d185fccf839df,-0.5822074627785188,-0.4207798514447754,0.3587950058076921,0.1523768094935179,-1.0901205068841529,-1.6216244035972525,1.8455339790580814,-0.965440880000719,-0.3094018731825365,-0.7202926435083457,-0.03217101875047273,0.13935177842115987,-0.5998217468805704,-0.648422557251279,-1.0265483476074315,-0.33627790900029264,-0.8331196629828195,-0.7493353155034914,-1.0083894946799294,-0.1774667155942103,-0.806782299377095,-0.4498475480241159,-0.5737143028994631,-0.49719681375333474,undefined,1496069973331
903d185fccf839df,-0.6140858031428909,-0.45071767480495084,0.2726634191830123,0.15031622561313598,-1.1021959199485498,-1.606959513847662,1.8002250485682056,-1.2505249618971852,-0.28947548401037043,-0.7152637332745843,-0.014509613200026736,0.029967851598604104,-0.7608414104278075,-0.6484225443005044,-0.9654956471543067,-0.2716184296901021,-0.8508722364828974,-0.7268406996887385,-0.9823473646948099,-0.13599870215544624,-0.7809345579286295,-0.4393154958085599,-0.5761917274872165,-0.49168389306066884,undefined,1496069974889
