UUID,iqrAccX,iqrAccY,iqrAccZ,iqrAccXYZ,meanAccX,meanAccY,meanAccZ,meanAccXYZ, covarianceAccXY, covarianceAccXZ, covarianceAccYZ,pressureDerivative, pressureIQR, iqrGyroX, iqrGyroY, iqrGyroZ, iqrGyroMagnitude, meanGyroX, meanGyroY, meanGyroZ, meanGyroMagnitude, covarianceGyroXY, covarianceGyroXZ, covarianceGyroYZ, class, timestamp 
903d185fccf839df,-0.5420129736140328,-0.6227131861664867,-0.4903980196777109,-0.5009832357112093,-1.246702844493764,-1.403198924081583,1.8120108182841503,-0.8343575246727972,-0.2632317257254877,-0.6841506618037398,-0.019967319042111277,-0.5401823966048462,-0.5127840909090909,-0.6169441715232522,-0.34128435560365905,0.9629729336780553,-0.5711189640753342,-0.7950338356710954,-0.6789530024077846,0.6537110511298692,-0.5392918639982475,-0.4276490498131835,-0.7798057472170024,0.007833120715330688,undefined,1495191358481
903d185fccf839df,-0.6903166035555767,-0.502374994639633,-0.3755555653288719,-0.29144123234444524,-1.2423798417411704,-1.3519166144376542,1.8120669927227488,-0.7077721930316878,-0.2770643437389234,-0.7091970236255281,-0.005921771420326036,-1.00525792558159,2.4247367981283423,-0.7558192575514555,-0.8760218382706283,0.6134077746969433,-0.797129381164942,-0.758223603367945,-0.8496983238649118,0.5386418353536805,-0.6075384563509033,-0.37383630454132116,-0.7234884726677525,-0.36526495834339523,undefined,1495191359899
903d185fccf839df,-0.40479757082714896,-0.4471955848162225,0.013630775565920164,-0.062460459281612195,-0.9805395565032041,-1.3894101222355904,1.7888469061828671,-0.8417345090105532,-0.34169613690119066,-0.6888904473067252,-0.04972153489600754,-0.6567719738291378,2.9904815619429588,-0.5169541422188977,-0.9160219072588818,0.46186231526691734,-0.7505996658543445,-0.5824661496078378,-0.9087096973944224,0.31706857012765105,-0.5884346860475134,-0.44100017188337015,-0.7086948048792878,-0.35728769831868545,undefined,1495191361521
903d185fccf839df,0.06506136858561277,-0.4196058799045173,0.33774077609576114,0.11963023943767649,-0.42290792349992773,-1.4234760227206524,1.7539615062299185,-0.9634058881667618,-0.41005120689374447,-0.39934693421556516,0.02818361889194572,-0.4246404770694677,1.254080325311943,-0.4577007483507724,-0.9412851033003433,0.08602913947315237,-0.8502724096622523,-0.5183148430400483,-0.9164721640955847,0.13518083411357198,-0.5976976757218786,-0.45154253139858863,-0.6994383102059375,-0.39370641986413885,undefined,1495191362875
903d185fccf839df,0.3048420142310353,-0.3738186515950644,1.1129245474439804,1.1282301110883737,0.334253090302262,-1.4411502912739007,1.7840596351544344,-0.5641562808030786,-0.35412655869544496,0.4888051606099142,0.034850165110704025,-0.09830754242251581,-0.49537655971479505,-0.4762174549795702,-0.9676009220803679,0.14058559192330405,-0.8784520191204722,-0.510913569011037,-0.904987252734994,0.10559882387043086,-0.5975019076000834,-0.4552379078037492,-0.6621693181926794,-0.42592530865438594,undefined,1495191364397
903d185fccf839df,0.15653845330031085,-0.423127911437261,1.1939523017133902,1.2527080977492089,0.739962126008064,-1.484269167493682,1.7402707368279162,-0.810248249800888,-0.3115606169574341,0.8730125035502044,0.049972025455464086,0.0546164239431779,-0.5954698640819964,-0.4706624533515505,-0.9539166939588403,0.19312142769555937,-0.8887336072435345,-0.5115098693163721,-0.9111237884191825,0.13540962952929372,-0.592331538135034,-0.45436141034680294,-0.6621640428209375,-0.440237208970897,undefined,1495191365923
903d185fccf839df,0.027638940522968,-0.4389773748425231,1.1920381422103332,1.19326278003345,0.9104475612804672,-1.5005039652906504,1.7487544953718994,-0.7138835501542596,-0.3603562460039083,0.7069054901511628,0.06039199242211871,-0.001900218554882558,-0.691211285650624,-0.392892365805402,-0.9907588284713006,-0.012980597243504468,-0.8336881567132118,-0.4769807417621391,-0.9254842840152225,-0.0258074259090912,-0.6125022182741668,-0.46913150123640546,-0.5828424409786737,-0.4818401386908701,undefined,1495191367426
903d185fccf839df,0.13713412910365136,-0.42312796989324564,1.3107084072913873,1.4062963860210127,0.8388899642651335,-1.5124389858741478,1.7715917353620063,-0.5968614125868517,-0.3353767572470987,0.4181687386409058,0.031090696660774356,-0.12593996760157006,-0.6607481060606061,-0.43825824265270347,-0.9770746150742405,0.059761235719385485,-0.8640086023831537,-0.45893185082542887,-0.9240079574830132,0.08689379668922446,-0.5829125498680078,-0.48314224196304045,-0.5596718384736665,-0.49516062081979856,undefined,1495191368915
903d185fccf839df,0.3173159958933381,-0.4401513463827812,1.146101363780357,1.2419931686587589,1.1540540005851199,-1.518467058994087,1.7863081228772215,-0.3497604650100882,-0.4309321350318128,0.4345792955786809,0.014845693235267358,-0.03545911796844765,-0.5301916221033868,-0.49843746149164897,-0.9349692932466273,0.12442071502957604,-0.8353797241181546,-0.47984323309606347,-0.9031294734966872,0.13983365183738683,-0.5757696186932226,-0.46210478840850894,-0.5467011174301003,-0.4742593878775192,undefined,1495191370390
903d185fccf839df,0.5418505642692067,-0.4002343265105268,1.1384452340420277,1.3479678920694258,1.0923603960660313,-1.5154157555126846,1.7174361402590563,-0.7554483350237587,-0.44283441322977113,0.5265373263767363,0.03358522839074986,-0.00978951482851319,-0.678155637254902,-0.46695907576362217,-0.8739165927935023,0.25373970191467865,-0.7838765202371185,-0.4931424138275234,-0.8858263589630182,0.21163660648054605,-0.5641383167505412,-0.4571477866691464,-0.5486124848943225,-0.44350195607264015,undefined,1495191371990
903d185fccf839df,0.44621537064904204,-0.5105932046133324,1.1339790312928608,1.1871468703949712,1.1046723796121698,-1.5753610576869979,1.7411517293684118,-0.7159256558668584,-0.4873142651202162,0.757267479969055,0.03416354531626866,-0.06172523238016765,-0.6607481060606061,-0.47529160410720084,-0.8465481586371485,0.18908022260448812,-0.773494781024568,-0.49775912903750225,-0.892662243012137,0.18111688811757384,-0.5723537196599477,-0.47102441301400316,-0.5241060682370531,-0.4515960728228695,undefined,1495191373435
903d185fccf839df,0.40879287357557775,-0.43134617986694507,1.4446904235752014,1.4587816210092797,1.205379641822468,-1.6340019839784783,1.648445803914765,-1.3264750262077716,-0.5624777749553928,1.073707239494877,-0.02998348341468906,0.028359901837191618,-0.4866727941176471,-0.47992078076440026,-0.844442861624386,0.13452379841905798,-0.7685890902161321,-0.48568853757450325,-0.8758279161529587,0.20325985121540444,-0.562549150753051,-0.47486990607756757,-0.4952838038294933,-0.43446268095901724,undefined,1495191374903
903d185fccf839df,0.1773285147519082,-0.21532442673433577,1.5901573968773577,1.6795569643013004,1.3410377042699257,-1.6568774427135289,1.6887765154004373,-1.0277784883560526,-0.6063617472811085,1.3084904347350352,-0.045613385176394426,-0.04000946492213626,-0.4866727941176471,-0.45955243714473654,-0.8602323646719747,0.09815286780525223,-0.7587051964063992,-0.463877880020182,-0.8740787126324545,0.20706326725409951,-0.5548631677654522,-0.4551983542322272,-0.5139298875457665,-0.45747633615238675,undefined,1495191376387
903d185fccf839df,0.5002700273010953,-0.39612522152367713,1.2807217720811226,1.4158041287116707,1.58244301586333,-1.6501622453303968,1.6647742664526848,-1.06315097312861,-0.5233606073482054,1.695209557381913,-0.03101683276398379,-0.13032301947813496,-1.0001949643493762,-0.3901149038437158,-0.8854955459889686,0.11835886499588688,-0.7975869936412182,-0.4196359348864251,-0.8560479313091104,0.21596356966441485,-0.5262934955574544,-0.4931581925885827,-0.47709719919835253,-0.457846091582045,undefined,1495191377888
903d185fccf839df,0.9105303776378748,-0.5170504280486523,0.9891504500076561,1.3276820671734886,1.6856599782204287,-1.6920908792348215,1.7564571915500813,-0.5236149825361502,-0.4854539936856535,2.086750955772855,0.005014173785980406,0.05549581618913227,-1.030658143939394,-0.35863658286956174,-0.9097060824806982,0.07592614087783504,-0.7954097925982763,-0.4253419162981821,-0.8910249887959808,0.2234472119569537,-0.5343844733192842,-0.5016803373798179,-0.5279665664088916,-0.5019912450104236,undefined,1495191379377
903d185fccf839df,1.0338855611790767,-0.40903955148234766,1.1078207150887103,1.4992143971742413,1.7753718276099042,-1.6691828129365502,1.783912364851068,-0.23867150682125432,-0.41838993366838784,1.9865080032845968,-0.04226685825332855,-0.016609939232514068,-0.8783422459893049,-0.3660431696853492,-0.913916654419522,0.10219401636688039,-0.801742223889339,-0.4380078029165894,-0.8969023097733461,0.26309820681370955,-0.5273701997473924,-0.5383733074225219,-0.49164810060193054,-0.5497673086817254,undefined,1495191380880
903d185fccf839df,0.8841961249717755,-0.49180881235742496,1.5059397156187855,1.8164221526583304,1.6185458010453793,-1.7252499299235564,1.8109073233315576,-0.18781338532796935,-0.5575842586179145,1.4571437528536697,-0.14150967623249555,0.01138731968309147,-0.7434338792335116,-0.3012348130415279,-0.9181271527360079,0.2658632041290062,-0.7542891991892118,-0.3872302605666273,-0.9008205236073688,0.39199859017129834,-0.47759030922601714,-0.5293781950273664,-0.4799005796492558,-0.5446811040500226,undefined,1495191382383
903d185fccf839df,0.5778867720011774,-0.3749927108192995,1.8727960593155413,1.94679575691945,1.3623599506117283,-1.7198600695896966,1.7586820086847716,-0.6064245376379694,-0.46663193485957566,1.1588215137689286,-0.2358993306799668,-0.01914629907495188,-0.8174158868092692,-0.30030905282458037,-0.9328640404072674,0.21736871477142986,-0.6792652053561505,-0.4071916991817201,-0.9123302771875326,0.40173041006271787,-0.4807975903414966,-0.5386372763176681,-0.5091681630745147,-0.5429459035346149,undefined,1495191383885
903d185fccf839df,0.5931330563031897,-0.33859775170778117,1.6807546779773055,1.7388731644180837,1.1939933678289636,-1.6607043775681134,1.754629478404728,-0.6286097558358834,-0.5349297084826793,0.46250207479957,-0.1248094986658137,-0.09332117099444538,-0.7086188168449198,-0.327158197141535,-0.9254956002527546,0.31839906816598307,-0.6124429213080744,-0.4139679483130329,-0.8998759540717296,0.46899081913936896,-0.472158687337417,-0.46908215500543265,-0.488604408313061,-0.5579835514673005,undefined,1495191385413
903d185fccf839df,0.9340926037075425,-0.4419125082891147,1.5091296426079481,1.5675697678746248,0.9835685702820113,-1.630713092411373,1.8187730827754323,-0.2798553799381933,-0.36840572754882944,0.3420232766428857,-0.07110766222772225,0.06610120867634245,-0.7390819964349377,-0.31789988267945973,-0.8918113339559833,0.6073459246632542,-0.6392686174805622,-0.3556415384118093,-0.8811664809555746,0.5992462665982053,-0.41666521202553236,-0.38236453804928433,-0.4433327223844201,-0.5830148069421848,undefined,1495191386900
903d185fccf839df,0.9659710475881438,-0.467154036296365,1.3955637181560627,1.3511417017573586,0.8697264766725569,-1.5225851506223558,1.7516472859908014,-0.5904448445374127,-0.23571911706665277,0.2526632519431936,0.060454604919131266,0.0743016724113954,-0.24296735739750447,-0.31975150671955116,-0.8844429232504056,0.43357373830581103,-0.6787463770052018,-0.36957401565923487,-0.8434256834660355,0.6476589803467873,-0.40926726170165817,-0.3814631655080768,-0.46864220719009947,-0.5580669275404245,undefined,1495191388374
903d185fccf839df,0.636099330526239,-0.4595229582327563,1.2041604746978294,1.1947299703334255,0.6743085221976197,-1.6106024447327922,1.7550239515430792,-0.8675406374983631,-0.32447481919675814,0.3071170482687239,0.040802766436082084,-0.0727626589834633,-0.08629957664884134,-0.3299356591032212,-0.8718113473163762,0.5002537777644549,-0.6017798410593217,-0.40152371779064716,-0.8670679072592842,0.6334462177038546,-0.4365916301341945,-0.3665544451343395,-0.4412385285918595,-0.5241683485118114,undefined,1495191389892
903d185fccf839df,0.4323552376668845,-0.45776191323839216,1.2641332368444598,1.273661436771107,0.971194889085948,-1.610485984160878,1.7921620690536237,-0.48896636664505516,-0.3557923632129466,0.03877416711527427,0.02482121025856732,-0.016837078170840476,-0.02102133467023172,-0.2651273413117235,-0.8244428455358437,0.5729955824626233,-0.6367888579198044,-0.3206393605561105,-0.8507373505935978,0.6723272939500444,-0.39208887019781485,-0.3507791956541759,-0.4191607120214758,-0.5042720175696681,undefined,1495191391383
903d185fccf839df,0.6180812956710732,-0.5311387880035656,1.3751473721871845,1.2510499950025105,1.136928326965182,-1.700695089940302,1.7549634634446107,-0.6976300956749271,-0.6307828056403996,-0.18317800571317974,0.03670395153514993,-0.1773641610747438,-0.17333723262032086,-0.2762373445677629,-0.7244427282819634,0.4679241087711634,-0.5959515356793025,-0.35415963198867595,-0.7123054479674262,0.6907900266880269,-0.3521601379519476,-0.31454341685232085,-0.32915947344635804,-0.5672909545388796,undefined,1495191392885
903d185fccf839df,0.848159641196527,-0.5487492379472072,1.6380080806734414,1.4639972601626394,0.654374846640449,-1.7100679479622174,1.720781248693531,-1.0847043897146278,-0.5763649696529405,-0.36678269515719847,-0.051271378908739444,0.09920956111816488,-0.49537655971479505,-0.23364895558369675,-0.7444427517327394,0.1789772240091708,-0.6706933895020432,-0.3617148328490348,-0.7123404327252717,0.5539132476065132,-0.38679076876105173,-0.3527348055111375,-0.2753121469764256,-0.4986108094673429,undefined,1495191394381
903d185fccf839df,0.8911262604736737,-0.5833831812923538,1.5946235996265246,1.5376964673593732,0.24984866899282587,-1.7605448903262224,1.8153543346063667,-0.6886906886373597,-0.6949174461187921,-0.6787593784371168,-0.16010497107111654,0.17222462587006604,0.5925941399286988,-0.20865144825760812,-0.7844428059965254,0.1426062651306435,-0.5820708556103061,-0.2838512914262237,-0.7116967268097283,0.5004652440144073,-0.36106332205450103,-0.3396711545676689,-0.23887774178289695,-0.5272572874264666,undefined,1495191395921
903d185fccf839df,0.22861114480752998,-0.23469592167234155,1.1811918313458918,1.2970923703072992,-0.2992429775316917,-1.5927860926674402,1.8401192121551515,-0.5591539185923322,-0.38409153296286436,-0.6312847780139883,-0.12219765110668063,0.1917126625428188,0.7884288658645277,-0.2604981517037495,-0.784442783909824,0.1203795099385048,-0.6311617247619934,-0.2932303820699445,-0.7008936511648112,0.35624340540495486,-0.3860514764901972,-0.3204339984968753,-0.2434496760392551,-0.5303258229801391,undefined,1495191397390
903d185fccf839df,-0.1594729927577975,-0.12492405856765743,0.9349196580962981,0.9796524084675128,-0.40898107989528487,-1.411748304805821,1.8055346254276334,-0.46973424418728904,-0.4942604345404546,-0.5557335013055612,-0.06392285567883718,0.17193368974921175,-0.9044535427807487,-0.39474402869781705,-0.8244428602603112,0.05774071796801448,-0.7371134061937377,-0.39237894803957973,-0.7315886607254766,0.032429496182306866,-0.4947751771065699,-0.26241276047983053,-0.33731922237919204,-0.4959550044587752,undefined,1495191398880
903d185fccf839df,-0.3549010058278575,-0.40375647495523986,0.6739728549761488,0.5618567329364982,-0.6077110368146923,-1.2639347853688092,1.7061174420585226,-0.9591299364188828,-0.3781560664316991,-0.19011971434433853,0.10195071091863807,-0.02024671834139209,-0.9523242535650625,-0.4428874711130011,-0.9254956002527546,-0.3241542230652751,-0.7751568398402925,-0.4640298734312357,-0.8847138658562317,-0.3130346290340708,-0.6556945708769415,-0.3165228521259345,-0.38759049307694027,-0.48917491535646074,undefined,1495191400381
903d185fccf839df,-0.3424269551547352,-0.36207841008862135,0.7422398847411108,0.7644012464102241,-0.7269839812171758,-1.2909050428914541,1.767315661836096,-0.6632059744440302,-0.40355907383309964,-0.1655516992566941,0.018402234577282326,-0.004651589156923443,-1.0001949643493762,-0.4910308099219888,-0.985495692691784,-0.548441699178881,-0.7544584869342866,-0.5097220619694953,-0.934258284285689,-0.48383418211444734,-0.7155367903709526,-0.34349077856763865,-0.4660769157109979,-0.5443902972814039,undefined,1495191401890
903d185fccf839df,-0.27174006991327343,-0.33859775170778117,0.9770281175201599,1.061762632764484,-0.6389178437139487,-1.4648875669058792,1.7966117027992434,-0.7426308997057113,-0.5056375231048539,-0.2436797808148946,-0.22892062253963186,0.06684775938669131,-0.9436204879679144,-0.5308416721904959,-1.0191799074529186,-0.5100500953577358,-0.7852170315290772,-0.534008899770837,-0.9734264305517787,-0.5094879929549254,-0.7485326798256959,-0.37971813374136615,-0.5076395300327176,-0.5689391692644712,undefined,1495191403370
903d185fccf839df,-0.17471907002735132,-0.19008278181511612,1.7617821781097658,1.4591282191285395,-0.4488895909642515,-1.6572640921697759,1.8273515063876937,-0.7815981559668713,-0.6184363252883915,-0.216276256413029,-0.26458912725262734,0.05597212665578651,-0.6128773952762924,-0.5049182880904889,-1.031811520198117,-0.31607178461841107,-0.716211320567819,-0.4921988048707821,-0.9881547179181979,-0.3099395380126289,-0.6998417478148408,-0.3910206252574386,-0.4720245554913546,-0.5201554206535369,undefined,1495191404895
903d185fccf839df,-0.0943302297200182,-0.31511712255493335,1.855569894472775,1.7866815641174152,-0.23085338489873128,-1.8072205148511538,1.8420153004524402,-0.8742652643493725,-0.6003088956089804,-0.16633605435572218,-0.19823891690449236,0.008673981203159955,-0.7173225824420678,-0.37344986010733305,-0.9918114659343312,0.0819879909115242,-0.6037677045166175,-0.42152315255075784,-0.9789119307745756,-0.02448315786407271,-0.6105808621791264,-0.4325081005515888,-0.4118889632655516,-0.43220852782915076,undefined,1495191406408
903d185fccf839df,0.08030744585516658,-0.46715415320833437,2.008692743376311,1.944619874662427,-0.07333821971943291,-1.8186477620978876,1.893843524727673,-0.530758525124985,-0.511188505836085,-0.12764197916921255,-0.1641435275860135,-0.020818837365521238,-0.6607481060606061,-0.2938281485210932,-0.9591798444628243,0.26788384907162416,-0.5817237952570283,-0.30780881535906124,-0.9640087236439555,0.21119004835857394,-0.5037093723935321,-0.46187524153439147,-0.394674295129506,-0.46480458561144,undefined,1495191407896
903d185fccf839df,-0.011169500837892534,-0.40845250725623394,1.5340124454629425,1.4487265748511704,-0.10065703195984159,-1.7597063630507639,1.9001760982770242,-0.47652818598956725,-0.3662887059140369,-0.0397338828215077,-0.16508286487045687,0.0109229034315177,-0.673803754456328,-0.3253064824460217,-0.896021876445872,0.22343050827567595,-0.7011143527032601,-0.2745038643658735,-0.9192851080981578,0.47337937786858525,-0.4283140514111651,-0.4698810902020354,-0.4505235896812094,-0.5073976435288913,undefined,1495191409382
903d185fccf839df,-0.2925304074081487,-0.3884939680921144,0.8353897173610672,0.9657463998777286,-0.2505710636488314,-1.7756896020898418,1.8939224162127777,-0.6348358160507148,-0.29021031968325117,-0.33663675207328053,-0.13668009855352203,-0.01315967247694585,-0.5824142156862745,-0.3817824143524608,-0.851811331227834,0.409326422965219,-0.6535414629438874,-0.32937248769471433,-0.8969932679110169,0.5117830984153329,-0.43837066615346676,-0.4769552495628851,-0.47792070279888765,-0.5130924353584942,undefined,1495191410885
903d185fccf839df,-0.5239948352426377,-0.4665670797542283,0.25288495695718677,0.24094637416482606,-0.25549790837917685,-1.6729072632081263,1.8337287803107958,-0.910146350844546,-0.2069262717558081,-0.4528652386412505,-0.0473893048290729,0.002209454278648801,-0.5432472704991087,-0.4623299250079718,-0.8665481379145218,0.27192513895686,-0.6752257614927116,-0.42373334894186104,-0.918711368291102,0.31437502666310563,-0.5274352440557014,-0.46465492653289153,-0.4319721939147042,-0.49294075483214084,undefined,1495191412376
903d185fccf839df,-0.6057696888481866,-0.5640116278983632,-0.08781256226151947,-0.17717025085158533,-0.4017399459073504,-1.652675492422797,1.834822774361585,-0.9596407559560163,-0.2895420843039932,-0.6820848287285013,0.017924452472584767,0.014462510716966288,-0.5606548016934046,-0.5058441519136327,-1.0223378345664782,0.20726564551430868,-0.6683143772924695,-0.5647806709123016,-0.9732095282584772,0.06673722733248329,-0.6601589080771637,-0.4271698769537116,-0.3896118986144576,-0.48329721911990514,undefined,1495191413878
903d185fccf839df,-0.3715333034280855,-0.6526510095266621,-0.48338028195633315,-0.5256794635559966,-0.10506958460838034,-1.6664040292653157,1.8670089667124756,-0.7161334849820741,-0.3660772660538972,-0.762873469802752,0.005421145507515275,-0.006472191256800434,-0.6520443404634582,-0.6687908879201682,-1.059179983803406,-0.04733091117941383,-0.7378715841405126,-0.7214830291549549,-0.9864404976752104,-0.12087742975032832,-0.7772664490980414,-0.3845118181962368,-0.45698345644875216,-0.44891502006001754,undefined,1495191415394
903d185fccf839df,-0.4020254579671931,-0.6080378696694367,-0.5363353063815858,-0.5841237675296092,-0.30687496353592336,-1.6308085958252245,1.8600242066179882,-0.7259692050721718,-0.5417275847642532,-0.7186399002656377,0.01843873259111774,0.03246707342404719,-0.673803754456328,-0.7076759187424678,-1.091811597912679,-0.348401481876424,-0.8560540888426471,-0.802114069107476,-1.0356910496196527,-0.3708557921829822,-0.8757348053676692,-0.43096574164911033,-0.5879361668004082,-0.45458960141131555,undefined,1495191416906
903d185fccf839df,-0.23293169756323237,0.03239607784084376,-0.43233890876023867,-0.5627933471206688,-0.39046682388969356,-1.5008300590439057,1.8037857993154167,-0.7175154499788843,-0.5267724278311922,-0.6657343647475091,-0.157654111799899,-0.007731350130217529,-0.7303782308377896,-0.7178600905522997,-1.0939168654765064,-0.42720516487300314,-0.9295011209950651,-0.8312709419587518,-1.0469769058879372,-0.4962299323141851,-0.9170479373858886,-0.4453460451263331,-0.6298929161677655,-0.4794013901227616,undefined,1495191418400
903d185fccf839df,-0.3119345245723497,0.042375391264892016,-0.2881487194919855,-0.4324747404455906,-0.7215222731349796,-1.4563252846264834,1.7501246098824363,-1.0494233703528393,-0.26711969503784605,-0.6995925349135236,-0.1403645170212351,-0.028361066406201358,-0.6389886920677362,-0.7854459415347436,-1.0844431577581661,-0.2857626475088514,-0.878715958405325,-0.8663744481147455,-1.0466690463989923,-0.34118298459049595,-0.9007456929282913,-0.4616299110358223,-0.6553384239237176,-0.45839592407898067,undefined,1495191419884
903d185fccf839df,-0.4449919737281106,0.08992372302469376,-0.0316676108471043,-0.20431626569352299,-0.8854659965366886,-1.5681078025884019,1.8338970793522948,-0.7445739021273704,-0.09856936861508249,-0.7788089246005409,-0.17964617277654774,-0.0020258689258556006,-0.5867660984848485,-0.7197117404939402,-1.0476010232457058,-0.09582554186059788,-0.87987330137652,-0.8144823063542993,-1.01298639829425,-0.18750650040971198,-0.8311733885069971,-0.4380362704431839,-0.674572589215806,-0.49431307829993326,undefined,1495191421385
903d185fccf839df,-0.5849794893749503,-0.5299648456912999,0.10040075420755154,0.05669447935127037,-0.8733597316285429,-1.796622474790782,1.9236102847979861,-0.673534369430559,-0.17323869877531814,-0.7505524470053989,0.012642383463531788,0.04175622542594355,-0.4866727941176471,-0.679900878225433,-1.0023378037534683,-0.019042404880111323,-0.8637249461684103,-0.7335726182696762,-0.953156668548954,-0.11017550751308423,-0.764255461597968,-0.39310366434260957,-0.6908190374937723,-0.48159599758617405,undefined,1495191422897
903d185fccf839df,-0.4935024736710717,-0.7048954320434426,0.4589630844229251,0.4640716668053597,-0.8219106711731154,-1.9122552277054428,1.9250119810430883,-0.8077886928235829,-0.22687172995285437,-0.7776659398248851,0.09520270325872394,-0.014360767980329096,-0.517135973707665,-0.6567550596933085,-0.9949693856856567,0.12644133170747243,-0.8566273478266165,-0.745617877454129,-0.928422942986874,0.02245130225419396,-0.7338146671631074,-0.40379848605140356,-0.6420152119752439,-0.5186065731452812,undefined,1495191424392
903d185fccf839df,-0.37430526101369754,-0.6802407436663597,0.7709504983283205,0.7577866301906551,-0.7471336564521648,-1.9142141192336026,1.8931860628627823,-0.9901891277018696,-0.2683439804675658,-0.5833504337271094,0.04775132067945805,-0.22588951144838823,-0.32565313057041,-0.6354608716766627,-0.9686535669056323,0.09007040109366668,-0.8088231511543205,-0.717676929993769,-0.928276010594638,-0.03774122200501351,-0.7260390679126268,-0.4048172898338362,-0.6624217936914369,-0.5250561038947545,undefined,1495191425877
903d185fccf839df,-0.19412325620237184,-0.528203742240951,1.015309020348756,0.9267971662724154,-0.6346904113062926,-1.880745281423664,1.8812599004888222,-0.9692918881014736,-0.2017959228541244,-0.7039987954510157,0.022800883561892152,-0.31016765794001333,0.8406514594474154,-0.6067600126641949,-0.9307587802056738,0.07794679995281373,-0.8259183509071136,-0.6852205932651052,-0.9119384568305732,-0.017061106889716373,-0.704581384740929,-0.40065449311850365,-0.6010128187754589,-0.5217170983546425,undefined,1495191427391
903d185fccf839df,-0.01948551161636758,-0.37968877234828596,1.0427433581759615,0.9924997057465941,-0.3689697197799976,-1.7766748719411496,1.8433696450461305,-1.018561114005933,-0.08044507283707854,-0.6111110017116942,-0.03026299605068247,-0.16348301242652574,0.5969460227272728,-0.6317575394164453,-0.9086534891910704,0.3931616591303771,-0.7150232527685066,-0.664378875262925,-0.8999669138243046,0.38382202180505787,-0.6169124336986597,-0.4287542470225563,-0.4675726930924207,-0.45475105191367127,undefined,1495191428926
903d185fccf839df,0.1177300119394503,-0.5246816230242303,0.9802185527832213,0.9483256677314742,-0.16223749970704288,-1.725683166545267,1.8085220905425095,-1.1227359726799462,-0.11682349842837159,-0.5019218457835847,-0.054168729045790454,-0.2225555373423929,-0.517135973707665,-0.6354608587258881,-0.8886534657402942,0.5042949545908045,-0.6723582952787814,-0.6658164534887664,-0.9053194740654409,0.4561023268838963,-0.6046918671290825,-0.44841534613002165,-0.4286549434336859,-0.41726863236003814,undefined,1495191430388
903d185fccf839df,0.20366297445046588,-0.5135283380599239,0.4972437331145718,0.571736534900197,-0.062239953079046235,-1.653208887331611,1.8085115702811332,-0.9777550628141363,-0.2282619200874058,-0.4038334046184605,-0.08148764261531986,-0.023173071506759412,-0.4779690285204991,-0.6169441974248012,-0.8960218838081058,0.49823318935128,-0.6560177094278599,-0.6482678664147599,-0.9467685815643011,0.5022668660356926,-0.5991631594037155,-0.4811615479729763,-0.47560869078214396,-0.37621427237835026,undefined,1495191431875
903d185fccf839df,0.12050190051424288,-0.5916013912660532,0.11507462166725865,-0.009232102220791245,-0.056500535519942635,-1.637265245603418,1.788461928771382,-1.1151769231039075,-0.28672729212880155,-0.36320727589190366,-0.07788875717263505,-0.10051865854437252,-0.32565313057041,-0.6447192249910616,-0.942337737082257,0.7306030897793891,-0.6323497190283578,-0.6786849948308334,-0.9846773026678068,0.6281183604931824,-0.5952036636943083,-0.4614633657355281,-0.5176087063422444,-0.3942693840821196,undefined,1495191433365
903d185fccf839df,0.055359413519741454,-0.6309313961401861,-0.050170305586824344,-0.152082126889921,-0.311904673470798,-1.6440549784186327,1.8195094219838834,-1.0020522476389213,-0.3249837133089179,-0.40782200708560723,-0.0743984218458548,-0.05429213589102817,-0.9131573083778967,-0.6317575135148962,-1.0012851662904376,0.8417365548281459,-0.6091345353468905,-0.7142634727979881,-1.0031488828622845,0.7512905255641791,-0.5919243119628381,-0.43884212174997284,-0.486902856921253,-0.37700084183448,undefined,1495191434867
903d185fccf839df,-0.31886466007424796,-0.6573471295116332,-0.2830441247258671,-0.4358017340206821,-0.6714309265651186,-1.6361472112518056,1.8700201037248505,-0.7863540643962015,-0.24296387336672248,-0.5571501428591129,-0.029404417488142567,-0.030970336758342647,-0.9784355503565063,-0.72248924130795,-1.0823379122810401,0.6517993643857278,-0.5622450388233386,-0.7785555174925612,-1.0514828529244378,0.3003470497811657,-0.7228354518423714,-0.434929708681387,-0.4805187073961751,-0.34051776287149405,undefined,1495191436370
903d185fccf839df,-0.6418061036126156,-0.5874923447351881,-0.41957869252968977,-0.5323309676797596,-1.0831159546328915,-1.7230697604101155,1.8954319275909979,-0.8365058452608118,-0.23134607456777406,-0.6204501982977354,-0.015368422049436477,0.01797236345721168,-0.9740836675579323,-0.763225941498052,-1.0960221183158663,1.1488689190294021,-0.512331279309227,-0.8403397171940438,-1.0731869604657533,0.9323916345421172,-0.5921150532787115,-0.4345511473583447,-0.5356241764066328,0.051018357580039295,undefined,1495191437865
903d185fccf839df,-0.46301018111032516,-0.5464011779547217,-0.47572364394410493,-0.597352876617257,-0.9187402295949518,-1.722955626991233,1.8694021077673073,-0.9714856329900522,-0.15736698494938903,-0.6775776252452478,-0.017369452887968193,0.04843266169333441,-0.9827874331550802,-0.8493285185354555,-1.056022082457665,1.2539405481768304,-0.5167196249898244,-0.9099387679040648,-1.0618171432254642,1.0410430649379991,-0.5960208972730635,-0.44718174076030603,-0.4793600339556483,0.04375186740357373,undefined,1495191439376
903d185fccf839df,-0.47964234068891415,-0.517637472274766,-0.21605311658396006,-0.3098165540286698,-0.7874330170847899,-1.8259615721420144,1.9352971575784736,-0.6369630662617237,-0.1812655697828183,-0.5600801497929552,-0.10700620380047927,0.037480317087064396,-0.9697317847593583,-0.7910009431627633,-0.9949693820045399,1.1347246164164881,-0.5246226003197916,-0.8466219963973934,-1.0434715047887295,0.9870715155873375,-0.5736867141969134,-0.44018986804153964,-0.5724594476663403,0.033993598127236714,undefined,1495191440903
903d185fccf839df,-0.3590590457225048,-0.5340739214501572,0.49596745735456754,0.4368950472701758,-0.47105525855567004,-1.8245407373136326,1.9071187783735275,-0.7399916012865946,-0.31272625659554026,-0.3522400267498914,-0.12055487139229606,-0.010510340689151108,-0.9610280191622104,-0.6308316755933014,-1.0044430529117112,0.27192512482449926,-0.47143365697410045,-0.7037254556206044,-1.025888519196332,0.8426802931894632,-0.5404133010317311,-0.4722361371617323,-0.6603544498870241,0.03636119136807192,undefined,1495191442370
903d185fccf839df,-0.5309249017337164,-0.430759194096816,1.382165618182461,1.3589944281327402,-0.44003359721388985,-1.8419611169877301,1.9155420362487812,-0.6693613820654637,-0.34622656263040125,-0.1525997215662235,-0.13612154881468413,0.04981945064245382,-0.8348234180035651,-0.5317674453582181,-1.0023378037534683,0.12442077155901911,-0.5747566716407226,-0.606964408852606,-1.0190946157188545,0.9705181859248407,-0.4647084995452881,-0.48490685426409863,-0.8571405908142985,-0.004191694022743504,undefined,1495191443877
903d185fccf839df,-0.43667592844422587,-0.38731999655185634,0.8551679254499432,0.8409827558665128,-0.17427175695389233,-1.7631652843534422,1.8506620989547564,-0.9358314667632694,-0.30091438817104116,-0.11479346994468399,-0.03858378275728767,0.015002493566058242,-0.9088054255793226,-0.48362408064768125,-1.0697062995358417,0.05774067557093217,-0.8376104946440096,-0.5439326210959238,-1.0590883863902052,0.31426724274143314,-0.609173697869157,-0.46872118898780735,-0.7573087515400736,-0.48076126887656767,undefined,1495191445374
903d185fccf839df,-0.5226088909552414,-0.42547597142974647,0.6344161846614472,0.6524588154717587,-0.20342143146328312,-1.6952004130311744,1.851927034944531,-0.8508885709813686,-0.31548480961925307,-0.33699346719207907,-0.03802661967464507,-0.005768511841745728,-0.9218610739750446,-0.4197415360239057,-1.0707589406799893,0.3224403580512189,-0.8086587009532301,-0.4728199954019362,-1.0679953263731818,0.5633986930035207,-0.5317629495340033,-0.4421123570863959,-0.6915190471386722,-0.45165682344092184,undefined,1495191446868
903d185fccf839df,-0.4907304470746402,-0.46715415320833437,0.32306640036215517,0.3732346654569135,-0.32241665890891114,-1.7175378170334876,1.8571971705133734,-0.9005964389915073,-0.3044799815255726,-0.57752070281206,-0.04508587447259488,-0.0672950704467061,-0.9653799019607844,-0.46973660247918114,-1.104443188571176,0.49015066611025143,-0.7869350371549174,-0.48347200700504606,-1.0897903926516401,0.838445723532282,-0.4865607863312539,-0.44219633151200666,-0.7417305825507916,-0.4764083425600152,undefined,1495191448369
903d185fccf839df,-0.34519891274034725,-0.5810351212998682,0.2311928435022031,0.293241921537883,-0.5051420705562842,-1.7655876929415895,1.9022431143717538,-0.7238288141290794,-0.3189806108162024,-0.719249413497269,-0.055451006456019546,0.01954200649774603,-0.8304715352049912,-0.560468330272235,-1.1076010715113327,0.5123774213023902,-0.7502838924493024,-0.5533180425295587,-1.0916025667788067,1.098202101542714,-0.4652646797810269,-0.4342360000489766,-0.7454955327431507,-0.4920720476806359,undefined,1495191449864
903d185fccf839df,-0.5309249017337164,-0.5006139788732611,0.32306640036215517,0.294784390367887,-0.6979371723404261,-1.7977102297941,1.9333090093996084,-0.6173471956888542,-0.3146852517086853,-0.6419253785529655,-0.04226210739671118,0.022688651849360485,-0.8304715352049912,-0.5984275296483271,-1.1002326534435212,0.44569732531430317,-0.7879940118721958,-0.6179963968936495,-1.0956467231841411,1.160858374273167,-0.48613259003486486,-0.43692014964563836,-0.6486813922854143,-0.4892289954721325,undefined,1495191451372
903d185fccf839df,-0.6570521808821694,-0.5029620096377543,0.3830396707826844,0.33433601977453853,-0.6866126193909393,-1.813865833357089,1.9256825814500789,-0.6813933644721939,-0.31271279234781996,-0.5996644899686909,-0.049049096366272756,-0.004492949938745117,-0.9218610739750446,-0.6252766869160563,-1.0981273895608106,0.41336762805629024,-0.8059448019399046,-0.5706893077674848,-1.0839760427458338,1.1128768172124779,-0.473727494380038,-0.45675485674177335,-0.6827066137459784,-0.4865088341684015,undefined,1495191452894
903d185fccf839df,-0.53646888591576,-0.3996472968984093,0.41557834923905884,0.4382566888704158,-0.49313865736515494,-1.8822499688865404,1.885393957818804,-0.9575958644518038,-0.3887973903345036,-0.6585651054329837,-0.025510058461044254,-0.01764183096844442,-0.9131573083778967,-0.6308316755933014,-1.068653662072811,0.6275521479716611,-0.6814740548516853,-0.5616268651381336,-1.0594102395437228,1.3450083793400767,-0.398310722228114,-0.4555713187637489,-0.7875417797183264,-0.39119178084818457,undefined,1495191454368
903d185fccf839df,-0.23847581976691484,-0.5522713863919202,-0.029115567600994523,-0.02300023026399458,-0.6555909564827513,-1.907650322976787,1.9072397556179859,-0.8777814841085895,-0.4370518279453832,-0.852884032797904,0.03001966760042831,-0.014135772613145567,-0.8957497771836007,-0.6687909138217172,-1.0381273155273656,1.5651141598662404,-0.4079357028252701,-0.5935639009503312,-1.0461232952851869,1.6531004779833471,-0.3291116352403339,-0.4572250836945143,-0.8663532778772103,-0.39732123953792087,undefined,1495191455870
903d185fccf839df,-0.349357021645814,-0.548162237563082,-0.03422016236711293,-0.08905222974955851,-0.5801556561910888,-1.9065509212215166,1.9059195848515393,-0.8726527250618393,-0.4493034734715741,-0.740553420844164,0.040892706209228795,-0.009806488721529423,-0.7869527072192514,-0.6447191796633507,-1.0507589061858624,1.7732367449537574,-0.3821449453223838,-0.5467254501933502,-1.0411905436415978,1.5868871617565767,-0.31936569704152695,-0.4615387909714956,-0.9127429269844238,-0.4047499425832369,undefined,1495191457376
903d185fccf839df,-0.30084648719744317,-0.3890810123182281,0.15782147310807218,0.16874663227189202,-0.7756456133560272,-1.822921914803244,1.8970886917265941,-0.8390490500269773,-0.4467429265668801,-0.5909515287110587,-0.01701094649489828,-0.03995494270943461,-0.8261196524064172,-0.49751166242237777,-1.0002325398707577,1.947009044370087,-0.2868482588011062,-0.4858848602348156,-1.0003571552490855,1.3342910640153858,-0.3373062319566786,-0.4625240294924779,-0.902437895397402,-0.40022246083309665,undefined,1495191458861
903d185fccf839df,-0.26619601672041043,-0.3462289466833592,1.3056040666622184,1.3983723632734302,-0.7104960075741746,-1.774685699837446,1.8869008310133863,-0.805342881372825,-0.4101996710591128,-0.5946739804062727,-0.09782145824156421,0.05626262939074986,-0.8565828319964349,-0.5095474517969137,-0.9381271982734853,1.9409471943363978,-0.3206839387394721,-0.49350972453312875,-0.9743150251783271,1.4156564502920563,-0.32178116663901263,-0.4494682197059842,-0.8724063234544526,-0.4345377469363003,undefined,1495191460369
903d185fccf839df,-0.5336969283301479,-0.46715415320833437,1.4887132966390697,1.526106430691425,-0.8247495288931228,-1.7123273083708328,1.862209584819018,-0.8949338215162773,-0.31342157727265335,-0.7817009646077986,-0.14479997277826498,-0.04599107178173495,-0.7608414104278075,-0.4845499833231488,-0.9507587815697485,1.1731161637081904,-0.4104627977614204,-0.5361177690520287,-0.9831310072132617,1.2082085934685434,-0.3972984541328507,-0.4463813125528156,-0.7647009389278475,-0.40497286874843885,undefined,1495191461869
903d185fccf839df,-0.6431921169108313,-0.5076582465346947,1.1365308204020212,1.1260494882417533,-0.7249576986545334,-1.6695741234253958,1.8393355265328983,-1.0008742727557083,-0.31185465614871055,-0.7737536794771801,-0.015268494733506423,-0.07083270975164237,-0.36482007575757575,-0.47251412919474006,-1.0002325509141086,0.18908025086920965,-0.7634408146878341,-0.5338695740077978,-0.9968027754032553,0.2363203125115969,-0.6252764122502475,-0.45340900237473425,-0.5947775290843101,-0.44162021555318876,undefined,1495191463365
903d185fccf839df,-0.6515081967001258,-0.4372163883041436,0.7454298117302732,0.7522033035316811,-0.5105934883022337,-1.689556667625398,1.8549933889257073,-0.8858828168242515,-0.39887882817266074,-0.7126212301376464,0.02175493781556597,0.033414503217418554,-0.36482007575757575,-0.5225091438469174,-0.9707588197449921,0.32850217982018654,-0.6547420444244593,-0.5312604005040191,-0.9895260923117254,0.6004165554255996,-0.5443187523175065,-0.4516539356613604,-0.5807366858744963,-0.4321023294782012,undefined,1495191464903
903d185fccf839df,-0.4838003805835614,-0.41021358147859044,0.11762666491336843,0.10868827207872683,-0.5135351961228367,-1.7510555704729798,1.8910979957700826,-0.7224755795053477,-0.41157063637057095,-0.7137628927840964,0.012636290598355313,0.012450408016227845,-0.41704266934046347,-0.5586166285274963,-0.969706167557494,0.7366649115483568,-0.6827572216387346,-0.5782255103560147,-0.9898129617472979,1.054978665215375,-0.4617016118541802,-0.45487809587309297,-0.657966864060871,-0.4877882065121683,undefined,1495191466375
903d185fccf839df,-0.45608011461924636,-0.3808627731165364,0.27011137593690254,0.2771251290875605,-0.6269247220353728,-1.7732299284431063,1.8758004169755533,-0.863352663035956,-0.4285120459355845,-0.9545502742292351,-0.049892061316661074,0.0728187355851233,-0.6389886920677362,-0.6187958473664418,-1.036022055325772,0.8316334431739424,-0.6632840484848779,-0.6045325580264809,-1.0095229779930146,1.0491272595671475,-0.4766285730569235,-0.45350761078304286,-0.6261114325306592,-0.47026848877994765,undefined,1495191467879
903d185fccf839df,-0.6099277632482436,-0.3157041375530547,0.2803200571952405,0.217933498500255,-0.927935642383248,-1.7484654567200404,1.907526389006457,-0.6672220418362312,-0.36979056414440853,-0.9945841001915925,-0.11162085311817471,0.017793654778705967,-0.8217677696078431,-0.6456450175849454,-0.966548291979571,0.8518395534234632,-0.6128205649833612,-0.6351206756671575,-0.9668774147821079,1.2985204840210878,-0.4292154430819473,-0.460000451970154,-0.530436478743458,-0.4581060427278791,undefined,1495191469531
903d185fccf839df,-0.591909555866029,-0.4248889564316251,0.5068137682190088,0.4657231461554979,-0.9103676746982877,-1.6679366692342312,1.8658492270513338,-0.8453878799930709,-0.3339738837563159,-0.952904652194793,-0.17908203042128817,-0.0685029387911276,-0.7695451760249554,-0.639164178035331,-0.9591798297383568,0.9468081133137703,-0.5342271716710043,-0.6112644765465153,-0.9308438385408891,1.5460196966157287,-0.3580123353438477,-0.4605028410851129,-0.5665020163609108,-0.48379016262451,undefined,1495191470868
903d185fccf839df,-0.7027907577449282,-0.3937771615311916,0.3007358948902199,0.2314502896292778,-0.9763915610774593,-1.7532031287962713,1.9116367733914188,-0.6940560154158278,-0.23430822263683365,-0.6802372407349485,-0.1687163272602459,-0.024193358374727705,-0.5519510360962567,-0.6215733740820008,-0.8728639626927055,2.3127391650390914,-0.06834334845753047,-0.615748202076422,-0.8344697657641029,2.5562039177383378,-0.09730644389989657,-0.4641248898872737,-0.7398605532177301,-0.24426203644765737,undefined,1495191472365
903d185fccf839df,-0.6445780957036373,-0.24819726662913347,-0.09929701100596292,-0.30919218271221094,-1.096477074071598,-1.6634971376631589,1.853181451720451,-0.9499581162659144,-0.3974483492607327,-0.6445896282184984,-0.1130575442405208,-0.05714383027943687,-0.6650999888591801,-0.6873075556966423,-0.8781271205589234,2.076327889931582,-0.049722773896646505,-0.695251977362284,-0.824233432032645,1.9430378225981222,-0.2677396351543823,-0.44201582355470925,-0.6540720127858948,0.010363784715073373,undefined,1495191473872
903d185fccf839df,-0.6099276597320143,-0.18010352684705253,-0.16437436791871174,-0.37094499187524643,-1.217251722923792,-1.6460557927471962,1.824256213569438,-1.1325771626753722,-0.35134366043357274,-0.6884128208115192,-0.1069350153951649,0.03805568853015409,-0.7695451760249554,-0.7002692347958712,-0.8528639392419294,2.0561220057998333,-0.046341744561157326,-0.7155110655648906,-0.8355122909884539,2.121043851162918,-0.2398561179330008,-0.44722472467572294,-0.619014570895226,-0.006377334089101386,undefined,1495191475393
903d185fccf839df,-0.6002255666445041,-0.1607319149970774,-0.13566350019455256,-0.20690252898144973,-1.19244261949444,-1.559340545514589,1.8248111130992464,-0.9622491802857447,-0.4124960559851477,-0.7508000765658712,-0.1322176933733478,0.0061923893614551865,-0.691211285650624,-0.686381730725822,-0.8191796582206906,1.6964536503703531,-0.15291836298620248,-0.7464348285671424,-0.8684182930124804,1.9393421933351094,-0.29552177056614604,-0.4404623740300038,-0.6741908553368873,0.02611057867274469,undefined,1495191476909
903d185fccf839df,-0.6570522498929888,-0.32040022831003345,0.5508366412828772,0.5898011719337373,-1.0808325224284079,-1.5475219869454415,1.822757233975334,-0.9447596781187882,-0.30972881843336403,-0.5966228789594722,-0.1303100223054956,-0.012724135735802469,-0.6433405748663101,-0.6761975718667647,-0.8433902388858229,1.53682569596402,-0.26796321358499164,-0.7931022902711571,-0.920887378400623,1.7583334688910361,-0.3625328413371384,-0.4312093554052194,-0.680881745693206,0.13385990701766542,undefined,1495191478368
903d185fccf839df,-0.41034164127271683,-0.3603173066382725,0.21524270028249168,0.13838570838817124,-0.9231733597911703,-1.5337608421555367,1.8352409241112841,-0.8207357966354302,-0.3809162414180218,-0.6031680745940597,-0.10071479049653799,-0.013923945161970468,-0.7216744652406417,-0.7382284276965762,-0.9265482377157852,1.3509296399508695,-0.4643633221511487,-0.8155715733755039,-0.9689624649677763,1.4185667621355744,-0.46206962891455705,-0.45847757765989566,-0.7075383639963789,-0.11796155856814175,undefined,1495191479864
903d185fccf839df,-0.4713263299104391,-0.4378033448462803,0.14761330012363305,-0.002630856412280588,-0.8483243413119403,-1.5058449099650566,1.8049481860641319,-0.9691207858679065,-0.40306127372150496,-0.5857725540251877,-0.07833884390190679,-0.037926971045862824,-0.6172292780748664,-0.731747594622349,-0.9444429936027338,0.8861898956240941,-0.5756962556069287,-0.8037859656237374,-0.9908764767681044,1.1570703614859628,-0.5255015246705873,-0.4531840820696621,-0.6868901110500732,-0.23309590806195205,undefined,1495191481375
903d185fccf839df,-0.4214297476584428,-0.5387700414351283,0.030857194545635895,-0.0382590850845869,-0.9332841982335299,-1.5330876921216943,1.8200485311701702,-0.9599351973412461,-0.3217844700488418,-0.6003160310529523,-0.06047603243615976,0.026519578328331628,-0.6172292780748664,-0.676197578342152,-0.9465482574854444,0.888210484037269,-0.589087323596225,-0.7669598979071632,-0.9902537603798661,1.1690195540214467,-0.505565424651987,-0.46025306731185384,-0.7414145801187266,-0.24247056248718377,undefined,1495191482868
903d185fccf839df,-0.4560801491246561,-0.5475752079509645,-0.12800737045622324,-0.2161019372762107,-1.0451411551873082,-1.5820040444516505,1.8178131919409404,-1.0857218182173254,-0.308664932694455,-0.70873894886594,-0.08855267177802975,0.02996630145275697,-0.5301916221033868,-0.6845300743087942,-0.9212850724873335,1.34284728629817,-0.49235901396900156,-0.7720262520794803,-0.9535554871665335,1.2914525942225896,-0.4639408407306695,-0.4699439815940645,-0.7558216801760664,-0.17135799112251665,undefined,1495191484363
903d185fccf839df,-0.6847725503627137,-0.6356276330371265,-0.08717467851846673,-0.2680510269287879,-1.2956698826725161,-1.5892130397208362,1.8516272373496752,-0.9281802908678326,-0.24808065627567813,-0.7380609954171512,-0.10055674964968749,0.03393919608387499,-0.5693585672905526,-0.7021208976882863,-0.8507586569536344,1.6257323775559165,-0.42194021539327486,-0.7923233370306014,-0.9341323399220781,1.5145452680924048,-0.415039351637102,-0.47945639829880143,-0.7579721168831635,-0.10833795995933868,undefined,1495191485868
903d185fccf839df,-0.7014047099413027,-0.6585212179638607,-0.0029577596707428323,-0.15154954640207388,-1.2700276358605473,-1.6311556495797361,1.8971281398260704,-0.7166438628487204,-0.2278717616982726,-0.7311783014136959,-0.05212266494308141,-0.05044341173449766,-0.7738970588235294,-0.6808267290978023,-0.8339165458919502,1.9389265776585014,-0.25411144378071715,-0.7773522591627733,-0.905214520941912,1.7703134430646161,-0.34233150534869733,-0.47317379011500077,-0.7891866575267036,-0.2106430439134183,undefined,1495191487372
903d185fccf839df,-0.6376479602017391,-0.586905271281082,0.024477340567310865,-0.19943048833731408,-1.1480186984024447,-1.5626760162521485,1.8513300564642605,-0.8782895703267783,-0.17728061806264442,-0.6799847333581637,-0.03191243177166708,-0.06248449624513911,-0.8217677696078431,-0.7095275492579465,-0.8402323412211987,1.7105980519097925,-0.4197298360811522,-0.7830962396373712,-0.9424165647646966,1.4340267923438985,-0.43050325129376943,-0.4916111057855296,-0.822510033780539,-0.13474185794238167,undefined,1495191488872
903d185fccf839df,-0.5184507820497747,-0.3967122949777832,0.049997773028408674,-0.06804611577470952,-0.7374445260289344,-1.5079691742471537,1.8307386848686953,-0.8212229195841383,-0.20698075955151518,-0.6460301388634149,-0.009015839774225317,-0.035871425918785234,-0.6868594028520499,-0.7104534066057031,-0.9391798504609835,0.35881128866502465,-0.7485854033606137,-0.7777892322875867,-0.981332827148277,0.9507619820596571,-0.5548029057312875,-0.4813694651626158,-0.7159751695641452,-0.2718700886211284,undefined,1495191490397
903d185fccf839df,-0.6099276597320143,-0.420192836446654,-0.21413946535480188,-0.29039122773385095,-0.635924700288299,-1.5484490234918245,1.8086719877686541,-1.0236422696478016,-0.3256579778400133,-0.6283260593432758,0.03011892931975975,-0.016556312500292214,-0.8391753008021391,-0.7280442429359697,-0.8802323954849846,2.0541014173866587,-0.22772190307257634,-0.7715702815853145,-0.947405291378547,1.7595807209209224,-0.3585423261542306,-0.47880292806362723,-0.6616055003570499,-0.28070673396170814,undefined,1495191491871
903d185fccf839df,-0.5226087529336025,-0.5692948797934251,-0.30537463019780237,-0.3783791165477796,-0.7749667538385736,-1.6198308892518147,1.8433775444079785,-0.9510097518222694,-0.2498913251505706,-0.7899492634881287,0.025777125261641932,0.021874006676167606,-0.7695451760249554,-0.727118405014375,-0.9739167174096164,1.112497946018514,-0.5202599784605327,-0.7788151692685209,-1.0060175759701306,1.5680856518027373,-0.42642478919023363,-0.4540303084178962,-0.6401806419967552,-0.33725249668985224,undefined,1495191493376
903d185fccf839df,-0.5336968938247383,-0.6467808595454483,-0.3506735248847257,-0.43478942842278695,-1.0464165870314877,-1.6459672844683992,1.8502202940679076,-1.0445504970737598,-0.31665243905429763,-0.7615396577033845,0.05470572830669654,0.051995319888996694,-0.7608414104278075,-0.8067401489775512,-1.038127304484015,0.6497787901049137,-0.6204179697045893,-0.8425625799043618,-1.0759367067610297,0.8785278703381978,-0.6333391170308906,-0.44654784796724833,-0.49677434724542135,-0.2896221903112358,undefined,1495191494869
903d185fccf839df,-0.5905234735569939,-0.6203651846299858,-0.22307136257923668,-0.32550075119859084,-1.2066471730081028,-1.6443531221583996,1.8694152457856466,-0.9376296528216008,-0.3189014244407395,-0.7134238678439168,0.00919751136250996,-0.011724691934713337,-1.02630626114082,-0.8048884796097489,-1.0486536496653858,0.8013243625938259,-0.5602319645495188,-0.8503394342585092,-1.0751250765158233,0.8168724955251558,-0.6488017927517116,-0.4404183371964971,-0.47955031432609174,-0.2953973318031518,undefined,1495191496371
903d185fccf839df,-0.43667592844422587,-0.5569675063768913,-0.18287655438453293,-0.2514041494985764,-0.9018716857356769,-1.6964209360149454,1.8642003481360412,-0.9504490941261874,-0.4415190864974081,-0.5603453463133071,0.017750897940909494,-0.02730711419146606,-0.8696384803921569,-0.7761876076465065,-1.0254957175066348,1.276167190310083,-0.43856760298061226,-0.8166418410507664,-1.0787774118852047,0.9227060105255288,-0.607474570279961,-0.43929176664775926,-0.5008373395151352,-0.2950274705147849,undefined,1495191497869
903d185fccf839df,-0.33272486206722496,-0.42958516410057324,0.02256318106425382,-0.05989806677528487,-0.685275477119507,-1.7754729856508915,1.857065686625322,-1.0363368102542845,-0.4281826374765219,-0.6937708188177135,-0.03718262388409807,-0.02394192624395849,-0.843527183600713,-0.7428575719768392,-1.1065484634972371,0.39316156020385173,-0.7166301835461644,-0.8107965349999136,-1.117350829820132,0.1037396954555073,-0.7978493509014912,-0.4422800036039126,-0.616561201062894,-0.468135861967329,undefined,1495191499377
903d185fccf839df,-0.4893445027872439,-0.35914321818604505,0.40919773284988553,0.37176165979553644,-0.4949180813223853,-1.7671156750853332,1.880186927057871,-0.8292515449430307,-0.3561775035886992,-0.7777359051842196,-0.012074949965479195,0.03560169155318134,-0.7651932932263815,-0.7215634163371298,-1.1454958729357587,-0.16654681467503454,-0.8281797131023811,-0.7940269009449963,-1.1367529867481814,-0.23892191197614393,-0.8666465605205436,-0.43982890533190133,-0.6273162472978242,-0.512648541344868,undefined,1495191500898
903d185fccf839df,-0.4643961944085409,-0.38731999655185634,0.44939279518153874,0.4471369662768079,-0.42372048731033723,-1.7422254243267161,1.87853277596539,-0.7965740476047387,-0.39315645556811085,-0.6203880416180568,-0.0013857818232582047,0.07360817782717953,-0.7913045900178254,-0.715082570312128,-1.1507590308019766,-0.12411403402753962,-0.8294784956477709,-0.7649903538076608,-1.1286856637890215,-0.2077554579889907,-0.8406759419304141,-0.4385297798592529,-0.665450744834358,-0.524167336048965,undefined,1495191502396
903d185fccf839df,-0.32440871326711096,-0.39201614576481975,0.509366065602068,0.4775734447827176,-0.29852298167776453,-1.7469491211923411,1.8846812648435685,-0.7488942150068542,-0.48011289908343996,-0.4484775637274892,-0.0037525531875648426,0.000695972115551864,-0.9044535427807487,-0.6539775459285241,-1.0781273771533852,0.21736872890379064,-0.7731519368277638,-0.6672160368540963,-1.085774222676243,0.06073183459118021,-0.7249388305926066,-0.43397247447647036,-0.6373536325971737,-0.5168836700206908,undefined,1495191503870
903d185fccf839df,-0.36876113881001504,-0.42958516410057324,0.5546644520150925,0.5251017539947918,-0.20677456446272072,-1.7919104255478264,1.8848074985523886,-0.779153947937075,-0.5156194364451613,-0.4278494281698178,0.004643587354674267,0.04320368919459136,-0.8696384803921569,-0.6252766998668308,-1.0444431071754972,0.6255314747643217,-0.6996768183052093,-0.644145122943234,-1.0696605672211386,0.42019314735096097,-0.6328009526421198,-0.437985515786213,-0.6561566866723957,-0.5034165389871892,undefined,1495191505386
903d185fccf839df,-0.2689681813384809,-0.4336942690874229,0.3741072652843508,0.3731790537926481,-0.186707169722716,-1.7951573853391698,1.889257130202965,-0.7459650760388137,-0.5284668625970902,-0.4500770055693136,-0.005300491441549462,-0.007787089494286786,-0.9479723707664884,-0.6613842233997334,-1.0802326447172126,0.6214902696732504,-0.7025988231157544,-0.6708194824155655,-1.0893076122179017,0.5728071452982467,-0.6159295159498797,-0.4326622754057808,-0.6579058021779118,-0.5212120690389095,undefined,1495191506873
903d185fccf839df,-0.3077765536885219,-0.3456418732292531,0.3543293113324241,0.3405916169634233,-0.2156511195445381,-1.7926581132480774,1.8902669778755703,-0.7346306835385429,-0.4730877594962899,-0.6682403638114068,-0.04831910819692447,-0.025480388989996317,-0.8783422459893049,-0.6910109138584087,-1.0444431071754972,0.5750162839346843,-0.728844953592769,-0.6985767735625114,-1.0687999597585751,0.5449205598545946,-0.630871682809455,-0.43441845908524857,-0.6501953015756031,-0.5248517290234161,undefined,1495191508367
903d185fccf839df,-0.49350254268189114,-0.42136692489888145,0.3205143571160454,0.2048064828138752,-0.38314340939077063,-1.7363044981878057,1.8811993987725704,-0.7800280481426527,-0.34369039087832576,-0.8075588003843142,-0.028026204235159682,0.020878973579465374,-0.9610280191622104,-0.7197117534447147,-1.0370746927888026,0.5386454381150432,-0.7259918426460877,-0.665195826946215,-1.053959724139942,0.6319987718015907,-0.6019589149962072,-0.4405290478885085,-0.6060197815155892,-0.5091774056871942,undefined,1495191509882
903d185fccf839df,-0.39786748708336533,-0.41901880645041123,0.6427099440058799,0.5441049155589914,-0.4984049290154879,-1.695864245928747,1.885617481161757,-0.6955461313372779,-0.25298208862919536,-0.7701082851110301,-0.06775154293556883,-0.0009519418959459804,-0.9610280191622104,-0.6789750791561618,-1.0223378308853612,0.5871399840020626,-0.6546527559424923,-0.6460956687819808,-1.049411796776483,0.6659369446363069,-0.5855648161575295,-0.4480135372987442,-0.5626812629369703,-0.5118824325276489,undefined,1495191511363
903d185fccf839df,-0.41865768655660157,-0.44543448136587366,0.6720589496100412,0.7086589859022877,-0.5571259758707461,-1.6909868171681706,1.8979959781116391,-0.6157294927109886,-0.21640716694397966,-0.5600602082490543,-0.12614988119803033,-0.00269114594983625,-0.8000083556149733,-0.6539775718300732,-1.0265483660130161,0.5669338737525418,-0.678087852927462,-0.670775150248484,-1.0464731365018975,0.6113494554753721,-0.6127221842663946,-0.4523746838407748,-0.49050884172963777,-0.5009954118669848,undefined,1495191512863
903d185fccf839df,-0.4671682210049724,-0.4272370748800953,0.7192714955261227,0.7879984753725289,-0.6351841286611541,-1.6644567824867316,1.8785564510054542,-0.7222417182313741,-0.2730239320320886,-0.4817831078444276,-0.10491998175747429,0.018694689018278966,-0.8739903631907309,-0.6345350272796806,-0.9991798913643765,0.29819298618118384,-0.7866142085138893,-0.6599014865246786,-1.026952034431236,0.20316745873877728,-0.697400965485189,-0.45712282698133805,-0.45713784723781303,-0.4641499846516583,undefined,1495191514400
903d185fccf839df,-0.5946815824624605,-0.3632523816288794,0.825181544376628,0.8492087837817024,-0.42002792666472305,-1.6481917063236298,1.866885367520967,-0.7174216157319887,-0.2538761719569957,-0.42054505041610324,-0.08629229186472968,0.009623997387871423,-0.8000083556149733,-0.5789850109994836,-1.011811496747341,0.21130686473774069,-0.7591940534789862,-0.624050691946176,-1.0372723303519935,0.1364613941020618,-0.7025453751676862,-0.4460379089542692,-0.4203319283267779,-0.46138116511056493,undefined,1495191515871
903d185fccf839df,-0.2994604738992274,-0.3738185931390797,0.5106418330881735,0.5778487690307625,-0.18898031945700153,-1.6424850704401148,1.81566200223246,-0.9861428450668104,-0.37001893274304143,-0.44213935218141603,-0.004891442673756373,-0.08425181783906908,-0.6476924576648841,-0.5678749947926697,-1.0402325904534269,0.5123774778318332,-0.6862827206905994,-0.6280087816227393,-1.0394203515113476,0.3967105182473087,-0.6471608259233006,-0.45079240813014837,-0.4297136741034045,-0.4736269107754303,undefined,1495191517361
903d185fccf839df,-0.4144997156727738,-0.42371492643538233,0.14952745962669012,0.07815115743361381,-0.02971658420075209,-1.701838744587336,1.8366557363767675,-0.9045514264085739,-0.4015031385491277,-0.6780858755743074,-0.044322445001871234,-0.0684485726861948,-0.678155637254902,-0.6771234033129722,-0.9960220231486874,1.0842093690574077,-0.5833626114184837,-0.665607468905352,-1.0026311206741776,1.3661658407311994,-0.437841799651081,-0.44736901132045953,-0.5362771189689973,-0.45050166897008215,undefined,1495191518873
903d185fccf839df,-0.22600170008297307,-0.4284111048763381,0.11060892719199067,0.11178710358091125,-0.3754188556741203,-1.6795316208357463,1.8611366098167839,-0.7914385227557975,-0.5966613240587776,-0.8191282137876973,-0.036719397957657704,0.05867842602174178,-0.7390819964349377,-0.6789750791561618,-1.036022051644655,1.1549307549307306,-0.6118099235195231,-0.6665194116488067,-1.0351872811634064,1.259593199757064,-0.46426460610957704,-0.44936895211184985,-0.603638790038536,-0.40269171496264894,undefined,1495191520371
903d185fccf839df,-0.5087486199514449,-0.40493050495148264,0.25990371122636224,0.16088447726645966,-0.8791197221301269,-1.649663786469732,1.9206596442642536,-0.48364455068839,-0.44628332795035164,-0.7811476199749063,-0.06623556023075301,0.06830704756294906,-0.2908380681818182,-0.7104534001303159,-0.9939167371792755,1.0235912078971747,-0.6015673529421185,-0.6844923054841183,-0.9989438009934963,1.5002862983201495,-0.40482315020265913,-0.46582197065117864,-0.5790916664538421,-0.42143413082859893,undefined,1495191521861
903d185fccf839df,-0.4546941013210306,-0.41960585067652495,0.6248461495570102,0.7560885614419695,-0.8685254501354507,-1.7081137157804913,1.915978596194008,-0.586978678645686,-0.3802115437144426,-0.7110743286591781,-0.09527886298370254,0.10936053992233279,-0.5519510360962567,-0.650274220143694,-0.8918113560426847,0.7892008603794983,-0.5194464219789894,-0.6343607238654037,-0.9189632561497012,2.024895937777851,-0.2542512158985286,-0.43462496435207254,-0.4099694731526656,-0.42763044332471467,undefined,1495191523397
903d185fccf839df,-0.09017225883619041,-0.5493363114013132,0.49915738434373,0.580331612800212,-0.5940619144180123,-1.8705734917097858,1.946962972028338,-0.5236981924804162,-0.2954572779558085,-0.6009626017162352,-0.053642440371039914,-0.05873314692600913,-0.5519510360962567,-0.6123150337183764,-0.9297061206559418,0.4254913281236685,-0.6621836415453262,-0.6175214249053153,-0.8919975472756697,1.2720043555103473,-0.42275811196202234,-0.4407154840891361,-0.3147897260844105,-0.36767448957459115,undefined,1495191524850
903d185fccf839df,0.25355945318623296,-0.669674502928167,1.0695398122601143,0.9868268006978089,-0.2567733344678574,-1.9345017914294511,1.9000998271676868,-0.8179576439598166,-0.2936543666011918,0.15809691632026862,-0.04164408367353417,-0.099228624866285,-0.6346368092691622,-0.5956500158835427,-0.9286534831929112,0.2294923583093651,-0.7546869758670516,-0.6317768800933047,-0.9133728040940754,0.6124735388966197,-0.5654500145103669,-0.4680514421801703,-0.40454216066775944,-0.4308741255429894,undefined,1495191526347
903d185fccf839df,-0.027801453384023154,-0.6737836079150168,1.775818670100319,1.6377830321647358,-0.18448546065079446,-1.9112955811336412,1.8867404140496258,-0.8747989606357934,-0.33295054885998526,0.08767740054199025,-0.11117906167522434,-0.21655595766220873,-0.847879066399287,-0.6882333936182371,-1.0202325743648846,0.10421470370658062,-0.8958362137018016,-0.6663167555520537,-0.9734194345667053,-0.017661647541040812,-0.722167618813502,-0.4798587438000436,-0.541679303100593,-0.5634616193712536,undefined,1495191527865
903d185fccf839df,-0.2661960857312299,-0.6643913094890899,1.93276958387302,1.7449404848576133,-0.36208858703088953,-1.87229014146728,1.9065665227887274,-0.7521918221950965,-0.36131959371774935,-0.17274915144832542,-0.10420197831255454,-0.2745267370591619,0.44027824197860965,-0.5891691763339282,-1.0454957630441122,-0.04935154198967098,-0.8308978450234676,-0.6328534823289511,-1.0081655968970364,-0.08316663463109157,-0.7282357655291083,-0.4857917638370947,-0.5263187952960949,-0.5662197810220825,undefined,1495191529369
903d185fccf839df,-0.28975831180089767,-0.6773056686757527,1.5818631292590262,1.6260618463720753,-0.5063866338223564,-1.8874301960408706,1.9441753709291771,-0.5790381596179311,-0.40075920928416947,-0.20488003252505682,-0.08852899856066612,-0.30521999349052864,1.0495418337789661,-0.6715684016849525,-1.072864197200466,-0.015001171524318551,-0.896674059454946,-0.653118903015692,-1.0399101273368048,0.0046353016940412104,-0.729054586178197,-0.5022284327844254,-0.5945818556102814,-0.5868338343443101,undefined,1495191530881
903d185fccf839df,-0.21214156710081555,-0.6051027946788298,1.7796467349694836,1.7583892682858624,-0.6373852674632915,-1.9216933052481537,1.9322465688002954,-0.7209883012929695,-0.4390974648294648,0.054674175546725455,-0.07346685771615914,-0.37391648255156035,-0.22991170900178254,-0.7030467226591065,-1.087601062785024,-0.02106303569036848,-0.9393488570187906,-0.6607754315894588,-1.0497966212951786,0.03925100537450464,-0.7353955951939243,-0.4909460447254937,-0.5257767609276492,-0.5952875068887524,undefined,1495191532392
903d185fccf839df,-0.15670089715054653,-0.6221262296243499,1.574845137400699,1.4872379547626406,-0.643350974746385,-1.9280055434787167,1.9163809493150537,-0.8270654425500177,-0.45710194011383887,-0.0593254989591549,-0.07737379851146127,-0.2515110411677608,0.23573975044563283,-0.5595424793998656,-1.1086537236988308,0.10017348448314861,-0.8215965108636144,-0.615007248646157,-1.062257941423721,0.3066296156578737,-0.6602692307571664,-0.4655943349461444,-0.49448171180037814,-0.5212319728336336,undefined,1495191533865
903d185fccf839df,-0.018099429307332358,-0.363839411240997,1.2705133449597341,1.2276917490729942,-0.44928044607335416,-1.889561450701245,1.9449117148514758,-0.5189240519374747,-0.3367747640465627,-0.16975624119664479,-0.11556982013212423,-0.2954774401876168,0.2400916332442068,-0.5539874777718459,-1.079180007254182,1.0094469759460645,-0.6073818090693113,-0.597642316540155,-1.0336409846261414,0.9370573674567985,-0.5089483402277631,-0.4571409834706268,-0.4537620816090129,-0.4134250620826261,undefined,1495191535369
903d185fccf839df,-0.054135844071761384,-0.4929828131256754,0.721823792909182,0.7335745798869097,-0.6143041742958297,-1.8565561309271121,1.8700306229387056,-1.0261653355285385,-0.2533025175866206,-0.6702017378090124,-0.09528858803645525,-0.17458928119577646,-0.042780748663101595,-0.5289899574949827,-1.0012851515659702,1.082188780644233,-0.489527180831295,-0.6162738367061621,-0.9815847118688237,1.0573808210625937,-0.4803427911761576,-0.45671968746041586,-0.403212438847113,-0.46439567283283717,undefined,1495191536874
903d185fccf839df,-0.2911443941099329,-0.4953308438901686,0.6044295494511827,0.5858188145644802,-0.5899476452451365,-1.8491398333226872,1.905530369748833,-0.7806382642873466,-0.3179699343446649,-0.4655444782473162,-0.12504508430767428,-0.2121923468128136,-0.6825075200534759,-0.5326932832798128,-0.9833904104034891,1.3064763274196427,-0.41666756979007935,-0.6356716440980269,-0.988756442448531,0.9248002068605138,-0.5180798721888931,-0.44933346021121007,-0.3503937599208828,-0.41028905348198397,undefined,1495191538373
903d185fccf839df,-0.4144995776511349,-0.4548268382477852,0.8188014362613536,0.8307357703805209,-0.6170915939781568,-1.8107539710033225,1.8599979106783955,-1.0237132520188474,-0.3210072689192286,-0.4732416531152435,-0.14926256132552232,-0.11247508204376794,-0.321301247771836,-0.4780691049212107,-0.9602324892880888,0.8760868687640553,-0.47033552749981933,-0.6032026411498085,-0.9754555051738307,0.9667917696657329,-0.4969091056758951,-0.4431845243683757,-0.40873247273693675,-0.4289847525592733,undefined,1495191539864
903d185fccf839df,-0.4574661279174621,-0.2710908515558676,1.1371689582820235,0.8788997293045892,-0.14945237280479837,-1.7483652987872036,1.941711237227327,-0.24852606699104768,-0.2243898628616506,-0.364367111122778,-0.1620926475649859,-0.1276271746333988,-0.6607481060606061,-0.4243707644842033,-0.9570745916234645,0.22949233004464356,-0.663317730034671,-0.5680801353378193,-0.9957252667423443,0.32002625995172623,-0.6091029535844272,-0.481833703409684,-0.564698686646087,-0.46217644602840086,undefined,1495191541377
903d185fccf839df,-0.46855423430318816,-0.3738185931390797,1.317726145012765,1.2679845590496797,0.09934834949584172,-1.752518332880287,1.920785874830509,-0.2907110663948311,-0.2839569802776819,-0.4139199930056049,-0.15075413903401508,-0.08128824559085794,-0.865286597593583,-0.4595524500955111,-0.9991799134510778,-0.00691880373925838,-0.7047444399879238,-0.5377073373115574,-1.0188567243998468,0.04998372420647045,-0.6550409074728111,-0.46647158749293505,-0.5967236270753284,-0.566785168664244,undefined,1495191542897
903d185fccf839df,-0.23847588877773432,-0.2640467300343956,1.3509027072121922,1.154026613072619,0.22251957274181802,-1.7197669001423934,1.8690760016625971,-0.549624431163561,-0.32539984863573174,-0.5207687937842509,-0.13266790118969218,-0.005567529888616351,-0.8043602384135473,-0.4012249459520788,-1.034969425224975,0.0011637195017702394,-0.7629371872443225,-0.4664997182541523,-1.0164918016200681,0.4336667877088032,-0.5486884109720459,-0.45351117120257806,-0.6381307432554079,-0.5229220953154045,undefined,1495191544376
903d185fccf839df,-0.20243926698084688,-0.22471663747628562,1.4312923236015997,1.3362770869933394,0.2752234861193876,-1.7551596888730856,1.9484777314907453,-0.09414621658602662,-0.4000551769439342,-0.30191684537350805,-0.06271050502319954,0.00609285326553671,-0.6868594028520499,-0.3706723851948723,-1.0097062291835135,0.021369660162961816,-0.7482068303824982,-0.40595044282998444,-1.0053668725218974,0.4423823106046372,-0.51098294126747,-0.4537963839719637,-0.6796351527573848,-0.5497295278962515,undefined,1495191545862
903d185fccf839df,-0.1996673784060543,-0.29515852493482914,1.4568127560626976,1.4767510335667258,0.06239184793668201,-1.724141210133212,1.9423949903179627,-0.16615855182828537,-0.36456040720991106,-0.17177947633737642,-0.11421106425974041,0.026741902784088455,-0.6868594028520499,-0.3660431696853492,-1.0423378432927866,0.11027656787263054,-0.7596609136880693,-0.42581688769409304,-1.0136580933190038,0.47645906974454066,-0.5145064364149103,-0.45754606341324894,-0.6872451746313816,-0.5507879649645968,undefined,1495191550674
903d185fccf839df,-0.5239949042534572,-0.3644263239411452,1.1244089961884238,1.098617749431078,-0.08682275767403586,-1.7322283275052504,1.8394328276897705,-0.9053726724413867,-0.44075785477643564,-0.3135134071715825,-0.07826431156444907,0.03296298246407233,-0.5780623328877006,-0.3734498860088821,-1.040232583091193,0.14260629339536504,-0.7423259626797497,-0.4752075158161029,-1.0167926643226044,0.4455389941020201,-0.5437203198931876,-0.45095635062979555,-0.6693148746580572,-0.5420967629006167,undefined,1495191551860
903d185fccf839df,-0.5835933380550956,-0.409626566480469,0.9062090445090882,0.9608327432087581,-0.2268522404726108,-1.6610654107472826,1.8767445253229373,-0.6252216262233494,-0.24782575523701317,-0.2797959825114838,-0.05492197277193822,0.012511375978020744,-0.6520443404634582,-0.45862659922314175,-1.077074724965887,-0.08976360703274412,-0.7929136606138436,-0.5597396479997842,-1.0215714856436588,0.3276176970030968,-0.616988743846082,-0.43644455450523484,-0.6295375485909305,-0.4973611988998372,undefined,1495191553369
903d185fccf839df,-0.6903166380609864,-0.47302430318954825,0.7766927227005422,0.6528474047304458,-0.3049206839433554,-1.6446768859208665,1.8020238540402538,-1.13366250872735,-0.19510144950869918,-0.6186296425446793,-0.006048942203883184,-0.05400136310078474,-0.6433405748663101,-0.5039924566442814,-1.0728642045626997,-0.2493916462332418,-0.8594056613335515,-0.6225561166624983,-1.0425199376531127,-0.04423936065227164,-0.7314019905690888,-0.44355514109574995,-0.6270370148239525,-0.4919930564042572,undefined,1495191554863
903d185fccf839df,-0.6196298218303441,-0.4424994648312514,0.7192714955261227,0.6230821270642681,-0.3236715128553198,-1.6458997352703089,1.863763797618511,-0.6985619783746815,-0.24114351557350813,-0.8765078832818602,-0.13672781640346435,-0.03075928765174267,-0.678155637254902,-0.5549133027426661,-1.0560220714143143,-0.2291855925131641,-0.8341788016665622,-0.6276921340734499,-1.0177442310850804,0.11093077347722895,-0.7018948426197138,-0.4476499557160871,-0.49655484675407713,-0.31711312960808935,undefined,1495191556370
903d185fccf839df,-0.46301011209950566,-0.37910184503414157,0.7537240793486047,0.6720693845724485,-0.5077443451192488,-1.7109623750743812,1.8972911928784255,-0.5645148456176011,-0.19878188824446136,-0.9225149505241876,-0.23664716205889874,-0.01063331754752382,-0.5998217468805704,-0.5493583205408082,-1.0054957014180925,0.6194696812600756,-0.3290338447103039,-0.609130276603484,-0.9644985001789917,0.9794030852856002,-0.4773957865303249,-0.45905999444387485,-0.35091522362853805,-0.12443232755779896,undefined,1495191557911
903d185fccf839df,-0.3091624979759182,-0.40786557994208955,0.682905006337533,0.6486855317654128,-0.5994927610859673,-1.778540591280291,1.8774703385086424,-0.8208868285814661,-0.1876786030713541,-0.794819461006481,-0.2122949709539936,-0.025884910960722436,-0.47361714572192515,-0.5567649526843067,-0.9728640725843519,1.1811986586844974,-0.27823195447695115,-0.6046845492837716,-0.9399676813126492,1.22125106884571,-0.4201521267065074,-0.4481775386799439,-0.3229011312049754,-0.13377573239821888,undefined,1495191559375
903d185fccf839df,-0.3063904713794867,-0.45541378017592576,0.8589962444560574,0.8634630623617187,-0.5742002305459765,-1.8560600026334855,1.9027848496951776,-0.7649794144548664,-0.294006763866871,-0.5280588680101491,-0.15169340975849438,0.04687196127930035,-0.35611631016042783,-0.5243607937885578,-0.9518114337572466,1.1428071113927953,-0.2184600600268592,-0.5400948565907077,-0.9217829697462921,1.2762851135977027,-0.37526630398053923,-0.4772440993845654,-0.3712474920473328,-0.17699549464473316,undefined,1495191560866
903d185fccf839df,-0.3992534313707616,-0.4084525949402109,1.100164585350381,0.9820147919611028,-0.3638062983983038,-1.8388236326424114,1.8674008110948848,-0.9606540975960429,-0.28712446083139936,-0.5046545417939489,-0.0937558919715236,-0.04551489189590516,-0.20380041221033868,-0.5012149623056588,-0.9612851193888856,0.9973233606728508,-0.2197801900825649,-0.507676517081175,-0.9121833451745545,1.3269152032078415,-0.3492026032207975,-0.49206095085153134,-0.4102457756192087,-0.21821969093692234,undefined,1495191562364
903d185fccf839df,-0.6598242074786009,-0.32627037829124733,1.5767590427668066,1.6136022438809643,-0.30303840270765997,-1.810751642264699,1.9383766495779895,-0.4142628196375561,-0.27649999641795253,-0.5604868693193995,-0.19728691050283906,0.07439007379176801,-0.499728442513369,-0.5206574809545023,-0.9949693488744878,0.4153883295283512,-0.4629091271704697,-0.5219319726844144,-0.9586841499979175,1.0968162341694387,-0.4145052096136943,-0.471202708039737,-0.5812629026349186,-0.2538675667367696,undefined,1495191563868
903d185fccf839df,-0.6445780611982276,-0.36912245854011244,1.5671887535254203,1.5018195310640428,-0.23191281347815826,-1.8403027004558814,1.8896226744556945,-0.7177628429976939,-0.32405606250618124,-0.9555180995504122,-0.2011803183581218,0.05580335159437935,-0.7826008244206774,-0.519731630082133,-1.0307588827350864,-0.12209344561436478,-0.7111375514779142,-0.5276886188913402,-1.0264342700715723,0.06838486384924555,-0.666160304702172,-0.47134919318286894,-0.5378447475649444,-0.4812765037525217,undefined,1495191565363
903d185fccf839df,0.1814866926681944,-0.5023750530956176,0.8188011821244041,0.6164089194854184,0.37180617099191976,-1.9087567122132312,1.881491316908492,-0.5968564867150785,-0.5546305913530992,-1.353137695137761,-0.08779378727178208,0.004679564400205286,-0.8739903631907309,-0.4530715587427984,-1.0370746707021012,-0.02106303569036848,-0.6399533228145288,-0.523065570887174,-1.0345085899517161,0.26827207994686364,-0.6283881960738831,-0.4464359584075382,-0.5007437301253914,-0.4858686778171798,undefined,1495191566866
903d185fccf839df,0.2868235653109526,-0.5475752298719587,-0.16245970014175584,-0.2262115116767404,0.8707653301229342,-1.980671973003446,1.8066128427526846,-1.0101510353886822,-0.4751004191454738,-1.2788792989065254,0.03684939946008093,-0.007582384027102719,-0.843527183600713,-0.5669491568710749,-1.0960221183158663,0.021369744957126426,-0.6764110935139427,-0.5912460432155957,-1.0533160176065754,0.43297385373272596,-0.6224507022676194,-0.4369978022492471,-0.6327763398977915,-0.5103181866829497,undefined,1495191568430
903d185fccf839df,0.7317343861247648,-0.5563804840717719,-0.3449315546494534,-0.44271901229001026,0.29343945042317343,-1.9516939072258577,1.8916239512252024,-0.6236465724761412,-0.6429915567568567,-1.2099290334397224,0.03250555244197643,0.029339420401042645,-0.9566761363636364,-0.5826883238335392,-1.052864166387456,1.611588117340085,-0.40723760729126696,-0.6619913567644448,-1.0275117788120052,1.3404042462921448,-0.42695055963622264,-0.41313557015103874,-0.7322613973936453,-0.4285835566890834,undefined,1495191569867
903d185fccf839df,0.08030761838221526,-0.433107210247313,-0.2645419382600459,-0.3324742226193715,-0.568234533075439,-1.9047970044664813,1.8810363467677373,-0.9282688161008551,-0.7110356735571527,-1.0324956586912282,0.05411716180490803,0.06123910090961875,-0.6650999888591801,-0.5937983335649658,-0.9876009455311439,1.73484528245622,-0.36264265830205905,-0.7047260605112391,-1.0161769443965702,1.415533265353636,-0.4261849849864036,-0.4093427870327755,-0.6878871103896937,-0.3964457729082041,undefined,1495191571366
903d185fccf839df,-0.7097207552251874,-0.5235075637999952,0.24459145174970356,0.17887935440108818,-1.272125918360474,-1.8077935079533474,1.8888731799447944,-0.998002634579449,-0.421814579525919,-0.9728966410247636,-0.010447946992628545,0.04557794908153479,-0.3996351381461676,-0.6363867031228702,-0.9960220084242198,1.5913820070905642,-0.3744812207692275,-0.7348265419981298,-1.0102506450701916,1.2674926130543187,-0.4676547176238973,-0.40775008418250885,-0.7177641911495175,-0.4385683960323961,undefined,1495191572861
903d185fccf839df,-0.7942676699325776,-0.47126317051120703,0.9081232040121453,0.8543392826009889,-1.1596621066557842,-1.8158317131143693,1.9007230900648098,-0.8819399942016076,-0.3650824222176438,-0.9903889417190593,-0.11180155890496309,0.008288407601580146,-0.7086188168449198,-0.607685857061177,-1.011811500428458,1.4903515689018463,-0.37710648069872715,-0.7171259641872793,-1.0118529145285022,1.1933029053577129,-0.4796979184061669,-0.4121766811757621,-0.7250260201906913,-0.41531025026266255,undefined,1495191574377
903d185fccf839df,-0.7845656458558867,-0.48711257546048453,1.0325351851915223,0.9771229661679445,-1.058275993774336,-1.809957371894818,1.8921183741792822,-0.90204977581516,-0.36487511428381586,-1.1023957574563708,-0.16107766338862195,-0.06223287436979453,-0.5737104500891266,-0.5289899445442082,-0.9918114659343312,0.22140991986250108,-0.5414698976795783,-0.634867358761635,-1.0061575110988272,0.7145806365878243,-0.5692825135752376,-0.4128146324224565,-0.5286838050808289,-0.4535051765111274,undefined,1495191575869
903d185fccf839df,-0.6639822473732482,-0.499440007333003,0.7824346929358145,0.6688734393643885,-1.135285010384101,-1.8284887977403346,1.9164624878877317,-0.7915802205949085,-0.32438588175071736,-0.9697510751520593,-0.12241766093085728,0.020406651819815456,-0.7695451760249554,-0.5910208651278924,-0.9497061661934192,0.314357976133798,-0.4686087843199552,-0.6286547405988635,-0.9550598018414574,1.1293223629533018,-0.4557807782562166,-0.45659820443669746,-0.41066235129063233,-0.18372545631008427,undefined,1495191577371
903d185fccf839df,-0.5808214149748933,-0.5152893245983035,0.5961350276959017,0.5171612649967415,-1.1347810124875437,-1.8029021042277056,1.930063841876927,-0.7080668266869989,-0.23763214332306087,-0.8243304799193062,-0.027040926595473455,-0.013123000295772963,-0.5693585672905526,-0.5826883367843138,-0.9654956545165404,0.5790574890257555,-0.35328424277701914,-0.643619487416554,-0.9416329214510268,1.3224958627732173,-0.4173687761964165,-0.4524919167215676,-0.39872883825118816,-0.17163242896690917,undefined,1495191578916
903d185fccf839df,-0.5420129736140328,-0.5381829679810223,0.5572170035351011,0.5065089475589354,-1.0868599449260008,-1.7446455018739595,1.861954490216718,-1.0632594174444785,-0.20476026470306408,-0.5959904333669125,0.0037786902683393,0.03257962245799878,-0.673803754456328,-0.5206574550529531,-0.9539166792343727,0.692211542487687,-0.29387339525498,-0.5995548641963909,-0.9244767415117356,1.271542406158727,-0.3952815278415881,-0.43606300436664264,-0.49334014367807366,-0.18848533789034058,undefined,1495191580366
903d185fccf839df,-0.32995273195456426,-0.5604895963656197,0.35624296256158233,0.3042877079509294,-0.8602866114508467,-1.6985894544862739,1.8371475258610577,-1.112349882156735,-0.2507153128079267,-0.6464469018933693,-0.005521258782883345,-0.09826312619943647,-0.6433405748663101,-0.4289999022890791,-0.7949691290911949,1.1569512585497408,-0.23544356295260138,-0.5333376048010638,-0.8204341646502855,1.4045849766724412,-0.30027101061646627,-0.3270997752813118,-0.5302173353462029,-0.060581921461237004,undefined,1495191581863
903d185fccf839df,-0.31054858028495347,-0.40610453494772536,0.4034562708885121,0.39726167865495265,-0.8084981255478151,-1.6616034660055312,1.7949023232152213,-1.300836550961554,-0.2868972486625322,-0.6280951237986522,-0.0417490473187159,-0.005037759451723695,-0.8130640040106952,-0.48454994447082517,-0.7823375237082304,1.1751367803860868,-0.21119683145259074,-0.5473144115358246,-0.7996186524206291,1.369907680017931,-0.30520211791490864,-0.3321701238080523,-0.5219934694273668,-0.06878726743498846,undefined,1495191583400
903d185fccf839df,-0.43944788602983786,-0.3556211866533014,0.3243426761221595,0.2904273588813947,-0.9312167756114444,-1.6079424530739443,1.8060868977727822,-1.1494409808929733,-0.35495461448071103,-0.6488977113583693,-0.0989826833419216,-0.1655920182642306,-0.673803754456328,-0.5225091049945937,-0.7823375237082304,0.8094068293054114,-0.2754638284292091,-0.5694227174485199,-0.7928387426321926,1.2175708550175781,-0.33989088697354175,-0.32594225289490913,-0.5718827261798232,-0.07117254718309841,undefined,1495191584919
903d185fccf839df,-0.5004325746675602,-0.3967122365217985,-0.0680346083095928,-0.01042640598713912,-1.015775492379063,-1.6325811470018454,1.830646659031577,-1.062484089965497,-0.261849470321689,-0.7628874936292999,-0.10349135032183211,-0.06449916860398167,-0.3517644273618538,-0.6336092023088603,-0.8381270883818388,0.8033450075364438,-0.25548456333085395,-0.6116697851910183,-0.7942660916595428,1.2502617528018585,-0.3446251909786675,-0.3024329221973121,-0.830987400955747,0.049978248023318655,undefined,1495191586378
903d185fccf839df,-0.7928816566343618,-0.4653930497579855,0.15590731360501514,0.049137152525848965,-1.2484276757267132,-1.6596958209122545,1.8871059708726163,-0.8088270853110722,-0.2243808380157042,-0.7133001954772683,-0.06930931256932787,-0.05454161379008344,-0.5084322081105169,-0.547506651173006,-0.8686534202028169,0.0395552102640293,-0.5604025398097053,-0.5972116749582425,-0.8241704621049766,0.8560153519000776,-0.4426861741842101,-0.2966267693426692,-0.7562187240923979,0.055420774296384125,undefined,1495191587871
903d185fccf839df,-0.8067418241219291,-0.4882866931407043,-0.004233527156848299,0.062264309978736686,-1.139841571597472,-1.6979069909295001,1.8727182904587258,-0.9572113077823972,-0.31313544925363396,-0.6235409455375851,0.015013671697152682,0.04477869338606296,-0.6868594028520499,-0.6965658831094921,-0.854969199443523,0.02743156672609405,-0.660719983435964,-0.677184088447188,-0.869285899121039,0.7925121588005118,-0.5076111496782135,-0.28945798142226087,-0.6884051864922116,0.08840275389845974,undefined,1495191589374
903d185fccf839df,-0.6861585291555197,-0.4196058799045173,0.5202121223295598,0.5654065743508119,-0.8607597543108237,-1.7320676136528759,1.8855438445697312,-0.8514278323252029,-0.34286239038757105,-0.5251373535466107,0.013681965285492252,0.056921197373337666,-0.7173225824420678,-0.7882234747256898,-0.9328640404072674,-0.17867045821296978,-0.8790606191997719,-0.7571818338326499,-0.9494413635822254,0.6446408859951392,-0.6044490622443887,-0.42805691532815604,-0.7044911785708275,-0.15874811192205254,undefined,1495191590878
903d185fccf839df,-0.5794353671712678,-0.4401514340667582,0.6880088386928032,0.7053890632221257,-0.8046821323846575,-1.7759504806949118,1.9037157969787426,-0.7672886336479603,-0.3293030205560312,-0.5420541045527166,0.01783778885351708,-0.019617760341112175,-0.8696384803921569,-0.7298959317299338,-0.9444430083272014,-0.1524025544592029,-0.9094807846633327,-0.7379993466088665,-0.9624904157020677,0.6453800099764808,-0.5969413433721282,-0.4196859168987254,-0.7473171438520386,-0.19558812405723075,undefined,1495191592444
903d185fccf839df,-0.05413591308258086,-0.45423976479367917,1.0293450040654104,1.1236327818006455,-0.48545524121129763,-1.805785705730903,1.8958921238179827,-0.7647758297840493,-0.27861087459464795,-0.22569178231195167,0.03812456690501541,0.08440956429932521,-0.852230949197861,-0.7002692477466458,-1.023390464667275,-0.16654678641031298,-0.9305601348315943,-0.6900969613085469,-1.0111462390828994,0.3598312382398097,-0.675091959984908,-0.4079283992407722,-0.5425786936616326,-0.44781014230728994,undefined,1495191593871
903d185fccf839df,-0.011169431827073065,-0.5370089964407642,0.5808232764931418,0.47517086636103684,-0.08183420603135344,-1.816563095193723,1.8589117950390177,-0.9441404798836455,-0.26913316352614897,-0.23959864053223148,0.045180451004419774,-0.006828536277981508,-0.8609347147950089,-0.6317575523672199,-0.9739167247718501,0.6235109146158684,-0.563361392142335,-0.5970723509613998,-0.967724030115481,0.9511315486005886,-0.504150918164071,-0.37829530471294515,-0.2866583147961701,-0.1128379569397066,undefined,1495191595374
903d185fccf839df,-0.06938199035213466,-0.4190188649063959,0.6739728549761488,0.6834022831667146,-0.037183993412899345,-1.7825631880224766,1.8427647871069266,-0.977023977917433,-0.3715402046829483,-0.3043254059720207,0.013294622668610595,0.073871497263249,-0.5998217468805704,-0.587317461638415,-0.921285087211801,0.7063557179093541,-0.5726707556171179,-0.5365230756590386,-0.9528138258130778,1.124333265672881,-0.4322244516027846,-0.3923734480585246,-0.3951935321081054,-0.1611973253944384,undefined,1495191596876
903d185fccf839df,-0.3632171546279715,-0.380275845802392,1.0057384769704203,0.949446075808866,-0.43563131962761964,-1.796165945397257,1.863690166264094,-0.9426938928059581,-0.30880229183228997,-0.687904572465018,-0.060374393979691014,-0.0542921980461895,-0.6607481060606061,-0.42251910159178824,-0.9286535200040802,0.6497787901049137,-0.6231676799574367,-0.48382031926718594,-0.9526808863574844,1.3037867485000352,-0.37609362875397256,-0.39622148097598264,-0.45523138243572503,-0.1526281782292124,undefined,1495191598363
903d185fccf839df,-0.5059765933550134,-0.2904624487918465,1.1990558799317108,1.1331629021535534,-0.7130777136758263,-1.830116936972474,1.9588391718028153,-0.41312554881239755,-0.3391524677779524,-0.8657784508338292,-0.07069760144401965,0.035602219664623735,-0.6041736296791445,-0.3771531988429377,-0.890758718579654,0.6841290757761015,-0.5768756294404814,-0.3960203894526236,-0.9072925744206937,1.2863557091568136,-0.3370240207567677,-0.3981289015603474,-0.471333764582656,-0.179438512935995,undefined,1495191599860
903d185fccf839df,-0.5295388194246813,-0.3826238181109005,1.2099024449331015,1.1654002349585408,-0.6858823286735861,-1.8407056573034521,1.9682144290071268,-0.34522599690365824,-0.3901215277972805,-1.1527172022803904,-0.07797578747106468,0.03250548620378842,-0.47361714572192515,-0.31789981792558697,-0.8749692081698315,0.46994458412545215,-0.670527610262253,-0.41231505396087637,-0.9239799681658228,0.5808297331140939,-0.48806797935213586,-0.3985821775924657,-0.48852574388055975,-0.40444339712030064,undefined,1495191601374
903d185fccf839df,-0.1941233942240108,-0.31453006371482345,0.4908638791362468,0.38855697539789397,-0.609439030884365,-1.8389936650771157,1.960185625938593,-0.36583282117134075,-0.3149369462496112,-1.1348634070809545,-0.03463295221534132,0.06476489025681799,-0.05583639705882352,-0.3549331923308589,-0.8602323867586761,0.22545106842412926,-0.5841148027587196,-0.44864715210937073,-0.8821390397411164,0.5891756887151071,-0.48615205872047057,-0.4224546088953447,-0.46795518833888783,-0.3781142875834538,undefined,1495191602922
903d185fccf839df,-0.2897583808117172,-0.35033802244221657,0.05701551074978643,0.04016356569139328,-0.619539584515917,-1.8181749263006355,1.9539161629585218,-0.4188379510334756,-0.28124386838247484,-1.0518015754991359,-0.003940714560400207,0.07232945540223792,-0.3778757241532977,-0.5058441260120837,-0.8644429071618633,0.7285825013662144,-0.433890417904944,-0.5570671479050778,-0.9031644568598427,0.7970854979461843,-0.491352474596942,-0.39951022095865857,-0.46609941134240707,-0.42729532017359195,undefined,1495191604369
903d185fccf839df,-0.19550933851140706,-0.5023750238676252,-0.049531913569872764,-0.10368480958158878,-0.6158984470481127,-1.865225558443385,1.9184453392726457,-0.7274971464817663,-0.2830495806059628,-0.7302870551362303,-0.02850932107191524,0.037570607430203615,-0.5388953877005348,-0.5456549882805909,-0.8949692463450751,0.9326639378921033,-0.24818105511231106,-0.5383786294797775,-0.860560875107551,0.8511802370278485,-0.45689359129539714,-0.41500384584973754,-0.44329042025901627,-0.3912930967280351,undefined,1495191605886
903d185fccf839df,-0.3410408038348805,-0.49356976966781213,1.0612457987787323,1.0547277724627206,-0.6259784310900578,-1.8279111457981898,1.893406966353729,-0.8410565530909714,-0.31533091157329024,-0.3860003555081364,-0.13721949007301654,-0.049802686682505995,-0.4866727941176471,-0.5475066900253296,-0.9086534597421352,1.0619827834535982,-0.26712446383579386,-0.5608795771364115,-0.8652627313132161,0.8345653139470492,-0.4710332415386379,-0.43500502769803895,-0.3723810839663643,-0.4499566737383455,undefined,1495191607359
903d185fccf839df,-0.10819036270217573,-0.5000269346471474,0.7715886362083226,0.7586341677882343,-0.5423659935046904,-1.8058113243673424,1.8512695914112718,-1.0704034758570442,-0.2769835087422334,-0.2690049155009167,-0.17271149568603647,0.003287896383929347,-0.6563962232620321,-0.5391741487309765,-0.9412850885758758,1.3569915465140017,-0.19629338302887886,-0.5778645321345434,-0.8828737043020467,1.1010970063652952,-0.4310970960784061,-0.43565052123769205,-0.2882847703992238,-0.42356153017440423,undefined,1495191608954
903d185fccf839df,-0.3396549285583037,-0.6139079611946658,0.5967736738498027,0.5480525016531921,-0.5152529014806857,-1.7658718601941221,1.859595568032567,-0.9772253788762539,-0.2310293145569484,-0.5233120142120635,-0.12557478829461055,-0.015285579765831957,-0.6433405748663101,-0.4799208066659494,-0.8423376235094937,1.0377354963777279,-0.33273563652677124,-0.5379669874375905,-0.8576152167130379,0.7112699641799539,-0.4973171157620578,-0.4146748883039594,-0.25282178405805905,-0.3146155508624716,undefined,1495191610370
903d185fccf839df,-0.32163668667067946,-0.5528583429340569,0.5100036952081713,0.4995646583209672,-0.28517214553347064,-1.7366305907568504,1.8019081332601572,-1.253050701976606,-0.26541917296964535,-0.757338754921573,-0.04603160976451393,-0.026521343248903095,-0.7086188168449198,-0.5299158342689012,-0.847600766651244,0.9104371261705215,-0.3335096350371988,-0.5560158763423444,-0.8971192102682316,0.7228957861974235,-0.5134082920660632,-0.403377167547937,-0.30647996779222686,-0.2509445929798791,undefined,1495191611863
903d185fccf839df,0.0913955522408926,-0.30278971991040715,0.3307230383743834,0.24226574089709363,-0.2922589922553565,-1.8054037074475888,1.8332343814497178,-1.1112736800902616,-0.33550844103471344,-0.671504223607522,-0.015302565198291162,-0.011991840240256863,-0.7434338792335116,-0.542877461565032,-0.8412849713219955,2.167255357789704,-0.11187081514589493,-0.5672505190849011,-0.9092376873122255,1.7443670593374432,-0.2788547741955237,-0.3704687044776411,-0.19373488470357525,-0.2214401383643303,undefined,1495191613399
903d185fccf839df,-0.020871455903763863,-0.45247874902730734,0.5954976522267478,0.48413707237898057,-0.6024858970536746,-1.8291945574720572,1.8925154666458792,-0.8207232608592668,-0.33067894814719717,-0.8436750925879224,-0.10206267652083095,0.0652901466719178,-0.7173225824420678,-0.6280542006808406,-0.8865481760897654,1.2781878635174224,-0.31952076384777994,-0.5992888821841835,-0.9397367851100924,1.4264815524058916,-0.37007558608020386,-0.41562976932372314,-0.23285552546499286,-0.25410376813410585,undefined,1495191614869
903d185fccf839df,-0.6515081967001258,-0.4841775735398584,0.31158195161771174,0.19590094829292778,-1.0140783537580778,-1.867207742145365,1.9552363400100987,-0.5613335106951907,-0.3798970565810073,-0.6089652828753123,-0.04443029916230563,0.03640234667125204,-0.7695451760249554,-0.6512000062621905,-0.8854955533512024,2.4460991874269364,-0.10428768047975813,-0.5817972912932202,-0.9214821058448117,2.164744622121186,-0.1896865909076057,-0.4277680676632278,-0.28057266444351564,-0.123355604812733,undefined,1495191616373
903d185fccf839df,-0.40063951367979683,-0.5188115168850049,0.5655110170164832,0.4851511840353056,-0.9312990659609954,-1.89523780578814,1.9795778197249978,-0.4366893908804595,-0.3667145117877175,-0.41883406692365416,-0.03541615667665512,0.008813674659352571,-0.8217677696078431,-0.6141666966107914,-0.8844429306126395,1.912658702169456,-0.23610631067016152,-0.5548949468893959,-0.8621071691245868,2.8052737502557292,-0.020595852675587067,-0.4133696876300378,-0.37634954510455043,-0.3510299525905704,undefined,1495191617878
903d185fccf839df,-0.26342399012397893,-0.6843498778812017,0.6350540684045,0.6957845358116054,-0.6785897776414394,-1.9635916591242906,1.9461477266694769,-0.677512485095464,-0.33391007432999925,-0.13814956020428168,0.08267117601824335,-0.0853897652359899,-0.7826008244206774,-0.6113891957967815,-0.9139166176083531,1.3873008532118905,-0.49741796392359355,-0.6179900644482721,-0.8882122702913723,1.9426374457309135,-0.24583821454844376,-0.42607593724313736,-0.527810489996822,-0.4838688708812894,undefined,1495191619372
903d185fccf839df,-0.005625378634210056,-0.6890459832521767,1.2309566746450324,1.0505649244129152,-0.22385910907409373,-1.9858079435009106,1.8542964852464712,-1.1617491656339352,-0.34271479061386706,-0.3985044665932454,0.12621723796490575,-0.15511218087456105,0.0007380793226381577,-0.5484324761438262,-0.9402324731995465,1.3610327798697943,-0.44203472836085167,-0.5960717462368651,-0.860371960235151,1.476218532099372,-0.3384372181939934,-0.43733615463075076,-0.43900317946731976,-0.43505061666350653,undefined,1495191620874
903d185fccf839df,0.0373409645996588,-0.7635969756975699,1.422360426377165,1.3397942944516468,-0.12904555974304555,-2.004637513327657,1.804401177515997,-1.4624142541002685,-0.30602818742722776,-0.5914773555592598,0.18745172776274827,-0.2435214904818108,0.12259079768270946,-0.49288249224056563,-0.946548268528795,0.8013242777996612,-0.4923217482738801,-0.605058193137911,-0.8710281041117726,1.2772552195245017,-0.3823954582321758,-0.43259968495576967,-0.4535402635614836,-0.4398790865409694,undefined,1495191622369
903d185fccf839df,0.2798936368415128,-0.7506826603528955,1.3808893424224569,1.2697674029021502,-0.31272753838825995,-2.019677411546755,1.8508067397165398,-1.2255495204832085,-0.28785228854519956,-0.4351079064566438,0.2789774109551789,-0.34770954849856833,-0.0036138034759358177,-0.5928725085941456,-0.9897061836460361,-0.012980568978782931,-0.9277500522170328,-0.6790966375595672,-0.9204115944902591,0.23356399066901318,-0.6570847722059076,-0.4539229498061679,-0.5371527147555772,-0.5654300294689504,undefined,1495191623914
903d185fccf839df,0.20782094533429368,-0.7724022006693907,1.5244421562215562,1.4808416877012391,-0.5314425975895718,-1.9975426509708702,1.9328093582642558,-0.7451134087184027,-0.27244061345565773,0.014870108733027139,0.20949624349321427,-0.41388744346865114,0.9363928810160428,-0.6326833708626528,-1.0381273449763007,-0.2029177735535618,-1.0040936934858382,-0.7095707637034138,-0.9736783161715333,-0.000738755928260512,-0.7375660959069741,-0.4878049060926696,-0.4976468641987929,-0.6119480712019145,undefined,1495191625366
903d185fccf839df,-0.10264637852013218,-0.7741632602777511,1.571016818394585,1.4878737016244978,-0.611887024831013,-1.9551318634008334,1.9979154628462412,-0.3082533625990005,-0.37333929444181324,-0.7271550340050079,0.17773177796492332,-0.45717315230539135,1.441211285650624,-0.6650875750861126,-0.9991798840021426,0.015307923188158802,-0.8766008645445013,-0.7306657994416164,-0.9662407059894113,0.25464446494858195,-0.6850535498500668,-0.4969296819106097,-0.49944032737434985,-0.5857605419383225,undefined,1495191626864
903d185fccf839df,-0.338268777238449,-0.5229205780298661,1.1129248015809299,1.075079793798885,-0.5701065273617696,-1.8529737607391363,1.8898725094510673,-0.8943137632974286,-0.24674194416588963,-0.6882694788732254,0.08884480011336396,-0.39262789785540464,0.8406514594474154,-0.6863817566273711,-0.9033903239626186,0.6578612002870562,-0.4795249146960921,-0.722844613407614,-0.9141074671869109,0.8457137953832501,-0.5443366513134921,-0.46689811292124833,-0.3705716026116361,-0.36182662502856494,undefined,1495191628371
903d185fccf839df,-0.550329087908737,-0.5663597463468335,0.8877063497693682,0.8352679469696661,-0.6509418201810406,-1.81729214573022,1.9210698936045827,-0.6794281553591401,-0.21819726441227444,-0.8270917727809068,0.06788748192091269,-0.3825725915232426,0.6187054367201427,-0.5993533546191474,-0.8486533967520408,1.2397962596962773,-0.35409357592475715,-0.7017179125856046,-0.8498697463140406,1.1365596376575937,-0.4621718545729033,-0.45011514299101696,-0.36209252825822985,-0.23800944512049504,undefined,1495191629867
903d185fccf839df,-0.48795848948902815,-0.5810351797558528,0.6114477954464592,0.5830187038594689,-0.6095830361843468,-1.806048908492688,1.848518807560602,-1.1308236530860023,-0.11157411287617812,-0.791020803629195,0.07449331533718362,-0.2615848343135046,0.2226841020499109,-0.567875001268057,-0.8012849244204434,1.2660641917147657,-0.3460561503447871,-0.6551961082041398,-0.819902404613536,1.1623212361084168,-0.43270940011621817,-0.41109834688183683,-0.3793172414405251,-0.23394018683230744,undefined,1495191631365
903d185fccf839df,-0.4117275510547034,-0.6162560504151438,0.9247114851118589,0.8471266663092518,-0.6440092644941852,-1.8445209534110603,1.9162652484378717,-0.7428870363610297,-0.14060673209130217,-0.8170264196699256,0.01775866517298228,-0.12790602421088912,-0.5345435049019608,-0.563245837561632,-0.7844427986342916,1.3044556542123031,-0.3590678192742276,-0.6217455001098688,-0.8074550789876035,1.236957500015347,-0.40578304124028336,-0.40135019598658805,-0.3963154591084006,-0.2125843892470425,undefined,1495191632871
903d185fccf839df,-0.4214297131530331,-0.5229206072578585,0.9853223851384915,0.9329161724204154,-0.4604198632179044,-1.8596796407241494,1.9012937652728343,-0.7797710495431265,-0.2673431246333443,-1.0076911236909198,-0.024896034827743066,-0.02824908817273275,-0.8261196524064172,-0.5512099899086106,-0.7770743732042463,1.2135283559425105,-0.4737185920480392,-0.580290050581731,-0.7904878131499627,1.1845103906923657,-0.391686104548303,-0.4007627774923394,-0.5249361578359178,-0.2090678119158965,undefined,1495191634409
903d185fccf839df,-0.5531011145051685,-0.6878719678699301,0.4315287465957197,0.3671811066787098,-0.36689202092933976,-1.8352342747798194,1.9052148079985003,-0.7358205676254934,-0.3197626618853961,-0.972806247272724,-0.023538717079856327,-0.007251295565226921,-0.8870460115864528,-0.5937983594665149,-0.82233758533425,0.8942724188651228,-0.4747209182209048,-0.6885643885842715,-0.8729242389479098,0.9344704273429028,-0.5056217171838023,-0.38588754458309177,-0.5705054104645408,-0.30484170247566883,undefined,1495191635897
903d185fccf839df,-0.45746605890664266,-0.7418773476970977,-0.2562479247786638,-0.35467145196419947,-0.4733284077858242,-1.765392035740093,1.9053594445701965,-0.6926757293323226,-0.4102605684692818,-0.8152736153049742,-0.04306745118611196,-0.0022718624189443635,-0.7651932932263815,-0.5900950013047485,-0.931811395582003,0.36083184881347796,-0.6352680374407902,-0.6983107893467109,-0.9475592206061278,0.6836605489369235,-0.5872580881156226,-0.3653321922596998,-0.4308877023192158,-0.4797780749339508,undefined,1495191637386
903d185fccf839df,-0.47964234068891415,-0.6532380245247835,-0.538248957610744,-0.6549048110916499,-0.7513507959869136,-1.7021834712649246,1.883092868789135,-0.853144521306343,-0.3643055403344117,-0.630387121474577,0.006619563014355321,0.04570496986839575,-0.6650999888591801,-0.7289700808575645,-0.9981272759880473,0.35679070025184983,-0.7567676093527834,-0.7846984749580279,-0.982165447783294,0.5834782602516951,-0.6454982320737417,-0.3781850154060726,-0.42347826304779285,-0.5100876743451364,undefined,1495191638864
903d185fccf839df,-0.49488848696928744,-0.6714355479225312,-0.39980023030386425,-0.4120133736836817,-0.7087577219919488,-1.665514257224829,1.8816911830192513,-0.7890265005186403,-0.4035064529866863,-0.5942652638131101,0.013306616070066146,0.05798139723423025,-0.45620961452762926,-0.7965559771677193,-1.0560220714143143,0.5426865866766714,-0.7332545820645511,-0.8482812280505835,-1.024027366781323,0.8087421198835665,-0.6278616090002798,-0.44987164671770347,-0.4377281694116518,-0.6057281155038837,undefined,1495191640365
903d185fccf839df,-0.5600311809962473,-0.4325201514072031,0.08891630546310811,0.10724278537417374,-0.5694790965155566,-1.7377183448033764,1.8987717748472628,-0.7165043380577057,-0.3578671430046145,-0.6647877984240859,-0.05281584430611644,0.12714813605581302,-0.5519510360962567,-0.7984076465355217,-1.1076011009602678,0.06380249733989979,-0.9190578983421965,-0.8403903798797431,-1.0684501189884097,0.43636151831397846,-0.7162777396592029,-0.47440870055965917,-0.507753260550422,-0.6088752280036237,undefined,1495191641866
903d185fccf839df,-0.41865768655660157,-0.3679484723858582,0.5846510872253571,0.6322804413447212,-0.7497770799088737,-1.7488567674073112,1.8918632680542422,-0.7768867238205482,-0.27962566525518706,-0.7219951301285059,-0.1307673515432032,0.060974003848746725,-0.8087121212121212,-0.6373125345690778,-1.0454957409574108,0.2759663723126528,-0.857098680902205,-0.7314130853892354,-1.0517697222437863,0.35273256070478926,-0.6816846367222168,-0.4684140621712287,-0.5062604910831354,-0.5822367575059463,undefined,1495191643369
903d185fccf839df,-0.38400731959579804,-0.4560008097880433,0.636968227907557,0.643706161146645,-0.9281310637951994,-1.7851649497922184,1.945471870845646,-0.5025176719004676,-0.2590728001625113,-0.9076457973987593,-0.11401019896731461,-0.005470868932138753,-0.6999150512477719,-0.6039825183255723,-0.991811436485396,0.3183991812248692,-0.8721299550461672,-0.6461463305375202,-0.9841175579016628,0.518958777587739,-0.6011126173548789,-0.450027730302489,-0.35318933744349795,-0.40651413041565276,undefined,1495191644881
903d185fccf839df,-0.6113137420410496,-0.49474385812003957,0.6969412441911369,0.6469716821615141,-1.0215457685036662,-1.8446187803057112,1.9504343157429156,-0.5650691337222797,-0.3230144697450756,-0.908420251678884,-0.12522289206443266,-0.0982650037786921,-0.6955631684491979,-0.5512099899086106,-0.8644429071618633,0.3305227964980829,-0.8304873102352966,-0.5767499329676725,-0.930682913725844,0.5466143866727919,-0.555697872949569,-0.4237440352973789,-0.28890380692107276,-0.34227964067553873,undefined,1495191646423
903d185fccf839df,-0.38816539399585503,-0.5599025813674983,0.684181027960588,0.5963079445378201,-0.7412502403628424,-1.863166512411798,1.9026612662164957,-0.8430994491737775,-0.29047583191859483,-0.8707796987247235,-0.09748291039791492,0.0015184263475022863,-0.6650999888591801,-0.5660233319002547,-0.8097059799512855,0.26182211209682116,-0.7741875050978616,-0.5225019375821596,-0.8628278421252135,0.5330021606021039,-0.5246679985202072,-0.35290456802117287,-0.24224786256877404,-0.18370460294864432,undefined,1495191647866
903d185fccf839df,-0.4436059259244851,-0.46539307898597787,0.813697349769134,0.6865639354475415,-0.6065899010968689,-1.7838745497841286,1.8764315739969157,-0.8604625347145113,-0.30381127530061286,-0.8569633523425791,-0.12533160445414318,-0.07793129919119879,-0.7390819964349377,-0.555839140664261,-0.7960217665542255,0.3143578348101903,-0.7300936271587595,-0.5014259010680925,-0.8205321209201183,0.6228212926614342,-0.49345022973587005,-0.3464113429273136,-0.2629483899074969,-0.22094792076046985,undefined,1495191649370
903d185fccf839df,-0.4200436998548173,-0.347989962449731,0.5393524466753832,0.6312988351067029,-0.5865122200136574,-1.7528351079153044,1.8431329658769682,-1.0188530597051308,-0.3893333826278578,-0.7267387629212408,-0.12982026347035217,-0.040950260222202585,-0.19074476381461675,-0.5271383205041168,-0.833916553254184,0.3305226834391968,-0.6814924168411165,-0.517574907877302,-0.781405953653585,0.4653875876032838,-0.5131636145257933,-0.3589269878741173,-0.2728733874734322,-0.294897243108193,undefined,1495191650873
903d185fccf839df,-0.357673032424289,-0.286353270735016,0.18589394881527976,0.29894308990408175,-0.6220081581107919,-1.722566643416221,1.8833190245543563,-0.7213058433251397,-0.19781645608282947,-0.7599563445834301,-0.14651107852709164,-0.12700820560861,-0.39528325534759357,-0.5539874907226204,-0.7370743189404604,0.6558406684033244,-0.41204587967124445,-0.49444066415317245,-0.7178819084994507,0.7749733312546033,-0.4101130361197037,-0.3573561144237743,-0.37705549562017077,0.09662780126995811,undefined,1495191652368
903d185fccf839df,-0.18026312322021432,-0.5123543665196658,-0.33982746815723386,-0.43032658670143775,-0.6222035895593576,-1.7071913362873232,1.8936751989743685,-0.6744425661496001,-0.21482639317105465,-0.7157469800365479,-0.07561124008328768,-0.029722995968804476,-0.7564895276292335,-0.5863916625691439,-0.7886533632108816,1.4357952577753024,-0.3231041575363725,-0.5612278891604746,-0.690678306930073,1.3181996903683528,-0.31066305559901786,-0.3540007367700581,-0.6023462634467921,0.06607316335979549,undefined,1495191653876
903d185fccf839df,-0.14284083317920848,-0.7178097912301055,-0.5784437658054478,-0.6475168103233889,-0.7301931218079895,-1.5765699309986079,1.8392697693998061,-0.8703095907703842,-0.29203667357529256,-0.6442406885089528,0.004535080225827147,0.07252159281405428,-0.7782489416221035,-0.5789849980487091,-0.799179656856616,1.1751367803860868,-0.3679875133959892,-0.6708574783612634,-0.7625005707687932,1.2474438330984097,-0.39109130414704696,-0.3672909141956425,-0.5205430500641324,0.07736696554635063,undefined,1495191655374
903d185fccf839df,-0.7235809227127548,-0.502374994639633,-0.672230973894558,-0.7810258544541983,-1.1820643632777754,-1.382916981739084,1.760938375342732,-1.1199068431936257,-0.3747819243815713,-0.6396856134894474,0.04864551902448748,0.016436851044081435,-0.8348234180035651,-0.6993434033496637,-0.8360218134557776,1.4842897753976,-0.21924617290895193,-0.7645153824892632,-0.8107925591765854,1.1056703454975054,-0.4764677494902055,-0.3382390287010531,-0.3324960176883649,0.20642154522662204,undefined,1495191656866
903d185fccf839df,-0.8053557418128938,-0.4289981198744595,-0.640968571198188,-0.6860876793164907,-1.374941748015542,-1.3674834442372479,1.7609936017392294,-1.1018844120985687,-0.3284594434730393,-0.6864394039131633,0.041272217621355606,-0.0035006899705518385,-0.9044535427807487,-0.7845201230393106,-0.8412849860464631,1.5954232121816354,-0.13059224012360549,-0.7968893900864009,-0.8236806849704684,0.993569660898439,-0.5156633166376778,-0.32433589681165303,-0.30136655112147404,0.254106269929922,undefined,1495191658580
903d185fccf839df,-0.8067417551111096,-0.43604229985191617,-0.4878459764316011,-0.527454090411234,-1.3535269260632634,-1.4162111265764243,1.8018160780924286,-0.9188994376564023,-0.3681578323848491,-0.7133863416456654,0.01078788668717059,0.05414245476312137,-0.8783422459893049,-0.8419218151626972,-0.9265482671647203,0.8376954062665177,-0.5792950048772622,-0.8978618454130748,-0.8984695961254179,0.5822925830621246,-0.669862254999482,-0.37043469038664845,-0.5153575846643536,0.14846475380335514,undefined,1495191659906
903d185fccf839df,-0.8303040501915968,-0.4606969297730144,-0.27602638700448934,-0.368536744696325,-1.4249096645745125,-1.461717474615892,1.812558843573054,-0.9422656526494713,-0.2944847341675254,-0.7469195091605886,-0.027310689911184665,-0.0801995002028131,-0.9392686051693405,-0.811369312683976,-1.104443188571176,-0.3888136599783833,-0.9566774413147113,-0.8887614047562393,-1.0350123608180848,-0.42727569582699515,-0.9211580505454207,-0.44999359804830785,-0.6515222038679649,-0.4672207824700337,undefined,1495191661371
903d185fccf839df,-0.8829726245346149,-0.4918087831294326,-0.15416568666037375,-0.26950754730716314,-1.3907200064403362,-1.5687832856899877,1.8759582051833719,-0.7715842181922671,-0.3277006884511521,-0.7169584601654166,0.01803002683066129,-0.034261156834407766,-0.6999150512477719,-0.8243309982585924,-1.1391800739253932,-0.5888538207513972,-0.9591555833926222,-0.8737586606308313,-1.0779377954669775,-0.4605055434155987,-0.933068552697968,-0.4636413972865547,-0.6441163813753903,-0.526948708795014,undefined,1495191662876
903d185fccf839df,-0.8122858428093823,-0.6256483196130783,-0.2332795355636758,-0.38293154109404304,-1.2205740076904215,-1.553973982705697,1.8333106483689678,-0.9928806798552333,-0.35054797169044133,-0.758169088323127,0.01500577178221844,-0.06275759181968682,-0.8826941287878788,-0.7687809625522336,-1.1349695387977385,-0.2413092501834601,-0.976538374263163,-0.8088586530165651,-1.080883452289406,-0.25656852913828193,-0.8635737823915394,-0.4697910503896499,-0.6623281917936282,-0.5463267832481171,undefined,1495191664370
903d185fccf839df,-0.42420180876028407,-0.5152893830542882,-0.1694784544109313,-0.3130067629896075,-0.8173438262412214,-1.6993324847129012,1.8999972590712344,-0.7108405320685538,-0.46849808987204555,-0.6831972876662263,-0.011380342902759357,0.015973949646018115,-0.9305648395721926,-0.6595325346057692,-1.1002326608057549,0.1062353627815593,-0.7989373104655979,-0.7308367879243061,-1.0659662517388955,0.8241867599930763,-0.5848923229662146,-0.4567962284135626,-0.4183779506616956,-0.26501629863269066,undefined,1495191665869
903d185fccf839df,-0.46855423430318816,-0.5352478929904153,-0.11907547323178842,-0.23751133979674102,-0.7257188367584744,-1.7065624415490026,1.866393595844548,-0.9237908427893999,-0.4203157995435794,-0.7103563123541786,-0.034599234107562535,-0.007731242409106981,-0.9523242535650625,-0.6623100418951664,-1.1265484722235457,0.19918324946452698,-0.7443493657835949,-0.7392026065941174,-1.085711251983942,0.924831003522547,-0.573997526230435,-0.4499573921265568,-0.4288860328315443,-0.2090506327765663,undefined,1495191667376
903d185fccf839df,-0.4533080190119954,-0.4143227449214248,-0.04060001634543796,-0.12584511553055774,-0.7525439367333471,-1.717262965909694,1.8922629918955858,-0.7594792238530943,-0.3632830195202729,-0.708279223124304,-0.05250492003825525,-0.035896805986286764,-0.9479723707664884,-0.671568388734178,-1.09707475209778,0.13654433030278976,-0.7276880396495699,-0.7341045859039971,-1.063370435282906,1.081494785271785,-0.530050100326491,-0.4534288770828498,-0.46934811678755545,-0.27638449091015127,undefined,1495191668876
903d185fccf839df,-0.5156787554533432,-0.4689151982026985,-0.06548256506348303,-0.12204557003395708,-0.9030545399988673,-1.7046012213963813,1.861980779347419,-1.0008876682912353,-0.3381635919376293,-0.714927913712752,0.008671378672370179,-0.06437177036310547,-0.865286597593583,-0.7002692347958712,-1.1170747865919066,0.38507910762462694,-0.671349888925836,-0.7721212469544078,-1.0708010482626595,1.0258756008179037,-0.5631141342446386,-0.44090483754963056,-0.3809084584920528,-0.25284088334710986,undefined,1495191670370
903d185fccf839df,-0.7346690981093003,-0.633279573044641,-0.1177991974717841,-0.15156158339576448,-1.1927203376396052,-1.654823051248948,1.8711114716385029,-0.9453424617280277,-0.22050735777702227,-0.7367520326795421,0.020763976041756945,-0.022269936935930542,-0.8130640040106952,-0.7326734454947182,-1.0949694992584202,0.5245010083108823,-0.5688619386936887,-0.7844451556385191,-1.0805965831963886,0.8561385383597383,-0.6063021427734424,-0.43533333109675193,-0.34136588077242946,-0.21334180821982662,undefined,1495191671920
903d185fccf839df,-0.7415991300949692,-0.6015807046901014,-0.13949181920066667,-0.17246171056906046,-1.2786161932977753,-1.6941243047109495,1.863745381137852,-1.0707482399295203,-0.24199424574513717,-0.7192217420642056,0.022970168610310357,-0.04114544795377404,-0.8130640040106952,-0.7706326189692614,-1.087601070147258,0.6497786911783884,-0.5637275311218666,-0.8104798870409108,-1.0865228821251585,0.7296249076651894,-0.6471765263317113,-0.43119318844058174,-0.2888686619816772,-0.18623392496474003,undefined,1495191673380
903d185fccf839df,-0.7249669360109705,-0.6409107095642343,-0.2026545083364596,-0.22895281062523568,-1.3699017537939961,-1.7508459379557748,1.8752718238605561,-1.0727645784447708,-0.2335806103266876,-0.7722001525618326,0.0014572535790180654,-0.03997723850876774,-0.8348234180035651,-0.8595126773945129,-1.1465484956743217,-0.3322366473797783,-0.8951085707084517,-0.8888817295012633,-1.1446104057786501,-0.18772207913060326,-0.9042725305228886,-0.4582079806835683,-0.6004149352774047,-0.47901882363258824,undefined,1495191674866
903d185fccf839df,-0.7513012404351843,-0.5599025521395059,-0.17777246789231338,-0.2557913777320952,-1.4559827533752172,-1.7894204678648793,1.9291933685502856,-0.7718488869632186,-0.2997054357993074,-0.6782580334433108,-0.012567399522975536,0.061086652831795527,-0.8826941287878788,-0.8187759707290235,-1.0960221219969832,0.04359640122273977,-0.7242048734937694,-0.8568813645401985,-1.1103470225852405,0.5957200217024934,-0.6927225858113532,-0.45802534945396656,-0.47243486925926387,-0.01495558851157802,undefined,1495191676368
903d185fccf839df,-0.5738913139784048,-0.5951235397107661,-0.2562479247786638,-0.2725193981737104,-1.1558769663806472,-1.9105152857175003,1.9144664565836067,-0.9438039606250267,-0.41380252714496446,-0.7473182756695609,0.021396807704893897,0.04291045061071723,-0.9088054255793226,-0.775261802101848,-1.060232606541969,0.4073057921549618,-0.5397743197937634,-0.8038302968938792,-1.0644199555686542,0.8070174924319545,-0.619207113978625,-0.4499896166412061,-0.32753011287959166,0.012604391008048376,undefined,1495191677882
903d185fccf839df,-0.23293169756323237,-0.7025473720509571,0.1903601515644466,0.11459114756642165,-0.7834935952090798,-1.9412286338801839,1.953164053833224,-0.6467011403516227,-0.4564667741264364,-0.491745763286035,0.03519752579583374,0.05980436064044224,-0.6563962232620321,-0.607685857061177,-1.0160220171505283,0.4699446689196168,-0.4716355853846818,-0.6695908893323417,-1.033619994285267,1.005349472687984,-0.5066906487640896,-0.44196069304109864,-0.47606659828537473,-0.07562402064499116,undefined,1495191679371
903d185fccf839df,-0.37984924519574104,-0.7911866806092751,0.5827369277223,0.5186630095070268,-0.3907548255313239,-1.9792231843389396,1.9977313786988293,-0.30462368318473676,-0.2986544805708107,-0.48845791650213793,0.05161780364090963,0.04053512599350265,-0.8000083556149733,-0.5169541422188977,-0.9728640652221181,0.4477180267863642,-0.5014814629760197,-0.5635077502408189,-1.0102786331578526,1.060337320730482,-0.43172312834991944,-0.4486086671973738,-0.674530013346255,-0.1485389592653408,undefined,1495191680868
903d185fccf839df,-0.2883722985026819,-0.7013733420547144,1.1665177097492354,1.0731681323578024,-0.2621013256498141,-1.9511581809834853,1.9965032631001116,-0.24113248856283498,-0.29820543932608756,-0.3277617913860391,-0.021816141177419833,-0.04611904405073188,-0.9523242535650625,-0.38826321504975164,-0.9276008788599327,0.34668764512708944,-0.5163976531996677,-0.4804638594725148,-0.9801013885012695,1.1886063735866417,-0.3606301433221016,-0.4347979937623081,-0.782038509384263,-0.1974091970980854,undefined,1495191685475
903d185fccf839df,-0.6210158351285598,-0.6796537432822345,0.7460682037472248,0.661517652358086,-0.18457802968955864,-1.930141455639443,2.005089577170285,-0.13790282441866236,-0.3171073973110492,-0.570747913352558,-0.005938353395263139,-0.06826932932338198,-0.8783422459893049,-0.35030406747675763,-0.9444430009649676,0.9468080567843273,-0.5454321480887381,-0.4623389752436323,-0.9711244801342584,1.4983922963152603,-0.2745431088159128,-0.451077774370044,-0.9229275250160967,-0.27677946648280527,undefined,1495191686866
903d185fccf839df,-0.5392410505338304,-0.6526510095266621,0.43471841944793277,0.4151942626361104,-0.2685916038519658,-1.948563408714509,1.9624078219118744,-0.4597983604144626,-0.30059830896965056,-0.74052975533466,-0.00958801320720737,-0.06962916482090195,-0.691211285650624,-0.3540073673600387,-1.036022047963538,1.0660240450741125,-0.5046303730354464,-0.48136947121566176,-1.0091451501383863,1.106609652069809,-0.3856482962318458,-0.41375964377582425,-0.7744374250203704,-0.6018585356987065,undefined,1495191688415
903d185fccf839df,-0.3382688462492685,-0.6186041396356217,0.12655907041170208,0.09457869542109418,-0.60069618557293,-1.9720281649204858,1.9460057256626144,-0.6778673422419924,-0.3405911675196573,-0.8006282709146547,0.022727921437707025,-0.02496869728741635,-0.49102467691622104,-0.3178998438271361,-1.0897063340299684,0.9750966902748767,-0.4719992345366613,-0.5105960057442324,-1.0452556910912687,1.0263683523241796,-0.4255124956852154,-0.38533244880384143,-0.780696371387101,-0.5845653496909603,undefined,1495191689892
903d185fccf839df,-0.573891279472995,-0.6503029787621689,-0.09483080825679609,-0.17331751828517022,-1.0724702519904596,-1.9656390613399892,1.9316180536288978,-0.8803853990811775,-0.3241088094113631,-0.825574848311324,0.027178893759960073,-0.04047355038192155,-0.6389886920677362,-0.4215932442440316,-1.079180007254182,1.0054058273844364,-0.4724057740060871,-0.5904037626698825,-1.0473687274744259,1.0863452960316218,-0.4600531932489196,-0.3911756670745082,-0.6439934029001356,-0.549208298205441,undefined,1495191691367
903d185fccf839df,-0.5378550027302049,-0.548162237563082,0.22353671376387374,0.15287462815323127,-1.1704723771339678,-1.9073032654626094,1.9274655913409962,-0.8357348038724848,-0.16898919399441087,-0.8773610096211248,-0.07359544754000029,0.025725271282708906,-0.6868594028520499,-0.38826323447591343,-1.0518115362866594,0.9488288147858314,-0.4905233360376173,-0.5859770354324888,-1.0431846340930424,1.0858679443304853,-0.4548196753307697,-0.3954803946400276,-0.65625390172174,-0.5648706132777344,undefined,1495191692869
903d185fccf839df,-0.3382688807546782,-0.4565878247861647,0.4889497196331897,0.35234456115803864,-1.063305703231086,-1.8797134268043083,1.8976199146450552,-0.9509157406759364,-0.15667282593811727,-0.8578630270410202,-0.13093913626890216,-0.10432883277101516,-0.6302849264705882,-0.37900486173535275,-1.0297062526342897,0.6457375567491209,-0.468141051960194,-0.5376250117622543,-1.0099637761668032,0.8337491957191296,-0.48255483381148057,-0.3678154215899963,-0.6183571101806125,-0.5402347167824435,undefined,1495191694362
903d185fccf839df,-0.3937094816941278,-0.4700892281989413,0.463429287172092,0.38759744696119547,-1.0245080527776638,-1.8482989773656864,1.932264978995824,-0.6889080012548566,-0.17553028051557495,-0.8746126277319416,-0.14692162695555067,-0.06607752945957121,-0.8696384803921569,-0.404002407913765,-1.013916749586701,0.19918333425869159,-0.5555428887356127,-0.5054283269036735,-0.9948856490578851,0.5164488280721355,-0.5424849692743421,-0.3841394419101041,-0.5236063484695698,-0.41843664302616945,undefined,1495191695867
903d185fccf839df,-0.4879584549836184,-0.6996122532183616,0.2318307272452558,0.1435123057659752,-1.1544678326921498,-1.930565377140398,1.936959181844758,-0.7956079669753386,-0.22949939763711263,-0.8281939643708971,-0.03154769833943266,0.005314400046806159,-1.0001949643493762,-0.4271482264458895,-1.0033904117675638,0.8275922663475928,-0.3680671088611871,-0.5018818780955241,-0.9817666287803396,1.149648305274768,-0.3845784471284961,-0.39442181714869917,-0.6559173574922663,-0.4483764095348811,undefined,1495191697370
903d185fccf839df,-0.4339038673423846,-0.6673264283216853,0.35496719507547686,0.3288090139171698,-1.0627811258723505,-1.9114027258445545,1.9139483784923768,-0.9079590354965014,-0.16672362433352034,-0.7820996732044069,-0.045500319078809845,-0.021323358364997533,-0.9653799019607844,-0.36326569477288845,-0.8928639787812478,1.0741064269915335,-0.2266396732608266,-0.42852105737391566,-0.8715388713975258,1.235510038456417,-0.3029215555971126,-0.3618392486980888,-0.6696306998614311,-0.4712294775720221,undefined,1495191698868
903d185fccf839df,-0.44221998163708887,-0.18362555837979616,0.2694734921938498,0.27729404186699874,-0.7057954377479589,-1.7539973969336382,1.828534910613682,-1.1136600677588824,-0.15410111636835144,-0.7341295071182118,-0.1492010235837641,0.02474444088715799,-0.9610280191622104,-0.4364065797602884,-0.9033903018759173,1.2276725878936205,-0.14813316310567823,-0.46546744904377063,-0.850569429071666,1.1846797691631752,-0.3237168150190943,-0.3776807733356143,-0.5789331799617545,-0.502056681638115,undefined,1495191700372
903d185fccf839df,-0.6681403562787149,-0.4031693430451491,0.4723609302595773,0.38684758850999085,-0.577111085386535,-1.601765308912254,1.8411948033430656,-0.7946855777307862,-0.48098322459985676,-0.4695671879144248,-0.22044178036650428,0.054603219995616036,-0.6215811608734403,-0.4586265862723672,-0.8707586730421767,0.8397158816208065,-0.19172813096352181,-0.49145151612161,-0.8805577600609101,1.1542216448512344,-0.3430414103889481,-0.40809259759506344,-0.6353224216246062,-0.5412914761626575,undefined,1495191701908
903d185fccf839df,-0.6307179282160701,-0.30455076490477134,0.5278679979309397,0.4502675715874457,-0.6017864717596068,-1.6328070813010016,1.8754901043569305,-0.6180562093401258,-0.4620353402236315,-0.7001150095134683,-0.13174596064177285,-0.0025895868698209037,-0.5780623328877006,-0.31604815503317196,-0.8897061032033249,0.4153882447341866,-0.46960686352683845,-0.4246262945817233,-0.9044938503024711,0.5462448233628151,-0.46087344102151323,-0.41251028399665585,-0.5080424050990793,-0.5052413034678725,undefined,1495191703367
903d185fccf839df,-0.2634240591347984,-0.41667080491391034,0.9515076850590621,0.8655067083664358,-0.5870264974196416,-1.7830802789793425,1.898001245051219,-0.6891427688004723,-0.42751628217040055,-1.0800057900853195,-0.0996215239131035,0.016951838343963258,-0.6607481060606061,-0.2604981517037495,-0.9412850885758758,0.21736868650670832,-0.6239959282712059,-0.402606650151808,-0.9221538009001508,0.22438651869080492,-0.5260686964363793,-0.4031836656661867,-0.511091359286289,-0.4523681415695262,undefined,1495191704876
903d185fccf839df,0.012392863253414193,-0.5610766405917333,1.4466045830782583,1.2887705886111163,-0.32945207581925895,-1.8529947247850123,1.9136328146470005,-0.6079626441142341,-0.2335676036114838,-1.7020923311639864,-0.013090209118792703,-0.06940280403261469,-0.9479723707664884,-0.3290098470831755,-0.9676009294426017,0.19110072622349836,-0.6399417446237651,-0.4037782449702022,-0.9852650347630966,0.3236602940463363,-0.5282820169515526,-0.4514619122978565,-0.5240562134665483,-0.5220664345245012,undefined,1495191706373
903d185fccf839df,0.1967327009269287,-0.6420847687884695,1.274979547708901,1.1110454910811007,-0.28501786347677877,-1.8953006970056705,1.9058459597822535,-0.6993569491123566,-0.09387638269420276,-1.6426363756214246,-0.0027325223329270946,-0.025468806601813884,-0.847879066399287,-0.34567487786878365,-1.0370746927888026,0.23151300325198304,-0.6575307464145301,-0.4232330480302002,-1.02698701854679,0.5781196039826988,-0.5070408922914353,-0.42217226064879837,-0.5528079266026005,-0.5142581407002412,undefined,1495191707877
