UUID,iqrAccX,iqrAccY,iqrAccZ,iqrAccXYZ,meanAccX,meanAccY,meanAccZ,meanAccXYZ, covarianceAccXY, covarianceAccXZ, covarianceAccYZ,pressureDerivative, pressureIQR, iqrGyroX, iqrGyroY, iqrGyroZ, iqrGyroMagnitude, meanGyroX, meanGyroY, meanGyroZ, meanGyroMagnitude, covarianceGyroXY, covarianceGyroXZ, covarianceGyroYZ, class, timestamp 
903d185fccf839df,-0.6542801801647952,-0.41197468492893924,-0.7692088713836791,-0.784934350088996,-1.528373492940951,-1.5144165100185836,1.8273830619342135,-0.9894811663573888,-0.07601403053003736,-0.7485319729794975,0.008336375923630478,-0.6342410101891569,0.009441844919786108,-0.503992469595056,-0.8286533733012648,0.286069257849084,-0.708107857268676,-0.6959778675719981,-0.8615814419816948,1.6048879351799012,-0.378307911264649,-0.5033626649703397,-0.3617637131088918,-0.6298047856077919,undefined,1498137788692
903d185fccf839df,-0.6813074826117645,-0.3412392315153504,-0.4805087885647981,-0.6067778971924372,-1.2272517839447865,-1.5456012039329827,1.8404769033945796,-0.8091628191774298,-0.31934324557807087,-0.7559032742209697,-0.08852203279270636,-0.843778624021562,1.5543602384135473,-0.49288248576517835,-0.7897059859494446,0.728582642689822,-0.5267748955467976,-0.6335170167577113,-0.8247854884213133,1.7760709596054771,-0.31103229506689484,-0.38817350919722154,-0.32164704062850225,-0.24409689761439626,undefined,1498137790128
903d185fccf839df,-0.6411130969635077,-0.2898753899517367,-0.293571493718782,-0.3948625515446582,-1.098475067087874,-1.4647476696297794,1.840625766786477,-0.6121190302228157,-0.3590253809973821,-0.4993582472588591,-0.060451608712590574,-0.5401699843919691,2.1723275958110517,-0.5539874777718459,-0.833916553254184,1.2458581945241312,-0.40240754714151933,-0.6473385798857264,-0.8283907543585218,1.1652288606051178,-0.4344339450880062,-0.4339404759350941,-0.36610505724058195,-0.2712208366373665,undefined,1498137791614
903d185fccf839df,-0.41935065870029975,-0.36031724818228783,0.17185771096167599,0.09839958642592558,-0.9867613143492874,-1.5252739802445205,1.8922830432687936,-0.3859076222222201,-0.4381811329616853,-0.18168346409911643,0.055344256550709424,-0.3346097879226483,0.44027824197860965,-0.47714329937655225,-0.9044429246144803,0.5608720237188527,-0.49728918043232273,-0.6298655132302214,-0.8722008013266586,0.6671763374628621,-0.5336406366507325,-0.42751136063997264,-0.5054286884140914,-0.29984485906582947,undefined,1498137793108
903d185fccf839df,-0.19273731191497556,-0.2634597150362742,0.82837172550274,0.7876400967279875,-0.63589384003436,-1.4821821729164124,1.8865142478091865,-0.24228779749203053,-0.40996402419969413,0.19843100196338506,0.056127436657030835,0.012618383886822581,-0.13417028743315507,-0.5697266835866338,-0.9076008664525073,0.19716268931607367,-0.6420755733118897,-0.6495227045217045,-0.8830096385815007,0.42002800374079413,-0.5972939693688368,-0.38976468008681264,-0.537062487751398,-0.34760054148087166,undefined,1498137794617
903d185fccf839df,0.29929775400571385,-0.3174650948634419,1.5059397156187855,1.4019572476068622,-0.281253295003825,-1.4927615775136904,1.8540624421659029,-0.3553669157389543,-0.6130998821692787,0.6521060814360795,0.1803921559888896,0.17669716141145908,-0.029725100267379668,-0.5354707970445972,-0.8507586643158682,0.14260629339536504,-0.6378692216557706,-0.6349321509160853,-0.8437054116672578,0.3160703701064045,-0.5911561932800334,-0.4109294966374937,-0.5564714101610584,-0.39585850390478283,undefined,1498137796102
903d185fccf839df,-0.033345644598525105,-0.23528299512644762,1.5454966400704366,1.4736093218278292,-0.04362283118474731,-1.5531773832619526,1.878737906920685,-0.2651314562826292,-0.41125482569794586,0.6763535416508314,0.09709991916636987,0.037723382465095635,-0.7738970588235294,-0.5345449720737769,-0.833916553254184,-0.03722788431937497,-0.6940189598012537,-0.6254376067776249,-0.8202242613883539,0.1857056234739493,-0.6043423261450104,-0.41940151033653034,-0.6027513578200347,-0.391856351387956,undefined,1498137797586
903d185fccf839df,-0.012555445125288818,-0.3127690917904401,1.983810194658266,1.8985499803147827,0.006622797165733359,-1.6510590020718345,1.8255158951898947,-0.7509684227490012,-0.4065404800926087,0.8275993275369192,-0.0009702529891017166,-0.007056343786447527,-0.8696384803921569,-0.5502841778885649,-0.8507586643158682,-0.45347313928857386,-0.7939438309114407,-0.6214225194729485,-0.8517938718008877,-0.12555855507934136,-0.6756631514746699,-0.4334661978541712,-0.6668293534031045,-0.490393308789171,undefined,1498137799189
903d185fccf839df,-0.09294421642180245,-0.36149133663451527,1.6309898346781648,1.5666815620549006,-0.23252994157689194,-1.6678434991807787,1.8173293112461948,-0.9063468484319521,-0.5277177931505362,0.4039498006704999,-0.03420122033807661,0.028698165187715223,-0.843527183600713,-0.5465808456283475,-0.8528639392419294,-0.34840152427350635,-0.8505091373888716,-0.6330118069396324,-0.8601270737752245,-0.067183045821168,-0.6698252630436116,-0.44257798047057,-0.693798439303661,-0.49821561493580174,undefined,1498137800606
903d185fccf839df,-0.3050045270920904,-0.35386014165893726,1.3509029613491417,1.3182346748298466,-0.5647168163641145,-1.6705989900040903,1.7610409439629449,-1.3833742421299002,-0.4398425515542611,0.004535965577326983,-0.04067234988114361,0.04942715665753709,-0.6172292780748664,-0.5521358472563672,-0.8833902637006736,-0.18473230824665893,-0.863639926212501,-0.6334107824466748,-0.8258496969845299,-0.003587465939532346,-0.6498636310603304,-0.4685927851710972,-0.659954552762579,-0.5050558571378505,undefined,1498137802118
903d185fccf839df,-0.3285668221725777,-0.5006140081012534,1.0944223609781594,1.036422770190429,-0.8640820343922329,-1.6798763492384596,1.8302732112269122,-1.0662367171717884,-0.43652641945720916,-0.4983505835645391,0.03099093478919232,0.06142981036685206,-0.8304715352049912,-0.6095375070028174,-0.9044429319767141,-0.08370189832266264,-0.9022101016106849,-0.6904959365110725,-0.8766045623376647,0.07765473320436155,-0.6846412960287722,-0.4895923334981762,-0.6448864173093104,-0.5284655990596804,undefined,1498137803591
903d185fccf839df,-0.4976605825765384,-0.3720575481447156,1.1882100773411683,1.0736080433708646,-0.9668361487987923,-1.650350912740738,1.8718793742498874,-0.7306539628525641,-0.4452880059454671,-0.4608401535193592,-0.10906270051462758,0.04663509303742086,-0.9436204879679144,-0.5975016658251833,-0.9665482846173372,-0.09986669042222605,-0.9222811516522047,-0.6281671050762576,-0.8874496188845443,-0.0010775187663706603,-0.6753346665578353,-0.5135583860259681,-0.6420687373036267,-0.5365396203816236,undefined,1498137805102
903d185fccf839df,-0.560031215501657,-0.4025824449589971,1.2488212315047504,1.0712884130871942,-0.934076202356912,-1.7062037390220406,1.843014628911191,-0.9706642442203359,-0.46414033899084817,-0.5858392917153976,-0.1540417490151412,-0.023211480749671814,-0.9131573083778967,-0.5826883497350883,-0.9454956237035306,0.07996728943946321,-0.8663425704160901,-0.5804420410306684,-0.8831535769756792,0.1304714017313152,-0.6232168093919581,-0.5143014748829892,-0.5557635661921172,-0.5031075252491827,undefined,1498137806617
903d185fccf839df,-0.33965485954748426,-0.2810701357519235,1.8223933322733477,1.65005009531722,-0.6333224191716275,-1.7759318441046892,1.8411369460955824,-0.9597135302110842,-0.5720415340818836,-0.1283827572408088,-0.30003678974323106,0.03215543812954616,-0.9697317847593583,-0.5039924372181196,-0.9065481921783077,0.18301831604135588,-0.7909300803087927,-0.4572346217039578,-0.8831185929579982,0.26979653284451227,-0.5284728310006478,-0.516782285578165,-0.5017517051296179,-0.5336841943679032,undefined,1498137808089
903d185fccf839df,-0.1553149183577405,-0.4078654922581125,1.9059731297888671,1.9651683843193593,-0.511015194316841,-1.8304127485378652,1.93341420468072,-0.38990548843295675,-0.5316368687254431,-0.1761115818667168,-0.251987674299094,-0.0018875653012349128,-0.9827874331550802,-0.363265707723663,-0.8528639466041632,0.2779869324611061,-0.6960945415906832,-0.39151133140055744,-0.89058419089746,0.3819742088361466,-0.4735137798975555,-0.5058189006611314,-0.5191038439555306,-0.5428622436776664,undefined,1498137809584
903d185fccf839df,-0.1137344849058582,-0.40258241573100473,1.7777323213294771,1.7380748700172042,-0.41624278007994253,-1.8046001193651884,1.8504780059034096,-0.8903631942947108,-0.4717560209177384,-0.21672683758685637,-0.2877577610515585,0.07032103784529592,-0.9305648395721926,-0.21976143856287297,-0.8265481204619048,0.49015083569858064,-0.6611136439091251,-0.29205245210427994,-0.8934039045674559,0.5210837670172455,-0.39984017653360393,-0.5206850022884177,-0.4528050737240824,-0.5237400788758786,undefined,1498137811127
903d185fccf839df,0.12188798282327809,-0.423127911437261,1.9633938486893878,1.8295900767670588,-0.4045685133391238,-1.7342873756624373,1.846333432502138,-0.7490872949435269,-0.5230054476621683,-0.3816095890665942,-0.315688775728922,-0.07192897112217067,-0.8304715352049912,-0.1364364400441266,-0.834969175992747,0.5224804198977074,-0.6435217978538079,-0.25587234475353293,-0.9052005277911724,0.656359109360898,-0.35825762705831726,-0.49139563396994906,-0.49781937351673267,-0.4591844614603241,undefined,1498137812603
903d185fccf839df,-0.2107555538025998,-0.4119746264729546,2.063561419030722,1.980675843305505,-0.49826093023120294,-1.7414986999130688,1.837752375420087,-0.8259557853115516,-0.3761389413125243,-0.43031479468415224,-0.42714783121600086,-0.03262955851297432,-0.8565828319964349,-0.06977635575401753,-0.818127057568829,0.6396757632448749,-0.5722431470754031,-0.19995878495939923,-0.8738897988366571,0.7372163462512632,-0.3027859827991023,-0.5436000108813183,-0.45884771854984724,-0.5835450605835052,undefined,1498137814098
903d185fccf839df,-0.012555376114469349,-0.5493363406293056,2.4336084521274888,2.3434926222159773,-0.3931205389569809,-1.7825934668307641,1.8850599657081488,-0.4913286321075341,-0.43256722979295326,-0.2778266486318392,-0.5197137984221349,0.09831935201593191,-0.5563029188948306,-0.048482148311209894,-0.8181270722932966,0.7285824448367713,-0.5639477160880709,-0.12623698623224958,-0.8298098903441762,0.7243432463831976,-0.2644677532631625,-0.5338839645219581,-0.372020697041015,-0.5836455827219346,undefined,1498137815580
903d185fccf839df,-0.018099498318151826,-0.5088322473029452,2.432970060110537,2.3205694274022686,-0.45191357822756456,-1.8584544599120358,1.9430682275991886,-0.27215012848453723,-0.413855297656497,-0.5016821294174828,-0.4672508328198142,0.053243859607948946,-0.49102467691622104,-0.07533140918513541,-0.8391797037581681,0.7184794179767324,-0.5611771257123361,-0.12056266859210976,-0.840417055645453,0.7565721890001402,-0.26617203206831497,-0.5206240819760304,-0.3738060726928723,-0.5295113174947752,undefined,1498137817090
903d185fccf839df,-0.11650658051310918,-0.5053101280862246,2.126086732697361,2.221519749191267,-0.464297550233998,-1.8583775955474342,1.9243150812920593,-0.4394531680444036,-0.3367156345101579,-0.835717136299246,-0.2854999362695215,0.002612078003472263,-0.6433405748663101,-0.0040421611886014164,-0.8560218148198523,0.6538200234607064,-0.5696042782132676,-0.07722000008744953,-0.8388917517123747,0.7595748811907447,-0.24575516638437755,-0.49979007298415606,-0.44722210880127145,-0.5415798179720783,undefined,1498137818585
903d185fccf839df,-0.1858072454238968,-0.448956659038579,1.8517415754666608,1.7970421291600123,-0.4328233152397487,-1.765534121799564,1.8762974503539434,-0.6347145983400789,-0.34720205397578746,-0.66910232557073,-0.2582443399015373,-0.1510006889385958,-0.7303782308377896,-0.06144387921353707,-0.8370744361943406,0.6901909540745123,-0.5154053301503725,-0.11511633570075282,-0.7937343338677546,0.9475283075466507,-0.2178190400056602,-0.5432181022699869,-0.4403123110468322,-0.49306106829005475,undefined,1498137820076
903d185fccf839df,-0.26203811484740214,-0.4841775881538546,1.9544616973280036,1.926023979613365,-0.33150920895331876,-1.7079087422155879,1.860124147529781,-0.6571761653874416,-0.38852862792611026,-0.0886860760983471,-0.2141347100967531,-0.14536291821318692,0.12694268048128343,-0.1956897562076046,-0.8402323338589649,0.5083361879465973,-0.557768694327502,-0.20674770000021356,-0.8548164921238016,0.8601883268734991,-0.3020275191562746,-0.49213635686597984,-0.5285629739458941,-0.3629743265449023,undefined,1498137821580
903d185fccf839df,-0.008397336219822091,-0.517637384590789,1.9678600514385547,1.837770520308569,-0.28337215102238217,-1.7366795042807373,1.7991468364807632,-1.1009612220559022,-0.4598704221425072,0.18241824048487254,-0.24506458069237727,-0.1529222783353431,0.10518326648841357,-0.138288064084218,-0.837074458281042,0.3972027511625622,-0.5689360511040213,-0.21275766361649862,-0.8298378772573616,0.8418487824125891,-0.3042448427842912,-0.47370803201717776,-0.591340750193385,-0.3867127109473155,undefined,1498137823114
903d185fccf839df,-0.08324212333429219,-0.5452271187304866,2.2926076815744993,2.1085299032382236,-0.24529450415090015,-1.7922714569919047,1.8306808291924952,-0.9970828711583793,-0.47755728664194663,0.4048534874708557,-0.15552881664464538,-0.08223020432509463,-0.5345435049019608,-0.15680475776224126,-0.8107586321387837,0.43963550354533554,-0.5706175489006036,-0.2272094420018569,-0.8093302242842018,0.9102178835866036,-0.2895211402881562,-0.46057111488593766,-0.5058074711335234,-0.417162492220722,undefined,1498137824574
903d185fccf839df,-0.06106584155202068,-0.4841775881538546,2.1930777408392683,2.1492120857884034,-0.2975972668277509,-1.8296557461639957,1.8863012290147834,-0.6943828205684096,-0.4719412779777742,0.16067203807486435,-0.14132628234816808,0.28017200159271627,-0.2516711229946524,-0.2308714547696869,-0.7402322092428508,0.5164186829229044,-0.5564076610562448,-0.2764417465872986,-0.7454773288720543,0.9091553938798295,-0.29465601162941796,-0.44387435014956095,-0.5301920060367924,-0.3793733190053764,undefined,1498137826075
903d185fccf839df,-0.08601414993072369,-0.5017880088695039,1.8932124052844195,1.80195511696049,-0.270473888316502,-1.8719360976534212,1.9155209988685937,-0.5578998715080531,-0.4172206504104412,-0.08026172897962368,-0.05184409024301177,0.18299484923118087,0.9712079434046347,-0.19198641747199993,-0.740232201880617,0.5548102302146065,-0.5998457157890198,-0.22993260683636566,-0.741146302327685,0.8508876753956438,-0.2844438166371712,-0.33275154199190515,-0.48279051188920596,-0.34373738437322204,undefined,1498137827581
903d185fccf839df,-0.02087152491458333,-0.5528583721620492,1.6494925294178848,1.6243432840010459,-0.34548747784031947,-1.8526336912089918,1.8964969932799265,-0.6453952276056462,-0.4440026943500874,-0.038084207805731615,-0.15802648101330805,0.23062610911994053,-0.5693585672905526,-0.10310635257136115,-0.7633901377204849,0.5750162556699627,-0.6311739524716922,-0.17897774252851634,-0.6920286920593289,0.8137158270113238,-0.2492106889163846,-0.361007244225283,-0.532426012206774,-0.41944764948493835,undefined,1498137829075
903d185fccf839df,-0.013941389412685102,-0.36677444238961543,1.3272966883911008,1.2982170303749165,-0.5646345388259004,-1.8271448264384553,1.875789897761699,-0.8280529136538032,-0.4243019500314149,0.18311020135717432,-0.16078281969627503,-0.003498413310506368,-0.847879066399287,-0.16421143523345055,-0.7781269885805755,0.7205000346546288,-0.5394886793948901,-0.31205188815443374,-0.7144884556341053,0.6979811143352999,-0.3370504216685997,-0.32042237479313435,-0.42507082880143193,-0.3491418946820351,undefined,1498137830572
903d185fccf839df,-0.10264634401472246,-0.3749927254332957,1.429378418235492,1.5041094116484264,-0.6267190005166295,-1.8505210709439275,1.9088676044857436,-0.6440740137754334,-0.3938445702245818,0.11895620074365269,-0.22083452670870432,0.03463812317258455,-0.847879066399287,-0.26142395077302066,-0.7360217035641311,0.718479446241454,-0.48978821596926025,-0.37111925290330866,-0.7340795256239049,0.5496324867997712,-0.3985586775907139,-0.3180330033161594,-0.4106704718707699,-0.333166963584647,undefined,1498137832073
903d185fccf839df,-0.21907153007566513,-0.434281254857552,1.560170761667093,1.6034662541636517,-0.760083351474235,-1.8718965005305421,1.9421583195289742,-0.5242625100281111,-0.47302314689020625,0.1903944872855699,-0.2048416669824956,0.038295634635885034,-0.7347301136363636,-0.3503040804275322,-0.7897059417760419,0.6720054605028878,-0.5307052159573452,-0.4327324631697949,-0.801066992535135,0.5143392498234199,-0.4494652547554408,-0.33775918067388777,-0.4454109926804449,-0.3536280624588143,undefined,1498137833569
903d185fccf839df,-0.13175265778266299,-0.5100062480711957,1.4740391750424133,1.417880700929501,-0.6087704674526553,-1.8758212676807582,1.9316653953288523,-0.53927335054126,-0.4146767268393051,-0.24927333164700208,-0.24153555641433325,0.07930771806708191,-0.7608414104278075,-0.3956698795701864,-0.8054954816347996,0.6982733925213762,-0.5681272685067568,-0.4777976900902095,-0.8095121440585024,0.565323500582492,-0.46940806972611565,-0.36522586830351583,-0.36104913890779333,-0.3258921549049623,undefined,1498137835123
903d185fccf839df,0.0013047568676881746,-0.3890810123182281,1.7305197754133956,1.6132037467836753,-0.5263923198095445,-1.829220178904575,1.8732784370251996,-0.8183336540894862,-0.5132942492710932,-0.23999890576063565,-0.19987570538821622,0.036752844149003726,-0.8739903631907309,-0.46418161380193595,-0.8160217973672353,0.7043351860256223,-0.5504120006986574,-0.5486506644124141,-0.8428099657299092,0.5663090020064914,-0.5137465719453443,-0.47391991305801345,-0.33932543711931623,-0.41730969015594704,undefined,1498137836610
903d185fccf839df,0.2577173550592413,-0.41490973069155385,1.4504329020843725,1.3891460368191433,-0.4721044050990121,-1.7842379112887614,1.889701566988321,-0.6358537928259312,-0.4712256588837329,-0.5494407663881832,-0.20154839918311374,-0.029994940446859228,-0.8087121212121212,-0.28549565902983814,-0.8118112475151129,0.8114274177185863,-0.6224579621161407,-0.3963497019867914,-0.8216656028996842,0.9103718571096707,-0.363920981574603,-0.47213130317849916,-0.533647608786851,-0.537824122916402,undefined,1498137838081
903d185fccf839df,0.1703985172716489,-0.4724373174194192,1.6411982617995533,1.5725398010580014,-0.5197580322823625,-1.8079938222153074,1.9157866168748354,-0.5088934468629346,-0.4706820049078484,-0.27819021511061554,-0.20041650561419325,-0.0463324955659733,-0.38657948975044565,-0.1521756070065909,-0.8423376382339612,0.9932820425228934,-0.5552454221188232,-0.23207947614377789,-0.8154174508846843,1.0833117929627851,-0.25956491526086706,-0.4262266444161108,-0.3687917222934861,-0.5187124973523884,undefined,1498137839579
903d185fccf839df,0.4226532135901937,-0.4947437996640549,1.7203113482920072,1.6706690622093183,-0.3747194229541185,-1.7978779360035708,1.9143586445930543,-0.44235463753218635,-0.47637451827083593,-0.03790035749719032,-0.29554726259271397,-0.061894579341102214,-0.4300983177361854,-0.11421642058127328,-0.8939166088820446,0.9488287017269452,-0.5009333773666989,-0.15086580769279986,-0.8022844370710243,1.216785515237187,-0.197476181792965,-0.4431886434146207,-0.45079033592500556,-0.564684025005848,undefined,1498137841106
903d185fccf839df,0.2549455354952682,-0.4542397063376945,2.9019086419255826,2.902738394109518,-0.32589322139110166,-1.8387933520437638,1.872581540678616,-0.7544841601502718,-0.44639872776875356,0.21472782133438303,-0.3671881041661246,0.02648914127234091,-0.6999150512477719,-0.04107549674154969,-0.8602323573097409,0.9649936916795594,-0.5406337741002676,-0.09748542607277966,-0.8032709875208599,1.3351533679271679,-0.15026496080317925,-0.44028261937766305,-0.5210959095848732,-0.5613992036867412,undefined,1498137842574
903d185fccf839df,0.10248379664825756,-0.412561641471076,2.5280340522335507,2.4898830005674846,-0.33010007349436005,-1.8459091767330804,1.92235062622301,-0.4519658005050767,-0.4751159389492147,0.6619513240478452,-0.4901105111983357,-0.042001499408632,-0.6215811608734403,-0.03922387270145829,-0.8676007827397862,0.8275922663475928,-0.5438087703748682,-0.06425647159410383,-0.8211968168033951,1.2738675514699733,-0.1538588845181221,-0.38803628207974344,-0.5439730399675153,-0.5323664917132305,undefined,1498137844082
903d185fccf839df,0.05258724890167101,-0.3890810415462205,2.2415668166523037,2.1931702110616973,-0.44659588018858537,-1.8257426243396053,1.9690954288802751,-0.16861965875232293,-0.5777527962351704,0.6264408830093727,-0.4628059073958459,0.0054236150743947305,-0.5563029188948306,-0.09292221313846565,-0.8518113017788989,0.7831388124927584,-0.48958044797557126,-0.07440818102319306,-0.830754460748438,1.1261964638807132,-0.201182712249029,-0.3657982388324134,-0.36181949713324413,-0.45250022382221405,undefined,1498137845608
903d185fccf839df,-0.14838474835043255,-0.37968880157627827,2.0578197029323992,2.0203091041563006,-0.5703328107961211,-1.8266789790515343,1.8512091158830652,-0.9770127926278739,-0.5336658942185211,0.18569777925676711,-0.4151823464526717,0.025116017802935448,-0.4649133801247772,-0.13828805113344347,-0.8718113325919087,0.6396757349801533,-0.564970446858937,-0.1809472901604117,-0.8463783384817966,1.059136238822029,-0.2695915230590746,-0.38635032448929657,-0.4270373062015413,-0.45973595343287416,undefined,1498137847123
903d185fccf839df,-0.16917508584530777,-0.34857697744785243,1.8517420837405596,1.7151109725231461,-0.5981556258043557,-1.8118207632509837,1.855424689787768,-0.9245131109388506,-0.5506763165872802,-0.01123941861765293,-0.3934085903528493,0.09077259964254432,-0.43880208333333337,-0.16606313697818922,-0.8718113473163762,0.6336138566817426,-0.5926787906003697,-0.2308065551068753,-0.8325176566734004,0.9359640709104852,-0.3154794321944661,-0.3842855933080317,-0.4484398778660829,-0.42671841055781545,undefined,1498137848578
903d185fccf839df,-0.08740016322893944,-0.3391846790219255,1.9538238135849508,1.8164557346729278,-0.5612402545420959,-1.7661653444778227,1.8991583601465059,-0.5349789971202827,-0.49139187199092715,0.3476827838202546,-0.4669099542151078,0.0777711203807038,-1.0088987299465242,-0.19754143205079416,-0.8265481204619048,0.48813024728540577,-0.6041143090620447,-0.2937116845990431,-0.8408788450593236,0.8293144373994844,-0.3599387083138176,-0.4159970263577303,-0.43265242680189897,-0.4177995815677497,undefined,1498137850095
903d185fccf839df,0.04565725142141172,-0.34857697744785243,1.6373701969303887,1.607974487044897,-0.5570951191617302,-1.7501984085607485,1.9099063700449923,-0.43227534487546326,-0.4361664388143571,0.4007924938999386,-0.5186916168176675,-0.029826262015353787,-1.0045468471479502,-0.13551055031943363,-0.8444428837110873,0.5649132853393669,-0.5130621249037692,-0.24113558548064182,-0.8410327755103166,0.8926328461919861,-0.32410696486628104,-0.41714527339830165,-0.20109476086058148,-0.447090670719923,undefined,1498137851579
903d185fccf839df,0.12050196952506234,-0.3180521390895556,1.7585922511206031,1.6683728040538752,-0.5766070836169688,-1.7620565660354337,1.835453937668078,-0.9604719279697121,-0.44494590843865417,0.8385334525055014,-0.5088378845039708,-0.031676658197034524,-1.0045468471479502,-0.1725439376754801,-0.836021835542479,0.708376419381415,-0.5094921576367504,-0.20742532520623447,-0.8313701798792543,0.9225982261999867,-0.2979674389325769,-0.4356561537311385,-0.1683052629774831,-0.4117915676859816,undefined,1498137853082
903d185fccf839df,-0.08047009673786068,-0.5017880380974962,1.9257513378777433,1.9160212083771795,-0.5113031935218367,-1.8296464301294861,1.8742199045701413,-0.8390419216944868,-0.3867587311319159,0.5069709307101731,-0.3653795894010071,0.06466417158866906,-0.7477857620320856,-0.1855055649716109,-0.8697060650280812,0.7750564588400589,-0.5407611717267068,-0.2210031567218594,-0.8544526594997138,0.9059679081874039,-0.3165509836566278,-0.44078337393374317,-0.06620452088319845,-0.43992305255621855,undefined,1498137854557
903d185fccf839df,-0.15808697945958175,-0.5258556530204731,2.335354278878363,2.219652948827776,-0.56887223825173,-1.8678016977966356,1.9196997754277194,-0.6115321238421251,-0.45253793990873065,0.46623421313217234,-0.32572607287295097,0.030611965292485537,-0.30824559937611407,-0.11329054380735484,-0.8539165546182587,0.7023145976124475,-0.5387757540552202,-0.17412670715672415,-0.863681452850305,0.890846637693934,-0.29757981896659297,-0.47036642288811364,-0.09042261119670857,-0.4422896188852932,undefined,1498137856081
903d185fccf839df,0.11634392963041508,-0.48828666391271197,2.2198744490603706,2.259678345526904,-0.3535308825496998,-1.8462306135309747,1.870706482952623,-0.8050931135007089,-0.5511499525159029,0.3705092942281098,-0.24853507482789627,-0.02933909711448844,-0.26037488859180036,-0.16791476101828065,-0.8454954770007151,0.9508493466695631,-0.49466110309840233,-0.21097177193813418,-0.8598122162825759,1.0455702196383412,-0.27799461234089723,-0.4321846973039944,-0.22271239544115046,-0.43185519399567013,undefined,1498137857568
903d185fccf839df,0.23831316888422077,-0.5487492964031919,2.100566300236263,2.0415873897448447,-0.3084486749647524,-1.8442926863603724,1.8617519932549735,-0.8460271950301341,-0.5129873037784864,0.3028159951951392,-0.21751218918088963,0.019860987216853736,-0.4649133801247772,-0.21883560064127816,-0.8812850329480152,0.8255717061991394,-0.5567075008188037,-0.23997665499933588,-0.8838812454597802,1.0522993398675748,-0.29972344933701156,-0.4312926954104822,-0.2760263033234152,-0.41635537841206344,undefined,1498137859092
903d185fccf839df,0.34365045559189583,-0.56166359713387,1.639921986039549,1.6509524741571733,-0.22114367953449998,-1.8563138895881799,1.9649429466894597,-0.17261034710058318,-0.5701962980981796,0.4976876668190334,-0.28800601015078753,-0.15231500387254923,-0.5998217468805704,-0.21698393774886313,-0.9212851019362687,0.7306030615146677,-0.5212920968020023,-0.30908173536614375,-0.9249315349711181,0.9507619892216057,-0.35824774440059526,-0.47680095580745685,-0.33553983189658165,-0.4435301790404572,undefined,1498137860609
903d185fccf839df,0.231383102393142,-0.48241648470350573,1.666080556380649,1.6361740644292908,-0.4379867517853919,-1.8092842189543588,1.9419768552335688,-0.3681301713859578,-0.3286124299346806,0.8284218156287649,-0.2553276734942207,0.04867085745935403,-0.7564895276292335,-0.1956897562076046,-0.921285057762866,0.7750564871047805,-0.5843976024035463,-0.3120012221578081,-0.9057672706221908,1.0402577549900862,-0.33560542326859943,-0.4812439455090497,-0.36813137479440017,-0.4286503160998087,undefined,1498137862090
903d185fccf839df,0.17732854925731792,-0.5323128764557931,1.677564750988143,1.9678778653177087,-0.46485298690442756,-1.8340929464151001,1.892528616710719,-0.7236584103045084,-0.22385345263014894,0.8743026658014836,-0.2009661747366838,-0.033684099607641724,-0.7738970588235294,-0.1540272569482314,-0.8918113339559833,0.8498189650102884,-0.5835169531018501,-0.22403663639452026,-0.8326296064976988,1.0774449963003063,-0.2717019998716164,-0.3957266005526598,-0.27755119266277406,-0.439088794084352,undefined,1498137863573
903d185fccf839df,0.3491945777955783,-0.3315534694323513,2.422123749246096,2.504088042380729,-0.3518337451490325,-1.8286751369176297,1.9219429977822091,-0.4060170374620643,-0.22910194164113631,0.9052662599913773,-0.36094982737813813,-0.01259645013470233,-0.8043602384135473,-0.10403222934527959,-0.9170745005485097,0.86396322522612,-0.5872591213386823,-0.19740027526526305,-0.8396124231776189,1.0306953103250591,-0.271846274800633,-0.3898654239665418,-0.2530685623003357,-0.4307231780760965,undefined,1498137865090
903d185fccf839df,0.22861114480752998,-0.3984732522881703,2.469336803436076,2.4600321301018067,-0.39833538263425466,-1.8087648001431766,1.916741235008378,-0.4179692388953896,-0.21067443163497648,-0.05968700095578176,-0.3031404790988699,0.0021409700853234786,-0.9349167223707665,-0.09662556482484484,-0.9023376644128867,0.8376953214723531,-0.605401892759078,-0.20536711994507856,-0.8169007754328313,1.0235042373517036,-0.27190582675005537,-0.34198740507047204,-0.3402809130461144,-0.4855009706869948,undefined,1498137866565
903d185fccf839df,0.1676264906752174,-0.3286184090557406,2.622459906476562,2.6071556965752714,-0.556354548446823,-1.8257193331443227,1.9253617375711007,-0.3948572578838172,-0.2973360462908046,-0.3241710056361371,-0.46809699985274217,-0.04892217010001749,-0.8957497771836007,-0.04570467339874914,-0.9233903400511609,0.9063959493441718,-0.5145146946728922,-0.11717454678094479,-0.7854431135049594,1.1368521987513056,-0.20960697888973856,-0.33837365525824165,-0.16933277836837993,-0.5395955210896665,undefined,1498137868074
903d185fccf839df,0.1149579853430188,-0.37440563736519344,2.38703378995446,2.3055107360247615,-0.49087579832720996,-1.8218388205176717,1.8735598149968309,-0.7386041758094226,-0.3466870678265164,0.10262113041146938,-0.2722745061257847,-0.013935569102492822,-0.8957497771836007,-0.03644635893667389,-0.8739166001557361,0.8296129678196538,-0.5397265411391098,-0.1361797094224615,-0.7694693938147259,1.061861768000885,-0.22423747311713738,-0.29532237327218575,-0.2419731912668511,-0.5219468775470438,undefined,1498137870375
903d185fccf839df,0.08585163706966853,-0.4078654922581125,2.249222946390633,2.2036600792274834,-0.40291252037503966,-1.8393314060516592,1.8568263614161076,-0.8789124120766487,-0.4072852263733597,0.3722336276666639,-0.23064654883214944,-0.02742675385034195,-0.8000083556149733,-0.02996554528860849,-0.8465481144637458,0.872045607143541,-0.49343184789942585,-0.13912452984361848,-0.7713725268564299,1.1414717328832968,-0.21156476818441908,-0.30736817027160473,-0.264392728777236,-0.48482688353338177,undefined,1498137871877
903d185fccf839df,0.10802784984112057,-0.3726445923708293,2.0023126352610365,2.0740805490973915,-0.4234324813115719,-1.8446350838807413,1.9099694874231632,-0.5463953637480008,-0.4604070183549052,0.7240690640086054,-0.28780976657836044,0.05946462465649174,-0.7477857620320856,-0.057740566379481516,-0.817074398019097,0.8336540315871173,-0.5082740202275184,-0.21392925978583924,-0.7975336030607642,1.0839277459526593,-0.25925379955778244,-0.3381744986264034,-0.2596655713963882,-0.4761457923520977,undefined,1498137873390
903d185fccf839df,0.09971177005182606,-0.38086280234452874,2.13374311657264,2.141027139014556,-0.3968130961356921,-1.8326301859005367,1.9407829255085958,-0.34188637496283314,-0.6167735770591503,1.0870203392576956,-0.22689079687781577,-0.006254395004886458,-0.7869527072192514,-0.09940309154040379,-0.803390184622037,0.7932419241469618,-0.5625067575155911,-0.22461926772775032,-0.7977225167342203,1.0700845463100706,-0.2697674679720164,-0.3567220764100835,-0.2018689257947526,-0.44256063727234063,undefined,1498137874917
903d185fccf839df,0.11218588973576783,-0.36560041239337265,2.0240050028529697,2.0337644280581313,-0.41452506790431765,-1.8091398077981429,1.9410564297826627,-0.317175746405123,-0.6307384635892974,1.2893098446169267,-0.2989642245994048,-0.006496675956982177,-0.7826008244206774,-0.10866141895325358,-0.7928638615273674,0.7851594574353763,-0.5768018273869938,-0.20302393018648354,-0.7885427013411507,1.036870101299842,-0.2654263960139038,-0.3649196479241192,-0.15944888988947212,-0.45866478563636215,undefined,1498137876381
903d185fccf839df,0.16624047737700165,-0.30748583989537825,2.0291090893451895,2.0740805490973915,-0.5158186121951184,-1.787817951799443,1.8827510011477528,-0.675082778398579,-0.5544135508826312,0.9420408197929605,-0.4303287680155741,-0.02491851576980796,-0.7695451760249554,-0.06885056963552091,-0.799179656856616,0.8215304445786251,-0.5818407417347552,-0.1973686105081195,-0.8096730697421702,1.0399189962714426,-0.2615963792930299,-0.4084423424300808,-0.2155227283003633,-0.44648179336437127,undefined,1498137877880
903d185fccf839df,0.5584826203315666,-0.36677447161760773,2.0463355083249053,2.103695380831104,-0.3235686562090196,-1.8042157966542494,1.9034659860763716,-0.4699075845639243,-0.5978789794169714,0.8405002992164131,-0.5135820675040316,-0.23688868669160662,-0.4213945521390374,-0.06792469286160246,-0.786548066198119,0.9407463480742458,-0.5540762409777484,-0.14895325752291771,-0.8119890140138921,1.0983868918808923,-0.22608039290165918,-0.4191977236247978,-0.14664136590028312,-0.45559085878017147,undefined,1498137879377
903d185fccf839df,0.3893887564113767,-0.39260318999093347,1.8964025864105314,1.8257840821881903,-0.17643176546113004,-1.7899724989761252,1.8915345494301783,-0.5047487008297187,-0.4075947938602728,0.4303695217784821,-0.42912225976567125,-0.16362994402795278,0.33583305481283426,-0.06699885494000767,-0.8423376235094937,0.8417366113575889,-0.583516333836054,-0.15239204683668137,-0.8112753395369193,1.1622904400791125,-0.21526482063706656,-0.4398827400370571,-0.2584377004239123,-0.47479126212237255,undefined,1498137880913
903d185fccf839df,0.3769147057382544,-0.40610453494772536,1.935959256725233,1.820057669768825,-0.19282716845694792,-1.779073987945941,1.9092673246607608,-0.3575673025810166,-0.39790301025591457,0.27732147567921667,-0.47170095589675437,-0.16984005987705222,0.16610962566844922,-0.1021805276005409,-0.8507586937648034,0.7689946936005344,-0.5676932758862328,-0.152537704330868,-0.8287673660067991,1.135959095269631,-0.2260659663208356,-0.4451247520677029,-0.23911399429142172,-0.5209617020189367,undefined,1498137882374
903d185fccf839df,0.23692708657518555,-0.40727853571597583,1.874072080938596,1.959992334523131,-0.33532521592007175,-1.7905501486975346,1.826425791475489,-1.0172492412543759,-0.33340380343624654,0.6554224207898002,-0.3473668055941664,-0.09057409504833015,-0.6172292780748664,-0.09755137684489056,-0.9339166557835966,0.8215304445786251,-0.506774471343714,-0.15534319900559587,-0.8311112976076666,1.1375297374590416,-0.22933205945661894,-0.46691761380552477,-0.2518511744852912,-0.533420731525549,undefined,1498137883890
903d185fccf839df,0.4600756416528385,-0.3673614573877368,2.092272032617932,2.117650780332815,-0.3237229386818197,-1.830119264481584,1.8903511242537545,-0.6751543971655202,-0.37001850705918893,1.3946337184729316,-0.31259509611105435,-0.019273628196536503,-0.8217677696078431,-0.002190498296186367,-0.8802324102094522,0.9488287017269452,-0.4740395248749865,-0.16305672391743273,-0.8277458309214593,1.137668321246777,-0.23085357778397078,-0.44730887268543307,-0.16969217398552094,-0.5039021284168969,undefined,1498137885374
903d185fccf839df,0.4268113224956604,-0.3614912635645344,1.6667186942606511,1.6450146297596662,-0.32016409128749435,-1.8564559732452524,1.9136827678187875,-0.6009134799100061,-0.3518850787813835,1.2910475321519486,-0.16089448333913106,-0.03180562294446575,-0.6999150512477719,-0.0420013087615954,-0.8791797580219539,0.7447474065246639,-0.5674763785547579,-0.28801203494058036,-0.8130875125507807,1.0911342159309945,-0.2943717690404682,-0.46315280266440206,-0.26633306788046496,-0.4982592677200441,undefined,1498137886929
903d185fccf839df,-0.026415509096626873,-0.438390389072394,1.857484053975832,1.7803697300573014,-0.4304061919737556,-1.8458323142403839,1.88271943826858,-0.8274579833473218,-0.3758763957720932,0.9666159611118019,-0.20274197736146352,0.023754066925067135,-0.7216744652406417,-0.10310641732523389,-0.8276007137515328,0.7103969512651469,-0.6153438812896489,-0.3105953131350532,-0.8186219895015698,1.0415204218490492,-0.3176131922953798,-0.4817753600158198,-0.23923094378914933,-0.5233173088176726,undefined,1498137888385
903d185fccf839df,-0.30361851379387467,-0.507071202308581,1.4957315426343465,1.620012063352551,-0.31247039472797655,-1.8651813053513835,1.9032661110616773,-0.6810696282613542,-0.5232425673397584,1.0743397455362607,-0.2285776825429127,0.012045565523516153,-0.6650999888591801,-0.13365888742701856,-0.8054954742725658,0.6134077464322218,-0.6132263048045711,-0.3453061770266621,-0.797218743996031,1.1148170212848607,-0.30718287301673125,-0.535676354059501,-0.3582355192414134,-0.4232768654642216,undefined,1498137889892
903d185fccf839df,-0.18442123212568104,-0.5211595038075096,1.6348178995473295,1.6840314497622624,-0.2108991379914952,-1.8427926578932883,1.878564345653454,-0.7578235479084126,-0.3269029551946111,0.868437206278398,-0.12085737127217025,0.1411357378203138,-0.7216744652406417,-0.14939808029103196,-0.7791796407680737,0.6538200234607064,-0.5985439031868727,-0.3293154935159441,-0.7448336203934621,1.2216976239655868,-0.2603838841653377,-0.5022286263433499,-0.35035445458452286,-0.38082817032278565,undefined,1498137891374
903d185fccf839df,0.34919450878475883,-0.6761316679075023,1.381527480302459,1.4639422029702904,-0.13177126446693968,-1.8788003655056793,1.9941075021932728,-0.0233972152066544,-0.2821684398811511,1.4290145134405474,-0.05176611133842363,0.06096750390363396,-0.8391753008021391,-0.09940302678653105,-0.7454954186447053,0.6619023771134058,-0.5617511098460221,-0.2666890099633587,-0.7103883204353462,1.34143593901379,-0.20230620750685796,-0.4147554651487437,-0.2711076703241908,-0.30451457929436626,undefined,1498137892876
903d185fccf839df,0.40602095049537545,-0.5469882514088277,1.323468369384987,1.6102835690750836,-0.3014235494869367,-1.8390123003463137,1.9095618788852768,-0.5473228976666574,-0.14621867903314853,1.077479756048125,-0.11972436784088318,0.0017041857926450145,-0.9131573083778967,-0.12069722127856414,-0.7349690808255681,0.7447473499952209,-0.5506587593873955,-0.2641938305420329,-0.7126482895777633,1.254034365581989,-0.2206746795100627,-0.4029367429498775,-0.3154981745522369,-0.34344099108961124,undefined,1498137894388
903d185fccf839df,-0.07215401694856617,-0.6279963796055639,1.39747787765912,1.4696457154817242,-0.4563364298846087,-1.8684399086818162,1.9053752317711525,-0.6944343993077419,-0.2581068658844093,1.2761434587989868,-0.22896657338036133,0.020520462753092578,-0.9044535427807487,-0.09847725361880899,-0.7391796012287554,0.8781074289125086,-0.48489670589199463,-0.20216898021548615,-0.7125643281286279,1.3475799203219485,-0.17120362506723874,-0.3868723034624469,-0.24056626727495986,-0.3085531965273556,undefined,1498137895892
903d185fccf839df,0.037341068115888,-0.49826588965278323,1.2947580099347265,1.3337207081206015,-0.4490027258256413,-1.819120598195043,1.9385370848733814,-0.40381227987319657,-0.3627546666474351,1.1346082047807355,-0.3182406109414043,0.10015779600818225,-0.4779690285204991,-0.15032387936030311,-0.7970743819305548,0.9043753044015539,-0.5389234449177572,-0.1744496840176384,-0.7498853176567941,1.1164954488094865,-0.2135806761542461,-0.3291164552647736,-0.20424530895377918,-0.3536127479256526,undefined,1498137897388
903d185fccf839df,-0.16085900605601325,-0.6444327995529627,1.3502648234691395,1.3937567439994845,-0.6392469746482181,-1.8462329424770847,1.8824827627657439,-0.8984501386089055,-0.3973330590496176,1.0201802603936203,-0.1282507040965722,0.0065742720335705525,-0.5214878565062389,-0.1660631240274147,-0.776021721016748,0.6214903262026935,-0.6839949315847716,-0.23977399875309308,-0.7834560174848548,0.8707670633376602,-0.30637972801500496,-0.3114363589642665,-0.2474302155142728,-0.3494003685868754,undefined,1498137898910
903d185fccf839df,-0.17887721343822777,-0.6526510095266621,1.297947936923889,1.3100792784060233,-0.6848846073565873,-1.8371186293777388,1.8486950143441236,-1.1278021449450333,-0.41389928239680285,0.5436620498774397,-0.0857694008248986,0.018153837655922746,-0.7477857620320856,-0.24475898474128524,-0.7644427530968142,0.6073460377221404,-0.6785915792667764,-0.28336998251334944,-0.7644596764562752,0.6718037519743975,-0.3488209876343973,-0.29623407698517334,-0.2515406850996008,-0.4038955421603948,undefined,1498137900399
903d185fccf839df,-0.08047013124327042,-0.56812082056919,1.3349525639924809,1.3534832083973898,-0.5916036227732,-1.8288172213543599,1.8888705517126136,-0.8103573756246784,-0.44080384732232414,0.2949487819772949,-0.07616127991338144,-0.05699558580179522,-0.7390819964349377,-0.3558590691047773,-0.7476006346728962,0.4153883012636297,-0.750768908780401,-0.36247478483903534,-0.766600700933211,0.5380066573511066,-0.4080745152959986,-0.37470082709943536,-0.4165716036061304,-0.44937910887925026,undefined,1498137901896
903d185fccf839df,0.024867017442765697,-0.5857312705128316,1.425550099229378,1.421546364644331,-0.5532585461983062,-1.8388772062534307,1.876828681128818,-0.8891129159061065,-0.49177294685505596,0.4723177555799021,-0.11715836771859263,-0.024079341985397743,-0.8739903631907309,-0.3864115521573366,-0.7349690366521654,0.3689143720545066,-0.7178943434029784,-0.40534881249408566,-0.7643127432015338,0.524856383943767,-0.43638192124571795,-0.36638024393534313,-0.4736709510614832,-0.41870528514026767,undefined,1498137903394
903d185fccf839df,-0.0915582031235867,-0.5417050871977429,0.9757520958971051,1.050827358814088,-0.5377168600237143,-1.834894206490514,1.9300664706328687,-0.5257637656245998,-0.5946209264777518,0.5236254793851619,-0.11253926724644975,0.0425096326490208,-0.7869527072192514,-0.36604320853767286,-0.7781270033050431,0.26384258745110983,-0.7237361984730197,-0.448849802863241,-0.7874861815040824,0.4383017246345669,-0.4796158015880988,-0.3885606467477812,-0.490227295964256,-0.4098751940336529,undefined,1498137904877
903d185fccf839df,-0.37707718409389984,-0.43956436061265214,1.0146706283318045,1.0495495713304002,-0.6552823814025113,-1.8058322883298612,1.9214065178756252,-0.5562336657367735,-0.5628866551522939,0.3962387885487178,-0.16630956586135068,0.029783974658018637,-0.669451871657754,-0.3586365440172381,-0.817074398019097,0.4295325332147398,-0.7318250466001248,-0.47409291825486516,-0.7874721886958982,0.6003087704269422,-0.46013649061039724,-0.37428427176766865,-0.4657936614841398,-0.4751129217166074,undefined,1498137906392
903d185fccf839df,-0.10403239181834795,-0.4501306305788371,1.422359918103266,1.542393308767067,-0.478265537711077,-1.7335000912474843,1.8490211015934412,-0.7995243330199296,-0.5263836684859209,0.32840629226710255,-0.24935840876554205,0.097315756528941,-0.8087121212121212,-0.35308155533999297,-0.8486534188387421,0.6093665978705937,-0.6280139354402507,-0.44973008513493146,-0.7939932170569016,0.763470694229403,-0.41736885103113786,-0.4246894445003672,-0.5369057258562124,-0.4270528496588098,undefined,1498137907895
903d185fccf839df,-0.13729677998634546,-0.4753722754980568,1.9972085487688171,1.9898552665663243,-0.38398683750017315,-1.7284642767733505,1.7882278715492694,-1.1576327183994797,-0.4467293376910586,0.624959738948907,-0.1314958782113707,0.02994866569622869,-0.9740836675579323,-0.33641657635748295,-0.8939166088820446,0.5891604593563513,-0.593903069022935,-0.36522328360201656,-0.8019975679107194,0.807525642491375,-0.37286952337039275,-0.4519814990844204,-0.5469393062470546,-0.42463924439544787,undefined,1498137909377
903d185fccf839df,-0.12482259129158423,-0.4618709597692572,2.6658443875234785,2.3439012637781005,-0.2604041849362839,-1.781542980115207,1.8676322400848164,-0.6622822207958902,-0.3698423485138997,0.27444100499522756,-0.10527680713839542,0.030044498488314544,-0.9566761363636364,-0.21328059901325847,-0.9370745534482209,0.7548503203258167,-0.5032988819067854,-0.2570819370678915,-0.8194895951574659,0.9113111649070448,-0.30865201417566185,-0.48161352151271203,-0.525532107598599,-0.47530535163941423,undefined,1498137910880
903d185fccf839df,0.027639009533787468,-0.5323128472278007,2.2536891491397997,2.0109567416114627,-0.2406350762726194,-1.8176089207389619,1.8979854604690671,-0.5521933059415504,-0.38836168905068286,0.2351638310391972,-0.05752645731069756,0.022112754841047303,-0.9262129567736186,-0.2151322878072226,-0.9086534744666027,0.8316334431739424,-0.47779798816599783,-0.2500333699023077,-0.801549771317267,0.9540880470837936,-0.28914651945493086,-0.49771224702981404,-0.5074504559975781,-0.541692320478616,undefined,1498137912419
903d185fccf839df,-0.09571631202905342,-0.5123542788356888,1.522527996718499,1.6136855991831933,-0.4057205126317511,-1.8534582425580626,1.8652312326650735,-0.9336038648512132,-0.33629628764638214,-0.30001600714326443,-0.08586742817793418,-0.05161547307037113,-0.9392686051693405,-0.1688405859891009,-0.9086534744666027,0.8013243343291043,-0.49490814584867265,-0.22058518113249853,-0.8114572548885847,1.0582123326068196,-0.25843321974368316,-0.489436647081142,-0.507795338824549,-0.5489298448356538,undefined,1498137913892
903d185fccf839df,-0.11789252480050547,-0.4736112889596773,1.6207816616937256,1.6881699629645683,-0.3791217023028476,-1.8420216778778733,1.8375630452835312,-1.0814628711001946,-0.44356902343957216,0.4970808578283146,-0.3293954556725214,-0.032551291526940675,-0.8174158868092692,-0.0808864108131551,-0.9391798283742822,0.8255716214049748,-0.4438847844080801,-0.12500206438553127,-0.8332803078783654,1.0199779946234233,-0.23224941714385397,-0.48259085562639065,-0.4704070550180747,-0.4936661655784299,undefined,1498137915388
903d185fccf839df,-0.21214149808999608,-0.3861459373276212,1.8326017593947364,1.805454442292586,-0.3294109283178776,-1.8187386030783828,1.8681397984384311,-0.8453444691583966,-0.3815528538503607,0.6975725718146498,-0.34690082216553353,0.004747913924714871,-0.9088054255793226,-0.080886384911606,-0.9560219688849015,1.031673561549874,-0.5160312968956338,-0.1121968540138945,-0.8491560707971674,1.134388443966237,-0.21553745523721785,-0.46843189725637974,-0.3239819130532241,-0.5319733050414999,undefined,1498137916925
903d185fccf839df,-0.011169431827073065,-0.45130471903106456,1.9678597973016052,1.8914250904218552,-0.1898340247112149,-1.8548394815895737,1.8606527448348655,-0.8797304882282724,-0.45658109128633817,1.180599207771813,-0.4110510683350108,0.010433080072980659,-0.7564895276292335,-0.10495809316842349,-0.969706167557494,1.06400331533733,-0.5003859709881741,-0.18696992105929128,-0.8282076194667073,1.2012330988256716,-0.2349957218842368,-0.4197414293189277,-0.21303253930797503,-0.47632598999508663,undefined,1498137918380
903d185fccf839df,0.32285998007538164,-0.45071770403294314,1.8402576349961162,1.8459275769259829,0.08332323182546918,-1.8521235882293638,1.9489905604502655,-0.19878186503494766,-0.4902430470422132,1.4968564223057674,-0.32908623331266423,0.04226158984841782,-0.7260263480392157,-0.16143392146866614,-0.9612851267511194,1.1185598243169248,-0.567426555813374,-0.2261391768734606,-0.8351834401921392,1.264720886667862,-0.2355831817907671,-0.41694669967593123,-0.3811270758062317,-0.40429101971215786,undefined,1498137919894
903d185fccf839df,0.14267825130733386,-0.46421901976174273,1.916819186516359,1.9450425137945466,0.08897008170616306,-1.871705501732732,1.8793243677583829,-0.6549302242286277,-0.5376950937283246,1.002144555111848,-0.35631658740600747,-0.07125947848241143,-0.6999150512477719,-0.12347474799412307,-0.9686535595433985,1.098353714067404,-0.5335946774680776,-0.16441197643894423,-0.8319159290294831,1.3846131836261517,-0.18780045914945265,-0.3958995061478639,-0.428788261683555,-0.3560174582702831,undefined,1498137921383
903d185fccf839df,0.25910336835745706,-0.5287907280110801,2.3174902302925444,2.285566469921538,0.11865460173075927,-1.8831304190194833,1.9537662919204215,-0.15438287998179148,-0.4725943596171131,1.1499384952211893,-0.3385989976690135,0.0271481310673726,-0.45185773172905525,-0.09477388898165524,-0.8676007753775524,1.2337343813978665,-0.49446672584182133,-0.11942907603121276,-0.8000594493587714,1.4606045071513805,-0.13790235932262834,-0.4259317010118094,-0.4270645050887383,-0.37279516713955524,undefined,1498137922890
903d185fccf839df,0.1953468946611714,-0.5340738922221648,1.6967053294709158,1.7466059849711004,-0.11762843362171797,-1.9127024411731843,1.9494192068921004,-0.3230348496497167,-0.361241093890212,0.3954352071545101,-0.27496868650840883,-0.024309128548720974,-0.49102467691622104,-0.1855056167747091,-0.8318112636036552,1.0741063139326474,-0.44952096846583944,-0.2166270940969248,-0.7782294001881712,1.3600372623783612,-0.19385618109989747,-0.4359943794352148,-0.42559808013197203,-0.3059756701975115,undefined,1498137924435
903d185fccf839df,0.2535593841754135,-0.46539309359997405,1.6979810969570213,1.6820727668343898,-0.4033239588513378,-1.8916251551578107,1.9021537021015111,-0.6833364992243361,-0.31938458528168306,0.44169182906113424,-0.2536644834475085,0.0794872775254434,-0.3909313725490196,-0.18180230394065353,-0.8254954829988743,0.8760868404993337,-0.4922020088344008,-0.21718439193907874,-0.7990099285163706,1.2405761206271106,-0.21759744815847887,-0.5047371051074292,-0.45934850792180654,-0.35897380771570975,undefined,1498137925894
903d185fccf839df,0.5570965035171217,-0.32685742251736105,1.5454963859334871,1.3882244892850735,-0.13843639280299588,-1.7761414744301525,1.8646421483090425,-0.5931997797012244,-0.022253580370742498,0.40940921874960123,-0.3327250742593331,0.000778944598507035,-0.8217677696078431,-0.21420648873795145,-0.7560216902037382,0.8841693637403624,-0.5029072564991278,-0.2877333847433019,-0.769987157629971,0.9704103984087319,-0.29865147915656987,-0.46627160392842715,-0.35152881419717086,-0.2717205475927115,undefined,1498137927380
903d185fccf839df,1.3443528850335027,-0.29515852493482914,1.7420039700208896,1.5581599851863328,0.2597846554427968,-1.689789587982772,1.8372159037627374,-0.38807974910588844,0.16843869501993172,-0.2581630874241098,-0.14218135557683567,-0.023942007345497396,-0.8087121212121212,-0.2642015033901287,-0.6802321315282889,0.7609122551536704,-0.4334472704649099,-0.28358530699449336,-0.7145654186513428,0.8443895253592719,-0.3034622828607239,-0.3288813002708047,-0.22298996106575614,-0.22772286653731955,undefined,1498137928890
903d185fccf839df,1.5106748258734903,-0.27167798346595834,1.914905027013302,1.6470085990723302,0.25987722718626544,-1.690027170336785,1.8379496220716602,-0.37375130415113894,0.05292889267646898,-0.15157433559851125,-0.1994187405637953,-0.042669184791304667,-0.7086188168449198,-0.32900986003395,-0.703390060005923,0.5992635710105548,-0.6236354356099533,-0.4162478097421871,-0.7237242437096555,0.503159972990643,-0.4277571444839453,-0.3072046570172596,-0.333673487839685,-0.23924365140873868,undefined,1498137930375
903d185fccf839df,0.7802449205731357,-0.2769610307650738,1.8944889351813732,1.70459947156689,0.031514175876711924,-1.7735164206496803,1.9263426619885142,-0.07187039551164083,-0.1565721664658815,-0.22504702768364385,-0.14779871025596866,-0.06057191092212129,-0.8043602384135473,-0.32067734464114594,-0.757074357115704,0.7407060883747065,-0.619709019083279,-0.4193636191720171,-0.7538315205633249,0.482603044779263,-0.4398195903915494,-0.3054341481903978,-0.33049828205458415,-0.318850790118009,undefined,1498137931890
903d185fccf839df,0.4822518889297002,-0.4143227449214248,1.4351203884707644,1.5751780332690686,-0.27486588016172236,-1.8580258788245423,1.9642802449896155,-0.08603686069423258,-0.25074604549098123,0.04356185568474634,-0.2998683913495543,-0.07530145304040739,-0.6215811608734403,-0.3632656688713394,-0.7928638541651337,0.6517993785180886,-0.5674343855357302,-0.4255509046077725,-0.7636200590654352,0.48004690361599334,-0.45066130695337303,-0.27946831659101573,-0.33627271553696875,-0.2901338251659809,undefined,1498137933386
903d185fccf839df,0.3381061953665744,-0.4653930497579855,1.5659127319023654,1.6419303667090202,-0.33786577356809383,-1.8853385392531337,1.9996221927238857,-0.028258373720420046,-0.4482688767416241,0.9483561142063888,-0.24937945631899158,-0.08425102748397861,-0.3604681929590018,-0.2577206379389651,-0.852863917155228,0.718479502770897,-0.5863679676521578,-0.36457098981635866,-0.8063006054437513,0.5651849095251095,-0.41297709162201474,-0.3413533333305363,-0.3745093266195489,-0.3593829911751283,undefined,1498137934921
903d185fccf839df,0.019322929744492956,-0.42019280721866165,1.354092888338304,1.3459451086245835,-0.39211253644811717,-1.8469317135058212,2.004213842665434,0.016996705002433492,-0.48473620591283206,0.35431123150947336,-0.209894035342171,-0.06732514968463371,-0.6476924576648841,-0.20865147415915722,-0.8633902549743652,0.8558807585145345,-0.5781311587185607,-0.33369155537681894,-0.7909775893118581,0.6589152458796708,-0.3837883705986969,-0.3449677848134951,-0.2915813462084647,-0.3039685557491424,undefined,1498137936431
903d185fccf839df,-0.1594729927577975,-0.33742363402756137,1.5678268914054225,1.579327251672366,-0.6115167401697406,-1.848373512281319,1.9219508767173823,-0.5998908942717485,-0.42237048919816345,-0.028456483544672666,-0.16136589235096122,-0.021981031628113955,-0.8783422459893049,-0.27531149369539354,-0.9360219527963592,0.8114273611891432,-0.6521015155514129,-0.35893466763469006,-0.8481975094198398,0.6487830669316778,-0.4147008846280645,-0.5003311273011716,-0.4225239467626133,-0.3735539026448487,undefined,1498137937898
903d185fccf839df,-0.16917508584530777,-0.4342812110155635,1.3528171208521986,1.3147336956198468,-0.5957179122313594,-1.8838315201758222,1.913064768718679,-0.7160089111708621,-0.40000254423959813,-0.05828094463075351,-0.10713188312295852,0.1727518844377482,-0.6999150512477719,-0.3753015229997481,-0.9465482611665612,0.7588916102110524,-0.6118007525126808,-0.41478489852356976,-0.8494849219421545,0.5729149279409999,-0.4626140062502729,-0.46119330976592665,-0.37654375649963084,-0.3380857682258131,undefined,1498137939402
903d185fccf839df,-0.2564939581383099,-0.620365199243982,1.1633275286231233,1.2063506649680376,-0.8385220740928159,-1.9213089796614031,1.8823538966346554,-1.0492094617242307,-0.3838595329005162,-0.385740169552655,-0.012420183884000305,0.09526849926134248,-0.025373217468805696,-0.4345549298186479,-0.9297061206559418,0.6497787901049137,-0.6758741091253637,-0.4701348259096289,-0.8576991785781333,0.4633395912760587,-0.5100064396856442,-0.46526952672083444,-0.34621952718021065,-0.32445876293909115,undefined,1498137940934
903d185fccf839df,-0.2481778783490154,-0.6585211887358684,1.153757239381737,1.1171922403222652,-0.8098352657106983,-1.9428800645214346,1.9117630091952829,-0.8859547726725446,-0.34938917800594954,-0.10778555808142852,0.05645170135587376,0.12646719284520358,-0.4779690285204991,-0.4975116365208287,-0.9044429393389479,0.613407859491108,-0.6763541181691476,-0.5125972142631419,-0.8475957832562512,0.41598937076137604,-0.5329506015620211,-0.42029160911479324,-0.3752589167979196,-0.3469199060100569,undefined,1498137942489
903d185fccf839df,-0.2564939581383099,-0.6825888475008337,1.083576050113718,1.0855953521392812,-0.7970398603793082,-1.9534454944725774,1.9280204688728466,-0.7912764788611752,-0.33276920738633864,-0.18651828957884925,0.06064770049043721,0.037962498263018264,-0.9479723707664884,-0.4669591146159458,-0.9170745520841462,0.613407859491108,-0.6607173177259338,-0.5169859440710112,-0.844433224929622,0.41715965285761547,-0.5341294654224049,-0.4164427938914349,-0.3542777622648255,-0.36326023210238517,undefined,1498137943973
903d185fccf839df,-0.3354968541582467,-0.708417522032171,0.7569140063377673,0.8451213592636874,-0.8538991896709371,-1.973067005906571,1.921548512597357,-0.8821244821340323,-0.2696015148894073,-0.20207713316152406,0.11278297332362874,-0.06062051752467231,-0.9871393159536542,-0.46232995090952095,-0.9054955694397447,0.3264814783481256,-0.6919261915695468,-0.5477197201138876,-0.8361350079211107,0.314144050883386,-0.5689791518308467,-0.4045062767729595,-0.431131583749221,-0.3392486527396308,undefined,1498137945389
903d185fccf839df,-0.13452475338991396,-0.6796537725102269,0.9872365446415485,1.02534357402838,-0.665125797703429,-1.9603470303661499,1.9288620028386483,-0.7434033725601594,-0.3492682098555606,0.12797216782660858,0.09779135456216083,-0.07459404818168759,-0.5563029188948306,-0.44751662186865143,-0.8602323720342085,0.22545115321829387,-0.7085703502645857,-0.5388409335709473,-0.8322727693937878,0.29435704911763644,-0.5696382696476068,-0.3960737264898972,-0.46018241262771914,-0.33122604607956907,undefined,1498137946894
903d185fccf839df,-0.022257538212799084,-0.5886663455034385,0.8538921579638378,0.8175463955532029,-0.5712276737463714,-1.9354614384556381,1.9669626352257783,-0.41555551057855067,-0.45166091893716254,0.05795023977470908,0.0324944832097733,-0.07402231790648427,-0.6041736296791445,-0.41418656029743506,-0.8265480910129698,0.32446100299383684,-0.6947938669955526,-0.5231985638061958,-0.7993177897486781,0.3539798313261248,-0.5406104579324237,-0.38645690543766653,-0.4769546440133677,-0.30110484404664994,undefined,1498137948390
903d185fccf839df,-0.011169362816253596,-0.6432587695567199,1.1888482152211706,1.2342473941946703,-0.5576094099652039,-1.9372106962479525,1.8972622634690426,-0.8763543866971514,-0.5024072302103693,0.06459876410267827,-0.012454128554529932,-0.07720330611931546,-0.7477857620320856,-0.3123448162975673,-0.7465480266588007,0.29213110788277313,-0.625343236375035,-0.44533502125390495,-0.7727718898453344,0.5208681868155003,-0.4689981612903485,-0.36083465150850447,-0.46451477263669144,-0.27736190361325336,undefined,1498137949898
903d185fccf839df,0.1357481158054356,-0.5763390013148971,1.3694054019519122,1.368601125377598,-0.38749426178670654,-1.9063366308660024,1.9093330770800048,-0.7062878376725218,-0.473360146706766,0.1246056134869109,0.046799446998363164,0.016280672173806517,-0.9566761363636364,-0.25494313712495525,-0.796021751829758,0.4073058062873226,-0.6364652314423496,-0.397774613926638,-0.7680210547951739,0.5681568130099055,-0.4294315219771235,-0.39270236592215196,-0.5406306829959295,-0.2631655668898681,undefined,1498137951426
903d185fccf839df,-0.327180670852723,-0.5305517730054442,1.3540931424752536,1.3144358501130393,-0.6600035154069245,-1.8975810205459545,1.8411185301386843,-1.2333489254148957,-0.4329537500324559,-0.33482166862731455,0.046576460994886396,-0.04720208298268251,-0.9610280191622104,-0.2577206379389651,-0.7770743511175449,0.4335737948352541,-0.6556050272884572,-0.4003964535281648,-0.7738563951274934,0.6219127865071481,-0.42493100388887206,-0.3992952957502528,-0.5142718944442696,-0.25101047355788964,undefined,1498137952904
903d185fccf839df,-0.12066455139693696,-0.5921884501061631,0.8519779984607807,0.9646249184163022,-0.6272950005430422,-1.911200082139062,1.857160354312404,-1.1400774730855607,-0.44688508116610287,-0.5160949605489823,0.09495892786881242,0.07894195606522018,-0.9044535427807487,-0.367894897331637,-0.8286533806634986,0.44973864346426057,-0.6240128829901582,-0.4613193728120086,-0.8131434876617344,0.5602112168020235,-0.4749652082643049,-0.3758188971562759,-0.48789429504329845,-0.28679928792156945,undefined,1498137954385
903d185fccf839df,-0.033345644598525105,-0.4530657347974364,0.8475120498485633,0.8556634601674944,-0.6661029332826145,-1.8664367624597533,1.927031670103169,-0.6194763528661557,-0.5443762136442869,-0.1721434704586358,0.04185403041480901,0.025813952296750663,-0.8696384803921569,-0.45677489747840305,-0.8770744904581266,0.46994472544905985,-0.6746006342221694,-0.5169479483799998,-0.8325456440820679,0.36535928521685496,-0.5406214871692658,-0.4084486702357427,-0.5170501565354274,-0.3484632585285096,undefined,1498137955916
903d185fccf839df,-0.3077765536885219,-0.4882866346847196,0.7179954739030678,0.7519198350884502,-0.8202855334136553,-1.8754905150408905,1.926847576528061,-0.6901505443723036,-0.5600052706803328,-0.3342152837793534,0.006827246951528324,-0.027926302991219884,-0.8783422459893049,-0.5215833188760971,-0.8991797520237949,0.38912036924514126,-0.7601410399085079,-0.5565921749589003,-0.8487292683371672,0.24757657603859626,-0.583419069804428,-0.4263894792957251,-0.4962290775059928,-0.39220128584376523,undefined,1498137957400
903d185fccf839df,0.008234857864176671,-0.5634246713562265,0.7805205334327575,0.8567007203684476,-0.6335384212080599,-1.852715214958988,1.8174739446753256,-1.3280773022822112,-0.604161808599764,-0.2899953047517338,-0.030480660048638333,-0.03610417510565751,-0.8348234180035651,-0.5289900092980809,-0.9318114176687043,0.26788390560106723,-0.8288288144446996,-0.5854513996511221,-0.8716298298594009,0.163716640711115,-0.6154273940825582,-0.43837424732552555,-0.5318136434700865,-0.4504362457648055,undefined,1498137958914
903d185fccf839df,-0.036117602184137135,-0.6015807046901014,1.2526490422369656,1.2646454632441577,-0.41438107601582896,-1.847635143591055,1.793119312276782,-1.4286951953316422,-0.566527957132989,0.15246631784474188,0.051314001226510315,0.000964024566626252,-0.9784355503565063,-0.5410258116233915,-0.9654956766032418,0.15068864704806445,-0.8724630903282157,-0.5542173209248517,-0.8892268086820595,0.09741093666567627,-0.6213847144635766,-0.4673853473001108,-0.45423276191391193,-0.5079282245253579,undefined,1498137960395
903d185fccf839df,0.1468362912019811,-0.6092118996656795,1.0535899231773522,1.0590952523683423,-0.0861336321826808,-1.872919035444516,1.812216962837649,-1.26391538690901,-0.5414614363421876,0.14203328191638792,0.09528808339670597,0.015523288381040567,-0.8913978943850268,-0.49565993477609,-0.979179882638068,0.1143176316400941,-0.8017274114155803,-0.5102413589881488,-0.8997989901369331,0.019217629841307628,-0.6156344968964619,-0.4625213179453857,-0.4800579676992147,-0.535360990863127,undefined,1498137961934
903d185fccf839df,0.2286110757967105,-0.5857312997408239,1.1703457746184,1.2745502677744422,-0.012282327182407567,-1.8718638901522162,1.8696151129439273,-0.8460646547764017,-0.5763465652460147,0.2625914207212831,0.07658093488623872,0.08535872627426741,-0.8609347147950089,-0.5215832800237734,-0.9528640712202773,0.1809977841576241,-0.7920621416298739,-0.5047570301732406,-0.8727283288244837,0.06274903546797975,-0.5917762277734272,-0.47170203558229656,-0.4967159928115481,-0.5583985052362002,undefined,1498137963376
903d185fccf839df,0.05951731539274977,-0.5704688805616756,1.0676259068940066,1.1452778123681666,0.14049113225631127,-1.8960856485345434,1.8937356928342066,-0.6745462718741873,-0.5546824463679983,0.342886886673471,0.03604332158621692,-0.0033893034202650938,-0.8739903631907309,-0.5049182751397143,-0.9454956457902319,0.14058564845274713,-0.7461418928811157,-0.45807690241577104,-0.8856164546367179,0.07597630092754067,-0.574392875315059,-0.48776029932580717,-0.44076231227416757,-0.5711793396946823,undefined,1498137964940
903d185fccf839df,0.12743217403778004,-0.5998196596957373,1.0121188392226441,1.0348351086358378,-0.04817940235271121,-1.8515040112475065,1.9097143922971027,-0.560785102974095,-0.6295547097336454,-0.04026662446600283,0.017976210283763425,0.010617175250690168,-0.9479723707664884,-0.41974156192545475,-0.9349693153333286,0.3911409576583161,-0.6915633259759277,-0.415025552382047,-0.8867289465384433,0.23867627684577297,-0.5267450831031741,-0.48586808759259437,-0.44336840909102576,-0.5298732441006934,undefined,1498137966385
903d185fccf839df,0.04149914251594499,-0.5599025813674983,1.0867659771028806,1.0647692290875406,-0.17843746537476401,-1.8616921038990064,1.9421898724566897,-0.38157562401621914,-0.5600884139414037,-0.31210129443692786,-0.04036952852462249,0.009042342977311345,-0.8870460115864528,-0.3577106542925451,-0.9202324571110042,0.4558004934979497,-0.6436476423371642,-0.39672967748349175,-0.8837972827444132,0.3032265586488273,-0.5042805983814537,-0.49572056862747127,-0.43379993106499626,-0.5599294910933461,undefined,1498137967891
903d185fccf839df,-0.051363817475329886,-0.5786870905353749,1.0102049338565366,1.1339880247056118,-0.25186705826284167,-1.84705749382389,1.880765495866374,-0.7834116580156161,-0.5975964816748028,-0.38079971937833784,-0.044113377600859205,0.033676585287620305,-0.8609347147950089,-0.34660071579037843,-0.9233903253266933,0.37093487567351685,-0.6045076924177352,-0.37125224446584726,-0.8611905875053312,0.2834857514924518,-0.4883381657259884,-0.5266350292906669,-0.41837164561278983,-0.5465724560244657,undefined,1498137969480
903d185fccf839df,-0.058293883966408645,-0.5076581588507177,1.0714539717631713,1.1457011907212584,-0.45390900468734874,-1.8218248454764971,1.9069557347488684,-0.6149838704496994,-0.5526097055898159,-0.4205345970413067,-0.0697132112889884,0.05747003905500754,-0.8957497771836007,-0.4197416007777784,-0.9223376878636628,0.5588515200998424,-0.5852474617260194,-0.45273823127775964,-0.8594273913968569,0.4223027328289366,-0.4933231619384514,-0.5223960490228753,-0.4825279587059044,-0.568120190198618,undefined,1498137970895
903d185fccf839df,-0.012555376114469349,-0.49885293387889695,1.1792779259797843,1.3153307951670867,-0.5607568255789749,-1.8676316631620349,1.89152402812128,-0.7569762080838868,-0.5378914852992404,-0.5455922219388049,-0.07143276660171712,0.05084172692151223,-0.8304715352049912,-0.5095474647476883,-0.9265482450780189,0.5346041199650857,-0.6425948406242588,-0.4980694435434544,-0.8710700848057548,0.6468428645824706,-0.47539561080279663,-0.5168910996216471,-0.5129575899179799,-0.5966074419159842,undefined,1498137972393
903d185fccf839df,-0.2689680778222517,-0.485351588922105,0.9846845013954387,1.0950612555082568,-0.5981042008340788,-1.8703685191039392,1.9148661856625588,-0.6216238149335078,-0.6238508035757365,-0.31447967662544213,0.004568758377502882,0.04744207514187638,-0.843527183600713,-0.5549133545457644,-0.9170745447219124,0.5325834750224678,-0.6496005231071781,-0.527694953302234,-0.8804108273016505,0.6461807289916023,-0.4915149827921764,-0.5174229229195473,-0.5440189649834758,-0.5055160985401153,undefined,1498137973904
903d185fccf839df,-0.39370944718871803,-0.4454345252078622,0.9846845013954387,1.0508737058313191,-0.7745861904640815,-1.8896522899475554,1.8764078984330905,-0.9439940730341937,-0.5850166358662767,-0.2066232816648844,-0.03236799203160608,-0.07924579670598651,-0.7869527072192514,-0.5697266835866338,-0.88549556807567,0.6033048043663476,-0.727233906624497,-0.5174355845891524,-0.8775771194960684,0.6989512019668201,-0.47060238683232564,-0.5516301003010069,-0.5453342336077014,-0.5619391452373939,undefined,1498137975393
903d185fccf839df,-0.1913512986167598,-0.44308647982937277,0.6388823874106141,0.7221611775302789,-0.669219510978264,-1.9185837700256736,1.9629258827189948,-0.40595908445809503,-0.5320990189402547,0.2144969983544284,-0.11852607941004616,-0.057062226939790656,-0.44315396613190733,-0.5650975069294344,-0.854969199443523,0.6194696247306325,-0.7256728728068127,-0.5488786509882967,-0.8452798404770923,0.582431167711448,-0.49124330545397366,-0.5379276274848921,-0.5610139837584227,-0.5965002789611957,undefined,1498137976892
903d185fccf839df,-0.22184355667209663,-0.4483696001984691,0.9310913390901839,0.9567417215465456,-0.7497462281211394,-1.9065812003854299,1.96320990830196,-0.43084417573634687,-0.5372154381917364,0.465966062731815,-0.15331569336366024,-0.1058069000154264,-0.7695451760249554,-0.5725041844006437,-0.8633902476121313,0.532583531551911,-0.8348538274886441,-0.5537170199633609,-0.8401791645588937,0.4969851915471752,-0.5149480710983849,-0.5228456148927458,-0.6026559227605637,-0.5750929624613355,undefined,1498137978444
903d185fccf839df,0.029024988326593486,-0.47185022935131693,0.9891504500076561,0.9969262495802356,-0.7242376976412623,-1.9023280096578836,1.9557544128637196,-0.47279374989151574,-0.5002506309703406,0.4188863275339128,-0.1802508011904551,0.010914167271522135,-0.9827874331550802,-0.5567650044874048,-0.8612849726860702,0.4921713110528693,-0.7734597256776811,-0.5425203740745155,-0.835806157920014,0.4237039912299255,-0.5226786458424562,-0.5113345572988696,-0.5601142387568572,-0.5787821226285923,undefined,1498137979887
903d185fccf839df,0.07199150408751101,-0.4618709597692572,0.9617158580435013,0.9979770973705214,-0.6865920450801027,-1.9111954242776483,1.930163770218458,-0.6613573785745492,-0.5023439216018689,0.18096866250519617,-0.09200292550984543,0.10058574403596565,-0.8913978943850268,-0.4799207678136257,-0.8728639332437703,0.3022342478016981,-0.6797566318706831,-0.5028571473745397,-0.8190627883788204,0.32192026672227314,-0.5232955966654729,-0.5101661050496014,-0.4888966330519465,-0.588409397370659,undefined,1498137981390
903d185fccf839df,0.02209488733010499,-0.5305518022334366,0.8264575659996829,0.9023308298592501,-0.7138388579813827,-1.9153042018755961,1.8878160041900174,-0.9744550539209117,-0.45366020360790815,-0.17915852854570113,-0.028194504204617252,-0.07341551217280673,-0.8783422459893049,-0.4780691178719852,-0.8023375766079416,0.3487082618049858,-0.7187434701391219,-0.5058589636686865,-0.7763822427834881,0.3167925855060314,-0.5151201662885166,-0.49956354297563565,-0.48561590173596025,-0.6231099101768157,undefined,1498137982914
903d185fccf839df,0.03595512382849172,-0.5193984734271416,0.9272632742210193,0.914412488663597,-0.5761339502714701,-1.8993163040835486,1.8419863699955354,-1.190115277905235,-0.40323310158189096,-0.04258941848460684,-0.1317874703362796,0.06001429805881724,-0.8783422459893049,-0.4141865732482096,-0.7981270267558191,0.30829606957066574,-0.7160622547687484,-0.49470031719702856,-0.7939442375639977,0.20952701359829998,-0.5320598112981471,-0.42406262671175393,-0.4933639458412625,-0.5936653075274614,undefined,1498137984392
903d185fccf839df,-0.14699880406303625,-0.5193984734271416,1.3560070478413613,1.2256644219318982,-0.4790061140314444,-1.8987060439874373,1.846535931035165,-1.1090567694707851,-0.41756956567577563,0.058723275446234256,-0.17038362528553522,-0.010549438647292096,-0.9305648395721926,-0.4225190627394646,-0.8181270428443614,0.43155303683375,-0.7257074319431209,-0.5200890873311165,-0.8138221775215541,0.46908320656763003,-0.5037775779937785,-0.42558750813828666,-0.5119413301522301,-0.5554812656674132,undefined,1498137985897
903d185fccf839df,-0.11373441589503874,-0.546401207182714,1.5193378155923871,1.6060984925172215,-0.3466806201371573,-1.884229822382091,1.8996869480238945,-0.7009171463506878,-0.4928262692117953,0.3406756294998147,-0.14536357188360302,-0.07130289365003198,-0.9479723707664884,-0.4086315716201899,-0.784442783909824,0.3749761655587527,-0.7169094517762654,-0.5003746335748086,-0.8028581746942891,0.46826709376502135,-0.4905010679471811,-0.4107088838369607,-0.43303954605736733,-0.5533158376790028,undefined,1498137987388
903d185fccf839df,-0.2606520325383669,-0.4976789331106465,1.4312923236015997,1.6174039024278195,-0.43658789649203084,-1.8811948243707277,1.949056296109161,-0.3777254177741998,-0.5675917802457141,0.08888559907940258,-0.10536729352870346,0.030506937574703085,-0.7434338792335116,-0.41326074827738934,-0.7107585222471372,0.2941517810901126,-0.7815359934095824,-0.5378403296270826,-0.7839178078713381,0.5026980190887619,-0.4974442296595803,-0.4006786550196927,-0.4681709546923773,-0.5501618511218004,undefined,1498137988887
903d185fccf839df,-0.33688283295105276,-0.6673264429356816,1.0325351851915223,1.1831653680064096,-0.5380562964381749,-1.8788562682304282,1.9715122093594302,-0.307095633052558,-0.40061539757626863,0.13953424630411865,0.08608670739635119,-0.1074353425249213,-0.5214878565062389,-0.4197415748762293,-0.7602322326936269,0.24969841202944282,-0.8116497923289715,-0.5187718369729787,-0.8250100775628254,0.46275445485897354,-0.5108334091165796,-0.3962195023406401,-0.45334922209270767,-0.520836838274414,undefined,1498137990448
903d185fccf839df,-0.156700966161366,-0.6808277586644811,0.964267901289611,1.1135062695242608,-0.6321498504014225,-1.8658311621273136,1.9204255959460765,-0.6504051544835031,-0.4216075881380332,0.08694879459967132,0.1650314363689499,-0.13995580966865614,0.17481339126559717,-0.43640659271106297,-0.7644427678212817,0.04157585520664722,-0.8289513979833163,-0.5269349998560905,-0.8258846785615035,0.45009693212324675,-0.5219173425549919,-0.403777884884615,-0.49622734176770017,-0.5390537329638131,undefined,1498137991904
903d185fccf839df,-0.2869862852044662,-0.5587285805992478,1.1129245474439804,1.2819972065024958,-0.7560822138478859,-1.8042018207373751,1.8804472906947947,-0.8349252037019081,-0.37324764412005385,0.060089630145232165,0.06626621288506739,-0.09938986258905966,0.44027824197860965,-0.3706724110964214,-0.8107586174143161,-0.01904244727719363,-0.8146519779880642,-0.49213547546169145,-0.7859748688988595,0.34982225524240573,-0.5116922358000547,-0.392836377418354,-0.45448825290757155,-0.5766941116784732,undefined,1498137993417
903d185fccf839df,-0.19828133060242883,-0.5469882514088277,1.515510004860172,1.509203931273449,-0.7106605731333333,-1.841176163410725,1.8840895653493788,-0.8816441792811761,-0.3081374448927758,0.3345547542994093,0.06006289788570335,-0.1919939194316585,-0.9044535427807487,-0.2993831890014365,-0.7086532399588422,0.0961322228626343,-0.7131773169866779,-0.3766605820925162,-0.7459181267828092,0.3998979968585592,-0.44183015647654134,-0.37563285373635924,-0.3760126000700154,-0.554693627025002,undefined,1498137994923
903d185fccf839df,-0.26481003792760444,-0.5270297122447082,1.4721250155393562,1.4482566018863994,-0.6432789719723616,-1.8621043768599137,1.959181047824372,-0.3751288267838291,-0.33011370973645104,0.3711795771952992,-0.011080275045828293,-0.08083466718181545,-0.9088054255793226,-0.3290098341324009,-0.7939165063526319,0.04763767697561484,-0.7069518573492622,-0.39669168359743356,-0.7683079231602609,0.42727643299667983,-0.45450103116892876,-0.36080881149733196,-0.42671533790412747,-0.512308490802943,undefined,1498137996384
903d185fccf839df,-0.22877365766858512,-0.585144240900714,1.410876231769671,1.4961960464121453,-0.4546187176089579,-1.9114399932330577,1.997741893198836,-0.15549124647318652,-0.2238444538805933,0.4260996093401981,0.09443616064077304,-0.03695565274850633,-0.4126907865418895,-0.2891990236669919,-0.8033901698975694,0.2355542366077758,-0.5949548846352338,-0.3384032681857648,-0.7424197227452776,0.5469069507282122,-0.4008173825314126,-0.34888941685268793,-0.3813883169249409,-0.5007733662482099,undefined,1498137997922
903d185fccf839df,-0.06522391595207767,-0.5229206072578585,2.046973392067958,2.0432890345286694,-0.42481077150849617,-1.8949256878425795,1.818270790313876,-1.2546167604173135,-0.3438985835381771,0.4205292540713384,-0.028218763945735775,-0.05992901516868008,-0.499728442513369,-0.19939312084475833,-0.7949691143667273,0.4073058628167657,-0.5749283379400244,-0.2748268466582568,-0.7357517619859213,0.6869558095447363,-0.3395268400290512,-0.3722685651778624,-0.3927638341713339,-0.516271574538491,undefined,1498137999426
903d185fccf839df,-0.013941389412685102,-0.4876996781425829,2.6562740982820925,2.6089430440928187,-0.442533026873613,-1.856823992772576,1.7757152776682212,-1.4598711185487565,-0.33335419473161204,-0.04937513809156242,-0.06466988892183154,-0.08128492854515837,-0.49102467691622104,-0.07162805749875621,-0.8486534188387421,0.6982733925213762,-0.3945931326858216,-0.22691179460686264,-0.7423217680352956,0.8152402607251811,-0.2968667830068462,-0.3798954632435717,-0.3194627815205555,-0.552357383314713,undefined,1498138000886
903d185fccf839df,0.06921947749107951,-0.5370089672127718,2.5931111550093497,2.558366474880715,-0.2708956043077078,-1.839154383991154,1.8799239702807469,-0.6850824198466197,-0.21984532881980315,-0.09497790699659252,-0.1621578088572703,-0.020180396418661803,-0.5388953877005348,-0.03737219685826869,-0.8170744127435646,0.8033450358011653,-0.34954002611507223,-0.18152991910180197,-0.7310848898407567,0.916639028821947,-0.2599018172187747,-0.3565425211337994,-0.29439945720375243,-0.45388129115025067,undefined,1498138002390
903d185fccf839df,0.1329760892090041,-0.5405310572015001,2.103118343482373,1.9895444533904358,-0.26540303869228066,-1.83590509348418,1.9626550297225882,-0.15455924500237334,-0.25400152942383764,-0.04225503147600499,-0.16569275530317484,-0.07766115286441087,-0.7260263480392157,-0.028113856494644346,-0.8328639010666858,0.7588915819463309,-0.4021169284216722,-0.18282817169748408,-0.7652503171130061,0.8968212302460785,-0.2707346369143792,-0.37089008278289165,-0.330936740785715,-0.4622895337906579,undefined,1498138003943
903d185fccf839df,0.15515223296963668,-0.4753723631820338,2.1318287029326335,2.156789991023411,-0.18278831969720175,-1.8184171650251524,1.9677752539237414,-0.07548163455463089,-0.28850773154028636,-0.21082578746557626,-0.14109116365643667,0.09437704163161553,-0.6476924576648841,-0.01792969116019975,-0.8149691672664385,0.9003341275752043,-0.469271505204635,-0.06295188177490145,-0.7546081666318067,0.9984817664901208,-0.19323762425453023,-0.34909410627236576,-0.31490161421426704,-0.4975873173643172,undefined,1498138005396
903d185fccf839df,0.16485439506796642,-0.5698818363355619,2.3430106627536422,2.2785551258583205,-0.19406144089864624,-1.8535816900040951,1.8950690005714705,-0.5911364071146112,-0.5487281353260266,-0.2663429284624574,-0.23483077432917274,0.061359661144718865,-0.2734305369875223,-0.0901447382260049,-0.754969074827409,0.7467679949378387,-0.5082633389077967,-0.10061389751983482,-0.7441269439201931,0.8635451920867939,-0.23265040705925208,-0.3481593917105759,-0.3657409531775764,-0.5164722643280181,undefined,1498138006896
903d185fccf839df,0.13159007591078836,-0.5299648164633075,2.4151062656616675,2.295484270662906,-0.2646521783073002,-1.854706712386855,1.924706915461131,-0.41779483395190553,-0.5309814555300666,0.3077661643502469,-0.3513430067717165,0.010815329777617956,-0.5475991532976827,-0.03552049511353,-0.7602322547803283,0.7609122834183919,-0.5496220417648884,-0.08234335492197252,-0.7500882264568006,0.7830267233656136,-0.2286445914409828,-0.3790054020546014,-0.4191447358647159,-0.5097583745554115,undefined,1498138008394
903d185fccf839df,-0.07215398244315643,-0.5299648164633075,2.808759317579525,2.8740111388890597,-0.47460382503620274,-1.8586640899706663,1.9397046908994344,-0.3765537593100513,-0.505397945348692,0.21923318674162454,-0.3765507468424941,-0.05509659328508115,-0.41704266934046347,0.009845265176800542,-0.7444427443705057,0.6376551465669784,-0.5745813968640883,0.02836916405435422,-0.7335477668289186,0.7680132380727357,-0.16632947933301517,-0.3887162151829696,-0.49993049705683795,-0.48375196183900315,undefined,1498138009924
903d185fccf839df,-0.06245188935564617,-0.3908420865405846,2.700296971345961,2.5175742448717395,-0.4378118932372956,-1.8141173909117414,1.8835898895972634,-0.656813154632905,-0.5625924947109242,0.6801770993726242,-0.39017553555053286,-0.04625674197411388,-0.7347301136363636,-0.017003943894026784,-0.7718112079757946,0.5649132288099239,-0.5906676599079346,0.001207168428236726,-0.7477023147308376,0.7630087462778627,-0.18499269226093792,-0.40033790951482323,-0.5040094138156621,-0.5269626819910199,undefined,1498138011387
903d185fccf839df,-0.16778907254709202,-0.4419124206051377,2.7877045795936954,2.7793653485202277,-0.36244859254682993,-1.8251742895971543,1.8434748259238176,-0.8950009454983598,-0.4223183205849738,0.3814504619044564,-0.21015788049462888,-0.07350496846088006,-0.8391753008021391,0.0653953332600957,-0.8097059799512855,0.5830987506462698,-0.4407380809365598,0.14679521267083037,-0.7460020900181263,0.8354276363829691,-0.10086726990033688,-0.48870478254845273,-0.36999854149097766,-0.5820190313159412,undefined,1498138012900
903d185fccf839df,0.1828725679447712,-0.6385626787997412,2.9440176096233435,3.0475366926692833,-0.09438275734652697,-1.8218714285973416,1.843685229580062,-0.8065903858540674,-0.49834800791212663,0.9490219218893344,-0.09178798994079702,-0.04593716339657874,-0.5345435049019608,0.27833712277113193,-0.7939164769036967,0.7467679384083957,-0.37701531506617625,0.26145949170204247,-0.7219190681856645,0.923183374369668,-0.015086663903564784,-0.4727015390131182,-0.27000790022727,-0.5726824100657756,undefined,1498138014404
903d185fccf839df,0.10664197456454376,-0.7318981511850188,2.7679261173678698,2.8807906674485855,-0.06885365288389833,-1.8547812502018564,1.9696792387021929,-0.06723556098078322,-0.44103084631113426,0.6649063955419391,-0.027777990343532205,-0.022942406724415994,-0.5432472704991087,0.30518635774350833,-0.7760217431034495,1.0155088542444752,-0.29486500661554027,0.2951824169225712,-0.7538805006495837,1.0672974285458803,0.006372032499390393,-0.34966540608872015,-0.2091382850975393,-0.5198316947569617,undefined,1498138015945
903d185fccf839df,0.24524337339693847,-0.7007862686006082,3.0378050718494034,3.0743852798705813,-0.12041585120749904,-1.851080088711839,1.9462424158307556,-0.2588249671047326,-0.48274988009300507,1.0600277510294929,-0.06411249981300304,-0.02338174310754491,-0.7651932932263815,0.35518126878948925,-0.7823375310704641,1.1165392076390284,-0.19073542601137367,0.33228080111207675,-0.7530198926487187,1.0992338006589566,0.03081758294683206,-0.3262885258040564,-0.021001655162689835,-0.5806781426509062,undefined,1498138017393
903d185fccf839df,0.3103860674238983,-0.7142876720133848,2.8330034742806185,2.8795641941742116,-0.1401849637921848,-1.8970592718952948,1.8872137901958215,-0.708642134839541,-0.45976926783949773,1.0802310964275996,-0.0653218971987443,0.04158522735009636,-0.9044535427807487,0.3394421665808977,-0.7623375149819219,1.051879784858281,-0.08864669398691319,0.3777830023809079,-0.7734295897190696,1.1174655602962191,0.05494658146344248,-0.325240761907439,-0.14263458802747578,-0.49148295036412304,undefined,1498138018896
903d185fccf839df,0.17178453056986465,-0.647367903771562,2.6817947848801396,2.646962013140777,-0.23742594234954256,-1.9085098113339696,1.8617257041242725,-0.9365420094760379,-0.4730611823337039,0.7642674921212158,-0.0164720286882736,0.06794748468597313,-0.9392686051693405,0.48109475989849815,-0.7539164594510798,0.9771172786880515,0.06961395360183642,0.43230331466013855,-0.7910055788553799,1.099772745441838,0.0786336124392503,-0.3190691305645683,-0.14662555377573877,-0.40437386876190545,undefined,1498138020394
903d185fccf839df,0.17594253595910217,-0.6133210046525291,2.205200327463714,2.2168773302365437,-0.4081993748744329,-1.8985010706073686,1.8546935965684608,-1.0168351462051173,-0.5167956306906898,0.6080058707610854,-0.06886751667564127,-0.0007022265586709888,-0.9305648395721926,0.30703805948824703,-0.7528638072635816,0.7568709935331561,-0.05203711430323361,0.2408140962051477,-0.8049432266967246,0.8493324296592579,-0.05772399148423093,-0.31399615025288036,-0.1936875760045884,-0.3604353509631825,undefined,1498138021907
903d185fccf839df,0.1246600094197096,-0.673196563688903,1.0076528906104267,0.8394888448946372,-0.41466907613306225,-1.9081441213987709,1.90328452387601,-0.7552695367751799,-0.5336915431149838,-0.22394922277265614,-0.06517625360818873,-0.05573888800750072,-0.7913045900178254,0.06632126183711232,-0.8897060811166235,0.5002538342938979,-0.3959032632543773,0.00008623957878475581,-0.8682223835313457,0.70404809789668,-0.2200609733605583,-0.28691427092667077,-0.3163002429824226,-0.3626190119093222,undefined,1498138023380
903d185fccf839df,0.02070894304270871,-0.49356985735178915,0.49469168986846207,0.39035657760205134,-0.3928222547991404,-1.7927699158362604,1.9093225541998233,-0.505090290992681,-0.47234104379747655,-0.5413627531525718,-0.11972555142759284,-0.09360734370427964,-0.06454016265597147,-0.19754147090311783,-0.8749692228942991,0.4699446123901737,-0.41883592526231506,-0.10564225699220384,-0.86091071645272,0.7277155111862351,-0.2644021675419829,-0.34257986706197957,-0.391257674348003,-0.33395158328100605,undefined,1498138024959
903d185fccf839df,0.22168100930563173,-0.4976789038826542,0.6120854250525625,0.3374296540269605,-0.3201538068327794,-1.7682989282011876,1.8356169807689764,-0.9162978688967964,-0.47683186292909535,-0.6715715178824309,-0.19000380822950316,-0.08152658117457905,-0.3430606617647059,-0.19568979505992823,-0.88128500349908,0.4355943832484289,-0.5010757741393397,-0.1433865997149002,-0.8659624143889287,0.6828290420237321,-0.29027488388610384,-0.3548439465075271,-0.4607914770745038,-0.3745696693990507,undefined,1498138026416
903d185fccf839df,0.10802791885194005,-0.48593857469223406,0.5578548872781538,0.327368307268857,-0.48272952934554325,-1.7004575060305964,1.8338997243448243,-0.8515743676172355,-0.4610768801730868,-0.7810278127765368,-0.16449631117159172,-0.034819502850871466,-0.8217677696078431,-0.2475364855552951,-0.8949692316206076,0.4921713675823124,-0.5927744293300037,-0.2786836088650254,-0.8914937765010569,0.6828444392979575,-0.36901077820151645,-0.3676207887223753,-0.37639524614259795,-0.378717508850355,undefined,1498138027900
903d185fccf839df,0.02486694843194623,-0.3268574517453534,0.7518104281194465,0.6712650080478174,-0.5397431504644086,-1.5585043506807923,1.8152149419287706,-0.6534202439663742,-0.5600946249081052,-0.6623721205810625,-0.22640655723679529,-0.024373798826854465,-0.847879066399287,-0.4243706997303306,-0.8928639493323126,0.2759664005773743,-0.5911995330085489,-0.424562967852379,-0.8975600119593303,0.47818370145024264,-0.4817442965887062,-0.3548757438941402,-0.38138039411864577,-0.35316849941485867,undefined,1498138029438
903d185fccf839df,-0.2661960512258202,-0.43662931485003753,1.430654439858547,1.430880322681977,-0.6260504331558965,-1.5981456718825777,1.793190314351496,-0.8969756622802023,-0.6095957787122096,-0.3737096096786111,-0.2523248643119615,-0.001156915782451487,-0.865286597593583,-0.4132607223758403,-0.9276008457298806,0.24969844029416435,-0.6966260509254544,-0.4491791197049349,-0.9289267143120221,0.39683371247472227,-0.5197764087282968,-0.37583685907685305,-0.34145021118152574,-0.41114282412045056,undefined,1498138030895
903d185fccf839df,-0.5669613164981455,-0.3855590100134768,1.2545632017400228,1.2475293521228454,-0.9466658975445217,-1.6171615808499242,1.7691407412497788,-1.2324380506831023,-0.490223707994511,-0.20948827987292207,-0.23559029796473555,0.01968420040840285,-0.9001016599821747,-0.3188257335518291,-0.8981271660964008,0.16483285073445303,-0.7027002606148381,-0.4384764450340958,-0.9069427347515995,0.32801805953294616,-0.5237913945947831,-0.37127570094219015,-0.2939732127670337,-0.4142276787757625,undefined,1498138032396
903d185fccf839df,-0.4394479205352476,-0.3526861408906868,1.711379196930623,1.6201294534673913,-0.8483757817102354,-1.7489243155145138,1.8224837255111799,-1.0731343541738396,-0.538530844612243,0.06561531583255625,-0.34799360990446815,0.03664045937844381,-0.8913978943850268,-0.2614240155268934,-0.8928639640567801,0.2820281940816204,-0.6706867149006394,-0.3263580096823219,-0.8527034566092667,0.3560586235345694,-0.4523754857079061,-0.31619264785657575,-0.295300522542885,-0.43604351478081116,undefined,1498138033891
903d185fccf839df,-0.17887721343822777,-0.4965049031144037,1.8128230430319614,1.8152878545487179,-0.6301441444302105,-1.829790842662902,1.8536022197508735,-0.9795026419084332,-0.5119406105493047,-0.17523228857853887,-0.33884867207090646,0.05238314263013608,-0.7913045900178254,-0.3141965439438551,-0.8654955151759588,0.24565726346781466,-0.6478056719041408,-0.3397521842699627,-0.8200423430148603,0.28659622923366834,-0.4652985259291076,-0.3372028637168767,-0.5168387880462256,-0.40234045530942275,undefined,1498138035387
903d185fccf839df,-0.007011322921606339,-0.44895662981058665,2.112050494843757,2.074208774915952,-0.3969879583527443,-1.8347125259062707,1.8887969104067395,-0.6139772007853364,-0.47683851522437387,-0.4365640582029232,-0.45755671182387664,0.03731401712231798,-0.8565828319964349,-0.1651372861058199,-0.7928638836140689,0.19918316467036237,-0.5343822482521227,-0.2432761188324305,-0.7154750036371165,0.37145706099770626,-0.3700214684389557,-0.22999594415622393,-0.5803643493383173,-0.473299985562593,undefined,1498138036879
903d185fccf839df,0.21197898522894093,-0.45365274979555775,2.3238703384078185,2.216714324876296,-0.3241857926179176,-1.8423174922203165,1.9409880402273028,-0.25171804788427254,-0.41448349688967434,-0.7368843666973726,-0.4746275208070077,-0.0027163431065367655,-0.9131573083778967,-0.10403221639450505,-0.7718112227002621,0.2658633454526139,-0.5169161675457831,-0.15100512923136294,-0.6581361380256162,0.529029355241978,-0.27962606687130476,-0.15946574685375992,-0.693151108858892,-0.5685772884941896,undefined,1498138038393
903d185fccf839df,-0.047205743075272893,-0.4624579747673786,2.025280770339075,2.069737075190931,-0.4685249779724381,-1.8526406804198206,1.9530746342303293,-0.26292401552605993,-0.4396568256770542,-0.4996849420753997,-0.4076675996157367,-0.05991123825692548,-0.8130640040106952,-0.11791972046455429,-0.8118112548773467,0.14058553539386098,-0.4875382374440117,-0.11626893386956126,-0.6232150542550094,0.6153684381323419,-0.2443922404687879,-0.13026179387141013,-0.7032086726988169,-0.590772342403255,undefined,1498138039893
903d185fccf839df,0.011006780944378972,-0.46010990016089687,2.112050494843757,1.9850522687587087,-0.43346103773855144,-1.8700750354540225,1.9368987016027033,-0.3923718639460056,-0.3214674035571748,-0.7971843524768142,-0.3915805399303749,0.05047294561698596,-0.7913045900178254,-0.11143889386571433,-0.7265480179324922,0.33860517841550386,-0.46918878377783485,-0.04524497163494363,-0.6034490637853129,0.7278078860003121,-0.18264792858519455,-0.15533344880877792,-0.7646021836653095,-0.6247635844316319,undefined,1498138041440
903d185fccf839df,0.1343622405288588,-0.5258556968624616,2.3525809519950283,2.0934975923581773,-0.3627263013835706,-1.8889209088653127,1.889375487071656,-0.7062343170691701,-0.3175967207188309,-0.764626659725119,-0.3559570236687192,-0.03458362360530847,-0.7521376448306596,0.04410115171883716,-0.7054953570186856,0.304254836214873,-0.4811110149498934,-0.0020289639139807803,-0.5962493451485297,0.7403884178819633,-0.1496670183918979,-0.1299008081475455,-0.687553089973032,-0.6961229524794916,undefined,1498138042890
903d185fccf839df,0.31731613391497704,-0.629757424599928,2.492305700924963,2.3855283923799244,-0.1032798800254324,-1.8865101472166714,1.881838468773564,-0.6738257892177459,-0.29260961772825117,0.2895486777690352,-0.30043039284663864,-0.038438716365626666,-0.7303782308377896,0.01540034450946752,-0.6865479710309401,0.45580035217434206,-0.46943613950775753,-0.016696062168440513,-0.6127898062567405,0.7463476177909171,-0.15864935664071034,-0.2498067899243768,-0.6217768325249569,-0.5994860394710902,undefined,1498138044382
903d185fccf839df,0.2868238413542305,-0.6544120545210262,2.494857744171073,2.422991105362598,-0.12261699024969898,-1.863515897631246,1.8395064794708618,-0.9321487473463083,-0.38317959148813324,0.45877167894518417,-0.2837408605814244,-0.05700961880027313,-0.6999150512477719,-0.07070218072483778,-0.6781269007756304,0.6780671974776908,-0.5214699959529441,-0.01389690142845312,-0.6139792656839774,0.8333026388356903,-0.14650502562866496,-0.246015064809518,-0.6179901313401818,-0.5179051652910825,undefined,1498138045907
903d185fccf839df,0.3408782219630059,-0.6861109521035582,2.491029679301908,2.415230317820533,-0.28063615374966505,-1.8747055630005507,1.8605422920418708,-0.8727691550007443,-0.4650148142631343,0.6208700820808035,-0.27090928328832614,0.02658249679872887,-0.6302849264705882,0.00799369293980732,-0.6570742545862913,0.6740259923866196,-0.4278908509086647,-0.030514544851723193,-0.6153086602949646,0.8640995286782033,-0.15342745169796185,-0.2607623979858636,-0.5068825556493454,-0.4927579368230627,undefined,1498138047390
903d185fccf839df,0.1898027724574889,-0.598058600087377,2.076321635261271,2.0131177408823153,-0.4171890714813762,-1.8903347574846188,1.9974841745544423,-0.0383812064528821,-0.4919854880014714,0.011876772158020037,-0.2569305349993393,0.017221322144168855,-0.7521376448306596,0.030213699451886105,-0.6528637341831041,0.667964170617652,-0.41485141155137156,-0.06076701532033469,-0.6146579578743975,0.7574190966473704,-0.18228385192639154,-0.3028399716693134,-0.4834404451032956,-0.4592354065354759,undefined,1498138048902
903d185fccf839df,0.08169366618584074,-0.6268223349953249,1.774542648477264,1.7024314175181374,-0.6275932918767516,-1.9032038029025133,1.9927373745887131,-0.17306651206063167,-0.4627040670403601,-0.08709035780464496,-0.21868294370452382,0.09245124504545221,-0.669451871657754,-0.01978136700338935,-0.6244426478392521,0.5851193390594447,-0.263078951098541,-0.20379654696757918,-0.6797213020881604,0.6139055880227634,-0.29065918517901257,-0.291334059693851,-0.3702176345292541,-0.36484949014963025,undefined,1498138050390
903d185fccf839df,-0.013941354907275367,-0.6585211741218722,1.331762382866369,1.139015643676439,-0.531823166717562,-1.9567809641745189,1.9299665381012499,-0.6705253756681574,-0.5070922854222809,-0.07497144122273906,-0.04806646682708691,-0.029779200971282078,-0.8957497771836007,-0.21050309819924862,-0.7054953349319842,0.45580038043906357,-0.5362851169223414,-0.3765529188442709,-0.7672584041835638,0.517003174423719,-0.41926669881323964,-0.2660452908506571,-0.5141725679219656,-0.39601727177369817,undefined,1498138051887
903d185fccf839df,-0.00008129093593731222,-0.517637472274766,1.049123466291236,1.027315418448802,-0.7668821985910207,-1.909998195009346,1.9528458544230145,-0.5525664380639266,-0.5187542194464358,-0.33959216051439095,0.02237597327830281,0.0025180598687648166,-0.517135973707665,-0.2716081420090144,-0.8412849492352941,0.34062576682867873,-0.6287221892755147,-0.4296229872594556,-0.8291591898688346,0.4681901026551616,-0.4719543046649041,-0.2986653796941507,-0.5019297683085017,-0.4333241622839303,undefined,1498138053387
903d185fccf839df,-0.16640305924887627,-0.4683281393625886,1.049123466291236,1.0118889636684971,-0.7547759269611243,-1.9056867750722333,1.916412516384314,-0.76185381404644,-0.5656726179604066,-0.5309140318904841,0.008887358272721637,-0.032646678720913216,-0.38657948975044565,-0.4132607612281639,-0.8728639847794069,0.20726574444083407,-0.6922195948594172,-0.5287842176713758,-0.8781298681792661,0.43828632320048805,-0.5406192711176536,-0.4188641541683459,-0.561264416956659,-0.4315701027727116,undefined,1498138054949
903d185fccf839df,-0.05829381495558918,-0.5240946518680974,0.7352216387458341,0.6972015086578038,-0.7342868190686535,-1.9262353236451684,1.9901811977656358,-0.2877589748522669,-0.5686381050124971,-0.49920617941588113,0.005358785436018816,0.016370175009446583,-0.504080325311943,-0.49473407095294614,-0.8876007988283285,0.13856508830429382,-0.7163827331357423,-0.5523934333229361,-0.9153738918396443,0.4040863754604163,-0.5724076942952326,-0.4504582864861307,-0.5924726149403113,-0.45506419566347656,undefined,1498138056383
903d185fccf839df,-0.5004325401621504,-0.44602154020598356,1.0108430717365386,1.046348798461148,-0.748985081719037,-1.915993659121364,1.9237917365231296,-0.7295802166644533,-0.4784565554608001,-0.37120851350090167,-0.042023916618931074,0.058408980105453485,-0.678155637254902,-0.5021408131780282,-0.8970745139089026,0.10825586640056956,-0.69936279547057,-0.5062072754435999,-0.9003797260942228,0.4861754865325548,-0.5339039524307567,-0.4222817100960955,-0.6364146345536686,-0.40877567243449603,undefined,1498138057933
903d185fccf839df,-0.4172717077637956,-0.4231279406652533,1.0503994879142908,1.0283743802088479,-0.6677486487537971,-1.8734105068498295,1.9730427465950977,-0.3107754540306435,-0.43115540042720674,-0.3827029545819222,-0.030835518620703366,-0.05408091557139499,-0.8348234180035651,-0.4234448877102849,-0.8770744830958928,0.1203795099385048,-0.6462817311991558,-0.43096557310740574,-0.875946862304886,0.48004690587766136,-0.5030098382557149,-0.3750599759317211,-0.5505478033473605,-0.3671000225372429,undefined,1498138059411
903d185fccf839df,-0.3646030989153678,-0.35209909666457306,1.1843817583350544,1.235074027630218,-0.559049404899899,-1.76414356415537,1.9227740036302208,-0.441605948022437,-0.32433495879357505,-0.168444532426387,-0.03257577301385744,0.04244667272389243,-0.8087121212121212,-0.34845233983046986,-0.9044429467011816,0.1446267970143753,-0.5670044292046127,-0.35826337922586615,-0.8398852993034083,0.4863140721646268,-0.4562496866556527,-0.3324206444819688,-0.5260520517962733,-0.32755115718434874,undefined,1498138060901
903d185fccf839df,-0.029187604703877844,-0.3879070115499777,1.3745094884441318,1.3913891449765088,-0.2599721935707286,-1.6032909609483286,1.819735581415431,-0.7121636368319901,-0.3005324526209915,-0.07214576171957388,-0.10059117061101584,0.04571138827645231,-0.7869527072192514,-0.36048821986042767,-0.8739165927935023,0.2658632323937278,-0.5391492705072856,-0.4093829013427605,-0.8401091961870933,0.5165874148081169,-0.469469743213467,-0.3189396226248156,-0.5130703184783445,-0.35373582143981364,undefined,1498138062398
903d185fccf839df,-0.033345644598525105,-0.47185027319330547,1.0606079150356795,1.0614625639203485,-0.20684656529623877,-1.4742627525266037,1.8351488836088605,-0.4183705890397868,-0.3231567932393948,-0.31159466104979294,-0.015721106601212488,-0.21892509197404164,-0.5650066844919787,-0.38363403839255217,-0.8602323573097409,0.3224403297864974,-0.576501996368839,-0.45759560200721544,-0.8120100039632743,0.37250416166918837,-0.5053287333139027,-0.3326944905864111,-0.48369504181203166,-0.3898268097492948,undefined,1498138063894
903d185fccf839df,0.16762655968603685,-0.5546194463844057,0.7352218928827836,0.7470411173024003,-0.19116087931509562,-1.4187942492262442,1.781858494892972,-0.6952615226530765,-0.2999507941639851,-0.3411472125390309,0.036119036943749294,-0.2898853508803602,1.3237104500891266,-0.438258255603478,-0.8718113031429735,0.3285022080849081,-0.6454906320170016,-0.5001149855360986,-0.8155154058760512,0.37476773494027965,-0.5228858596582565,-0.3413584387758342,-0.49263849516806013,-0.39490919312710715,undefined,1498138065410
903d185fccf839df,0.2383133069058597,-0.5235076514839723,0.4966058493715191,0.5258749533130095,-0.23395966609052746,-1.4818234624741735,1.7866447413868944,-0.7814516509827412,-0.30011317155543066,-0.4451513314435068,-0.019858423701487646,-0.2631864990538239,-0.15592970142602494,-0.48084661868599504,-0.8907587333041217,0.22141000465666572,-0.7808965645626117,-0.5417097598251389,-0.8455737047721992,0.28433266702859555,-0.5661425677749571,-0.37184136490526376,-0.5067355511858654,-0.4294966881960854,undefined,1498138066935
903d185fccf839df,0.05813130209453402,-0.40727850648798347,0.6459006334058907,0.6436620444381325,-0.4522118707115737,-1.6242913798646335,1.9034344148170246,-0.38620356392428173,-0.2430896881373017,-0.49622433155793577,-0.036026684302675506,-0.02640536610104503,-0.9262129567736186,-0.5975016658251833,-0.8907587259418879,0.12644133170747243,-0.7763419458294445,-0.6117014517531151,-0.8592174858043249,0.21252971694915923,-0.6137306230506243,-0.3984093604639896,-0.5355801411505502,-0.46316551310135506,undefined,1498138068390
903d185fccf839df,-0.2703541256258772,-0.5323128179998083,0.47044702489346973,0.4504717364961347,-0.7291439795117534,-1.6313676092943687,1.8504017426504853,-0.8498610803306178,-0.3226940814433061,-0.5888013622751918,0.01027328937124489,0.007651357342885209,-0.9349167223707665,-0.687307575122804,-0.9507587742075146,-0.03116606255040734,-0.9489633399729617,-0.7190068490574246,-0.9234552065120346,0.03630990855423787,-0.7130449957109489,-0.4508796735106355,-0.6819458387316799,-0.5195513708775538,undefined,1498138069896
903d185fccf839df,-0.7027907577449282,-0.578100104765246,0.5706151035087027,0.5416386458913173,-0.955038449704473,-1.666518160100136,1.9199416969196994,-0.5454539610924025,-0.40759509306105807,-0.6003061954499913,0.030530699153727883,0.11731329251337833,-0.8261196524064172,-0.7113792510026852,-0.9718114572080228,-0.23928864763792448,-1.0020724526669318,-0.7397915699076449,-0.9660727820879427,-0.1369841971309992,-0.7729003360529363,-0.44652035280093755,-0.7001673229591915,-0.48550142869457663,undefined,1498138071389
903d185fccf839df,-0.7596172684663642,-0.6784797278999879,0.5100039493451207,0.5660269573718533,-0.9999766576869227,-1.598536984618434,1.8534891340118491,-0.9143050203794664,-0.3719549393507238,-0.4321541948619416,0.07465007613759311,-0.06766019517908466,-0.6346368092691622,-0.6974917469326359,-1.0044430492305942,-0.12411403402753962,-0.9944178605309109,-0.7291712221093721,-1.0317308556177152,-0.025638037745419093,-0.7662785830015091,-0.47492109912739977,-0.6986321036227425,-0.49177358528559034,undefined,1498138072916
903d185fccf839df,-0.8108997950057568,-0.6978512228379936,0.6554704143733782,0.6603955995450873,-1.041726299591448,-1.6097988567663664,1.8321877081484466,-1.079818242320977,-0.33777518084242253,-0.43374186225128725,0.044486345090195244,0.02016945916202638,-0.7477857620320856,-0.6336091958334731,-1.0865484326842274,-0.0675370355612954,-0.9191396826437572,-0.6652401562563769,-1.0611524465286184,-0.09389934846854049,-0.7516371031503772,-0.4743290033973609,-0.6974891350585013,-0.46014484873835265,undefined,1498138074385
903d185fccf839df,-0.4851864283871869,-0.6004066746938587,0.8570823390899497,0.8813578451133303,-0.8778854319238016,-1.6625211856294726,1.8743250914710783,-0.7916647512057906,-0.368839964938736,-0.1726564762749999,0.004401140765340224,-0.06030491345572134,-0.7260263480392157,-0.5928725150695329,-1.076022105908441,-0.09986669042222605,-0.8848386496129935,-0.6289587223604582,-1.0503983486210087,-0.17729733409438134,-0.7486920624646625,-0.40118774292396436,-0.6150727448410503,-0.4650638627963625,undefined,1498138075890
903d185fccf839df,-0.47687031409248265,-0.5898404047276736,0.9732003067879448,0.9934392753850125,-0.8796134289782519,-1.678334391190073,1.854078209987706,-0.9299015083487145,-0.3762163443293883,-0.13659993172597773,-0.005424168076846997,0.0284393111585825,-0.8739903631907309,-0.5576908553597743,-1.051811551011127,0.09209101777156306,-0.739272137262953,-0.5994282066350328,-1.0282884259632068,-0.04768861842296756,-0.7045538737109106,-0.39231063822371115,-0.6105397795735339,-0.4334015302747265,undefined,1498138077395
903d185fccf839df,-0.43251778503334937,-0.5816221362979895,0.9629918796665562,0.9357695937898395,-0.8070684086641671,-1.6988852686339153,1.8707196251610496,-0.8323980256485324,-0.37770924257025446,-0.14369035669130803,-0.02828194116599135,0.08716625786180109,-0.8261196524064172,-0.5539874518702969,-1.0476010269268228,0.04157579867720415,-0.7649487218757011,-0.5914866951417767,-1.0340118169544756,-0.08815573219422083,-0.7094076220060542,-0.39186365984065036,-0.5991504541822439,-0.43642764850986704,undefined,1498138079993
903d185fccf839df,-0.47548423178344745,-0.6215392146262286,0.9138649201104682,0.9207426703541653,-0.7827530222335839,-1.6999543897869138,1.853870460227926,-0.9452184482407227,-0.40037245475766553,-0.08873659492821415,-0.031068017000184425,0.077568371617289,-0.7390819964349377,-0.5502841519870159,-1.0528641884741574,0.07592616914255658,-0.7327461099519124,-0.5861036930935069,-1.0304714308160376,-0.04878190706690545,-0.6974375667408249,-0.38644729874538813,-0.6141640186403077,-0.441428247187336,undefined,1498138080429
903d185fccf839df,-0.35074296593321025,-0.6520639945285408,0.9393856067085155,0.890883745030063,-0.6376218381770935,-1.7465647946850409,1.8641871944048747,-0.897501600909258,-0.37710361231900175,-0.2305360379124894,-0.08206515360001732,-0.04819828763747429,-0.4300983177361854,-0.4799207678136257,-1.0423378432927866,0.1203795099385048,-0.7286526158118332,-0.5453258680516233,-1.014987488749677,0.02191235485962444,-0.6555134493764426,-0.3834936275334869,-0.651640107422509,-0.45899289429658263,undefined,1498138081899
903d185fccf839df,-0.4352898461351906,-0.4301720914147176,0.9578880473112861,0.9868503062826318,-0.5729350931131052,-1.8158666502280365,1.9635465262878726,-0.324581250700574,-0.4359562224371916,-0.5269898495771652,-0.16219575707156558,-0.03482152042600318,-0.40398702094474154,-0.4586265862723672,-1.0118114893851071,0.17897716747972772,-0.7101700381597233,-0.5426913652480247,-0.9969007325417107,0.031290003707312955,-0.6517843453334744,-0.3803273683947677,-0.5734462044054026,-0.44283486570204134,undefined,1498138083460
903d185fccf839df,-0.6820004892608724,-0.4149096722355692,0.713529271153901,0.6707317707901946,-0.62430186183062,-1.8307924144039813,1.9399177206928166,-0.55772526514443,-0.31812415833776736,-0.6191301450376947,-0.10549660302781808,-0.10813612542116542,-0.40398702094474154,-0.5030666251980739,-1.0139167643111684,0.14058560605566484,-0.7285535513148174,-0.5723105436687602,-0.9870702129113068,0.07594549468034306,-0.6644531142058495,-0.37488861693626435,-0.5093447311116214,-0.4559352412945005,undefined,1498138084897
903d185fccf839df,-0.4006395826906163,-0.44426050982561555,0.6165516278017293,0.5833150833530121,-0.42816391010339144,-1.7956418676283372,1.9109241034616622,-0.6640517742243035,-0.3199466041056334,-0.49855470564701554,-0.05774172642395625,0.009537596312462968,-0.8087121212121212,-0.5604683561737841,-1.0370746927888026,-0.05743393803945269,-0.7220495081330071,-0.6331891303924193,-1.030758299438041,-0.04299209475620679,-0.7321902585140766,-0.4062705978659122,-0.48334674424834323,-0.44299314806847306,undefined,1498138086388
903d185fccf839df,-0.3881653249850356,-0.42782408987821674,0.591031449477581,0.5566387348460741,-0.4235559192625305,-1.7412354981923384,1.8951505349540614,-0.7025041927293784,-0.2604063845378919,-0.4562859354717857,-0.039092960546003516,0.051006864783686795,-0.4692652629233512,-0.6336091893580859,-1.0833905350196031,-0.2413092925805424,-0.7744967498261541,-0.7124459198062865,-1.0689398967346242,-0.2041060303222905,-0.8103666354682018,-0.4413359077413673,-0.5377480621777664,-0.48756701850810696,undefined,1498138087884
903d185fccf839df,-0.16363103265244475,-0.5622506413599838,0.6069818468342418,0.5253089841341908,-0.4695638465707607,-1.7511184612016948,1.8928152590031257,-0.7346029870265485,-0.23109178232007083,-0.5040998384865416,-0.0528515189866962,0.03375007695022154,-0.669451871657754,-0.630831714445625,-1.096022129359217,-0.3362778383384888,-0.8272644726571605,-0.7260554157523917,-1.0849276091841054,-0.2811136531047728,-0.8435522835016901,-0.46269500528815155,-0.480544209172496,-0.4800990001513633,undefined,1498138089397
903d185fccf839df,-0.018099429307332358,-0.6461939030033116,0.5010715438467871,0.4975310144096176,-0.589289355569355,-1.7592148958658442,1.9342820419187667,-0.49322926995949135,-0.2603208357447782,-0.3644124163581659,-0.06452842962283789,0.02147411969283754,-0.6999150512477719,-0.6947142331678515,-1.068653665753928,-0.3463808793308884,-0.9319440115295994,-0.7693157538354829,-1.081772046989359,-0.371779698196257,-0.8788562487211501,-0.4502676665689011,-0.5596869124276619,-0.48682211220959704,undefined,1498138092131
903d185fccf839df,-0.09294428543262193,-0.636214648035248,0.6554704143733782,0.5969860833289469,-0.6305864276204005,-1.7661630165383373,1.89945026204584,-0.7425182009097474,-0.31105794865456216,-0.3251721361375717,-0.06093792794506153,-0.0510274187568455,-0.7260263480392157,-0.6900850694614267,-1.0739168383446136,-0.3544633460424739,-0.9150421339496149,-0.7621848592879595,-1.0803516943875107,-0.3688077990732492,-0.8754848067030502,-0.447271538767354,-0.5602785129659678,-0.4846190881794743,undefined,1498138092408
903d185fccf839df,-0.2717401044186832,-0.6262353930671843,0.4417366654432094,0.5144037348727291,-0.8363620804634532,-1.757621696050558,1.9692321529961003,-0.3158338570473361,-0.3547436413074447,-0.5440156873145845,-0.0484185127991638,-0.1061176696856154,-0.9262129567736186,-0.71878591552312,-1.0602326139042029,-0.2655565372593306,-0.8720607547508183,-0.7712726334594804,-1.0831574157570385,-0.29478747147639195,-0.8654376438918291,-0.4457618166535655,-0.5720578854107253,-0.47839254385912894,undefined,1498138093889
903d185fccf839df,-0.544785034715874,-0.5610765529077564,0.32880837059742746,0.4239568299143791,-0.8110798382751925,-1.7392253649697627,1.9449169744584032,-0.46934589176355607,-0.29428014376882794,-0.5670838267093674,0.0030494750997576104,-0.09231070169817679,-0.7521376448306596,-0.7734101133078839,-1.0612852403238828,-0.24535049767161365,-0.9091399223395328,-0.8099669189463153,-1.0936876165362805,-0.2637134081484541,-0.8794085748799373,-0.4549530359613884,-0.5761349479582917,-0.4768686061905608,undefined,1498138095400
903d185fccf839df,-0.6376480637179683,-0.6925680878549012,0.32242851661910243,0.29173340820386606,-0.8696466014253298,-1.7150292262223452,1.9120969958064487,-0.6905047996111345,-0.2717126022544357,-0.8209810892120903,0.04984966422749655,-0.08164301212997746,-0.5258397393048129,-0.7715584504154689,-1.0833905350196031,-0.2615153745653417,-0.9101858227149864,-0.8142226564331229,-1.0960665320263707,-0.2782803361944102,-0.8835963389990835,-0.4485749888525244,-0.584441778499072,-0.48030323113604273,undefined,1498138096888
903d185fccf839df,-0.7027907577449282,-0.7266150162019263,0.05892967025284348,0.13870920240943907,-0.7621199246451951,-1.7027285132047554,1.8855885601325488,-0.8463245439105975,-0.25567819044992535,-0.8449302498302698,0.0531900826862693,-0.07120384646122699,-0.9001016599821747,-0.8400701393195076,-1.0591799764411722,-0.174629224857177,-0.9194785402465429,-0.8602884895951185,-1.0828215693182057,-0.29985355944934106,-0.9031209505841261,-0.4545017574526354,-0.5998165710578988,-0.4828003415092869,undefined,1498138098442
903d185fccf839df,-0.6764564360680094,-0.7365942127140052,0.18270402182611725,0.19029506707676966,-0.9408339098983806,-1.7405204194397563,1.8968756849786912,-0.8430032433129875,-0.2934860596480108,-0.690340848309107,-0.014055495094053629,0.043170811839541176,-0.9262129567736186,-0.7835942980684903,-1.0581273389781416,-0.15644373128555258,-0.9285727291064197,-0.8211002346066436,-1.0653995095624027,-0.27900406514973214,-0.8763973493686555,-0.42613516186613815,-0.5800300227244147,-0.4864175607138138,undefined,1498138099881
903d185fccf839df,-0.6639822818786579,-0.7313110777309128,0.2547996247341427,0.21165253571502224,-1.0780759632200774,-1.7550665182750955,1.9474862992512774,-0.5448788511232013,-0.25745797835552,-0.6021639313972778,-0.022188436930821145,0.07373979293139778,-0.8565828319964349,-0.8141468199733732,-1.061285232961649,-0.17058799150138423,-0.904608037872482,-0.835444352041473,-1.0687859660572998,-0.2878119734814056,-0.8873158196297064,-0.43294592392964,-0.5612807340474658,-0.47754846418158775,undefined,1498138101816
903d185fccf839df,-0.5475570268068958,-0.6221261711683653,0.3205143571160454,0.2613934723576898,-1.0316463271285188,-1.7757059081655773,1.9167990938271435,-0.7379230831955179,-0.3062794184012983,-0.6042847015564538,-0.035439182728924046,0.062057221416430206,-0.847879066399287,-0.7641517923704214,-1.02128518237898,-0.18877342854356557,-0.8804694089706506,-0.8259639347806041,-1.01356013832152,-0.2781725457569799,-0.862821814845657,-0.4211518015112526,-0.5824214660225219,-0.4544355032790087,undefined,1498138102893
903d185fccf839df,-0.43251785404416887,-0.5687078355673114,0.5897551737175767,0.6049929873316409,-0.9970040960780646,-1.844700302885087,1.9247568864407885,-0.7504014332731402,-0.3691277127236717,-0.4200827423685198,-0.01588932510278623,0.09941572606882507,-0.6999150512477719,-0.5928724956433711,-0.9928640886728942,-0.2130207438841576,-0.7869909696823435,-0.7140291546736679,-0.9894631208547915,-0.09933500181120007,-0.7663560676056835,-0.431117168136723,-0.5683340622805235,-0.4188863541704877,undefined,1498138104379
903d185fccf839df,-0.38400738860661754,-0.5334868479960512,0.9546976120482247,0.902655209033555,-0.7630970594241724,-1.8769998624998405,1.895008523995742,-0.9047890457566228,-0.40691947384635524,-0.2772901562135363,0.022585214896150906,0.03264787319909639,-0.8870460115864528,-0.511399140590878,-0.9812851428396616,-0.13421703262285695,-0.7854089252807515,-0.6357983020303416,-0.9684516979389394,-0.0565889172388463,-0.7200990013871471,-0.4342278515342962,-0.5486932102810742,-0.4192773732649845,undefined,1498138105906
903d185fccf839df,-0.4158856944655798,-0.5381829825950184,0.9974444634890383,0.9618998108409701,-0.7283828319093383,-1.9134035421523905,1.8847733111073617,-1.0049160803213237,-0.386082487429804,-0.22096196667197338,0.0007861379878114399,0.03487959695787028,-0.847879066399287,-0.5604683432230095,-0.9802325127388648,-0.14027891092126765,-0.8460985201924983,-0.5982312805346924,-0.9721740010928833,0.07913298201517027,-0.6815992733469466,-0.4268142074283162,-0.592160435978491,-0.4447085022223287,undefined,1498138107376
903d185fccf839df,-0.5406269258104073,-0.5158764272804018,0.9693719877818306,0.8963617510118969,-0.7352433943646562,-1.9105222738202265,1.936903958067065,-0.660024257555449,-0.36292740293859266,-0.2766684405187268,-0.0507096748587167,-0.019319544702262187,-0.8696384803921569,-0.5771333222055195,-1.0107588666465441,-0.15644378781499566,-0.8584165520848589,-0.6043552368049705,-1.0062624642101219,0.05272464854596979,-0.6971715577703601,-0.44740918291702053,-0.6119149224221123,-0.43324674989948675,undefined,1498138108892
903d185fccf839df,-0.6445780611982276,-0.518224458044895,0.42259634109738603,0.4566698789893188,-0.8600603316014293,-1.8965724610401065,1.9011543778328477,-0.9468902155501301,-0.32712090121950643,-0.539438478736677,-0.024900664806010733,0.026424380446574386,-0.8217677696078431,-0.5539874518702969,-1.091811594231562,-0.0008569395732084517,-0.7798066682974708,-0.6081106723558338,-1.0795260702881027,-0.05792858067336691,-0.7389992676435752,-0.4452143486779065,-0.552668920793669,-0.4530338074077205,undefined,1498138110375
903d185fccf839df,-0.6071556331355829,-0.5692947921094481,0.3134961111207688,0.3676572322139523,-0.85629576299244,-1.898547656099353,1.9453509051239275,-0.6693796548709487,-0.2678090435598249,-0.6557698451478036,-0.03831340470798243,0.06328253353789244,-0.9305648395721926,-0.6280541877300662,-1.099180034386075,-0.13623771996255718,-0.8120852189645912,-0.6550314523495375,-1.089517516746065,-0.1935118919124828,-0.7888446674845087,-0.4558598659088332,-0.5825431254534567,-0.4798695441217885,undefined,1498138111916
903d185fccf839df,-0.5711192873819733,-0.6661524129394387,0.28797618693356986,0.3057947491598306,-0.8872762833925469,-1.9247306342138928,1.8909691547795167,-1.0826616719611888,-0.2910756838779442,-0.6373081440025579,-0.01277098213032387,-0.09341301772353967,-0.9175091911764707,-0.7373025897749813,-1.091811597912679,-0.1524025544592029,-0.8743070211486775,-0.7278033082405719,-1.097619823924769,-0.26859471192203804,-0.8422589808766826,-0.45854423820933526,-0.5743620437745532,-0.4739462249932484,undefined,1498138113418
903d185fccf839df,-0.5780494228838715,-0.6626302644947257,0.21715685978554872,0.2524964134642998,-0.947272754255944,-1.9267151464026138,1.9025955227011873,-1.024316507238583,-0.29260997149785894,-0.6228040266485917,0.026874433093904332,-0.015594388495118254,-0.8826941287878788,-0.7854459674362927,-1.090758975174116,-0.14836130697104935,-0.9179521764997324,-0.7598353378812671,-1.0921343240261763,-0.2978517577314901,-0.8611025864159197,-0.47519580524472627,-0.583941920465875,-0.4795546552549555,undefined,1498138116277
903d185fccf839df,-0.5835934760767345,-0.6626302644947257,0.30647837339939105,0.26082393626612177,-0.9577333084701515,-1.9267477557489454,1.9077578316141721,-0.9916293485426888,-0.28572426554539915,-0.6234782035112687,0.022272235715214573,-0.008280263660172276,-0.8826941287878788,-0.790075118191943,-1.091811597912679,-0.14836130697104935,-0.9273357068234124,-0.7660416225300845,-1.095121962215464,-0.29817512499162596,-0.8655735683062675,-0.48256359894941553,-0.5797958445845216,-0.47803653533075935,undefined,1498138116425
903d185fccf839df,-0.5059766278604232,-0.6203651554019934,0.4219587114912827,0.3427763682196668,-1.0064977985596428,-1.9396936671161278,1.8789667129160446,-1.2011770908900767,-0.3171326060990153,-0.5590784280722374,0.025398212086043658,0.033244309836382636,-0.5388953877005348,-0.7872976303287077,-1.0960221256781,-0.25949472962272374,-0.9519439081637933,-0.781962642220818,-1.0819819513217765,-0.4161734121638112,-0.887250233956024,-0.4896261998279628,-0.5950850631013689,-0.48987255232500254,undefined,1498138117887
903d185fccf839df,-0.5032045667585819,-0.6473678891575658,0.3824012787657329,0.3375115400999365,-1.033981181166462,-1.9477365295840592,1.9250435386846523,-0.9032325063501997,-0.336949544236272,-0.4491653719787011,0.03286724301897923,0.010018917319075461,-0.4823209113190731,-0.7576709269192579,-1.0907589530874147,-0.25747411294482736,-0.9320130921756329,-0.7662379427210438,-1.0763285284270403,-0.39694075392256006,-0.8735534668584504,-0.48050189308413566,-0.5975956322496355,-0.4966724933570924,undefined,1498138119747
903d185fccf839df,-0.46023818901930336,-0.679066713670117,0.5291440195539947,0.4819871755110017,-0.9354750639679185,-1.9605496745939819,1.8839738587108263,-1.1563866280218833,-0.4243705721553971,-0.5092133770734533,0.023371830871603695,0.04266856325636541,-0.7782489416221035,-0.7160084276598846,-1.0676010466964818,-0.09380486865325843,-0.9331248156601643,-0.7339272641343567,-1.0738096762422857,-0.22917468947942427,-0.8178699669270124,-0.47738022125154594,-0.6350040462288726,-0.5153529650321124,undefined,1498138120885
903d185fccf839df,-0.31609266798322616,-0.6990252528342364,0.4187682762282214,0.4385626984985936,-0.8759311582687801,-1.9788295431566616,1.9701631264677109,-0.5803258296807333,-0.4278842671294725,-0.5562632198877786,0.06761921804520578,-0.003285013592883179,-0.8261196524064172,-0.6169441844740268,-1.05286417374969,0.027431594990815586,-0.8350860383778613,-0.6783050195334531,-1.0615722537070071,-0.04205278055077343,-0.746831157595935,-0.4697260887962434,-0.6535834556420795,-0.5233698830234428,undefined,1498138122371
903d185fccf839df,-0.48795848948902815,-0.6749576086832672,0.469809141150417,0.5127537044213023,-0.8675071698236048,-1.9293518441919637,1.9891292868553958,-0.3810954806260202,-0.47885212208727856,-0.7029282614091185,0.02170708533380821,-0.059380010185441874,-0.7521376448306596,-0.5206574939052768,-1.0107588629654274,0.22140997639194418,-0.8171034891251965,-0.5727918442378791,-1.034067790426057,0.07471363265503497,-0.6629767142883924,-0.4506481486725924,-0.6532496344229027,-0.5296700418481759,undefined,1498138123914
903d185fccf839df,-0.6584382286857949,-0.6667393694815754,0.6529183711272685,0.6200152789047672,-1.0258040449930492,-1.9127303931763648,1.9453693174144993,-0.7040243561509502,-0.4504223291219588,-0.5944516095236854,0.06627446145346104,-0.0860837316782903,-0.7826008244206774,-0.3799307126077221,-1.0065483315188894,0.4275119448015649,-0.7510443632802025,-0.4921481391454532,-1.0122797209707093,0.41013796775176126,-0.5475113699701909,-0.4482655920603403,-0.6807239401227325,-0.5406845431825402,undefined,1498138125382
903d185fccf839df,-0.6099276597320143,-0.720157851222591,0.7798826496897048,0.674628567118101,-0.9539481659584318,-1.909853783430457,1.9361965482679968,-0.7255419765667818,-0.4285519409133403,-0.935910494382166,0.04400581147773212,-0.07706409504924254,-0.6955631684491979,-0.3141965568946296,-1.0223378124797768,0.5346041764945288,-0.7055069706685254,-0.37985238196313553,-1.0188497263410896,0.5616586715894116,-0.46955725257480874,-0.4424487579347229,-0.6446795215447135,-0.5436235091201764,undefined,1498138126897
903d185fccf839df,-0.3479710083475982,-0.6866979524876835,0.5680630602625929,0.530757417033236,-0.7362513904618496,-1.9701112017327889,1.9565722906448488,-0.6218490257245286,-0.38162088385541554,-1.184775386476384,0.09606889802398941,-0.10586119667413661,-0.7129706996434938,-0.33734238837752867,-1.0276009777082284,0.5386453815856,-0.6252789997438352,-0.40781866025697194,-1.0215714857721172,0.5702356029432195,-0.4874718278851964,-0.45792449646954,-0.5880874687429177,-0.520797269581347,undefined,1498138128363
903d185fccf839df,-0.4740982529906414,-0.7853165452420574,-0.10312533001207701,-0.14055146366958945,-0.8856922809713003,-1.9586257226271901,1.9530404640694112,-0.6774565291016534,-0.3789664793648127,-1.273438871240566,0.0721186125675249,0.05171028600218796,-0.7173225824420678,-0.4086315845709645,-1.0591799690789385,0.5709749940494484,-0.47802933872496883,-0.5379353213516471,-1.0390845034209086,0.36899331990380635,-0.6040688075419358,-0.4128423169395611,-0.37712842972524163,-0.48502791983314497,undefined,1498138129933
903d185fccf839df,-0.48241436728534565,-0.8011659794193272,-0.433615184520243,-0.4953192780175969,-1.170492947027654,-1.930563048102777,1.952603912504359,-0.7437290714796916,-0.38691835604723546,-0.9297726731283594,0.07336990583624212,-0.03282660203518293,-0.5998217468805704,-0.4595524695216729,-1.0928642316945927,0.45175926014215695,-0.38933204349301653,-0.6778237148561281,-1.0799248883734978,0.19941023756524018,-0.7146700873271675,-0.4098983832878812,-0.2886265937460731,-0.43568443229934917,undefined,1498138131376
903d185fccf839df,-0.8469362442755957,-0.9520289508484931,-0.6058783577696026,-0.6682562891525478,-1.4884752698016044,-1.8368321326014876,1.9299691652859094,-0.8814735307901528,-0.32473756658292763,-0.6847232297294026,0.07918998446527299,0.07055844359071076,-0.9218610739750446,-0.7993334844571165,-1.153916924785484,-0.20291771702411873,-0.8404532881694808,-0.8156918988070745,-1.1369978748780656,-0.21822639813269196,-0.8834356853473456,-0.4297780713147646,-0.3471970380716603,-0.4740096965343016,undefined,1498138132875
