UUID,iqrAccX,iqrAccY,iqrAccZ,iqrAccXYZ,meanAccX,meanAccY,meanAccZ,meanAccXYZ, covarianceAccXY, covarianceAccXZ, covarianceAccYZ,pressureDerivative, pressureIQR, iqrGyroX, iqrGyroY, iqrGyroZ, iqrGyroMagnitude, meanGyroX, meanGyroY, meanGyroZ, meanGyroMagnitude, covarianceGyroXY, covarianceGyroXZ, covarianceGyroYZ, class, timestamp 
903d185fccf839df,-0.6362620159143428,-0.5651856578946061,1.1748117232306174,1.2395384886651264,-1.093213800685747,-1.696518270388947,1.7918744409605096,-1.3606945232974972,-0.6245947650047723,-0.5985035955685822,-0.02647438945981087,-1.1885322902445379,1.441211285650624,-0.502140787276479,-0.9497061588311855,-0.2776802797237912,-0.9723935815203644,-0.3870565550829886,-0.9934902834514063,-0.29154061016769395,-0.6289857876305415,-0.5079035290893072,-0.8764702910148645,-0.5283983492211969,undefined,1498460184836
903d185fccf839df,-0.38885836613955316,-0.2860598143849419,1.323468242316512,1.1633455689479502,-0.9397171678634405,-1.8166498193420673,1.8900813930783658,-0.8384743136393813,-0.5740798306618051,-0.40377650425507194,-0.16737703944564966,-0.6711550460647429,0.8928740530303031,-0.42529656355347445,-0.9360219086229565,-0.2049383337020151,-0.7801461189937317,-0.4463746457767232,-0.9677858730795916,-0.10503491671585037,-0.6295158458101748,-0.5013837622351154,-0.6943856086069372,-0.4320519273987636,undefined,1498460186266
903d185fccf839df,0.37552872694544837,-0.41109413320376487,1.4475615357613123,1.499058475276598,-0.5625465347247113,-1.7768919561626377,1.8053274023618109,-1.2302318608193343,-0.44920965956833875,-0.2699390503584054,-0.13307551119867983,-0.5384248922189805,0.379351882798574,-0.3836340772448758,-0.9581272143620275,0.05369932915625325,-0.7146493822759058,-0.3794787408385724,-0.9606012777135094,0.17532706838914272,-0.5520224823234919,-0.4812423468655965,-0.5973114452296229,-0.4877797284093503,undefined,1498460187761
903d185fccf839df,0.10109764532840287,-0.5381829387530299,1.5990892941017925,1.5107359964356408,-0.1268958394735081,-1.7911114945974678,1.7439787623304612,-1.532023477600014,-0.3500195633920258,0.42838264937199344,-0.12177872887246487,-0.2515572322151743,-0.28213430258467026,-0.3151223689146753,-0.9391798136498145,-0.02914553066667556,-0.7263583243156863,-0.31660620279463436,-0.9151923151468409,0.13265384435483465,-0.5176739042884193,-0.34185744024294884,-0.5295973180867442,-0.3898161074789597,undefined,1498460189311
903d185fccf839df,0.06228927297836181,-0.5698818655635541,1.7081892699414603,1.7145730705655944,-0.04218283790448314,-1.8094985088736084,1.8122222193020108,-1.093118032314857,-0.2915762496536133,0.5739508663849575,-0.018923921102126397,-0.06230593125072374,-0.8304715352049912,-0.28549564607906364,-0.8760218456328621,0.08804972788632721,-0.6090295886561744,-0.23143783401622756,-0.8631735472517581,0.2140058615661056,-0.4433004825721324,-0.3160388996203614,-0.4997162716410971,-0.40206621930333003,undefined,1498460190748
903d185fccf839df,0.0636754242982165,-0.6737835786870244,1.8408960270130679,1.9116179947572411,-0.15272322597142424,-1.8705595159251953,1.8119855417041308,-1.2237333449368535,-0.21376321325984277,0.4137372961753069,-0.002352717805978745,-0.03516363180043746,-0.9653799019607844,-0.20494812247277802,-0.7633901229960174,0.21534815462297655,-0.5849805173302939,-0.17799613833477035,-0.820385186601008,0.34541829684267283,-0.3848846042404357,-0.29212147012089695,-0.4860443325323101,-0.3507292996757454,undefined,1498460192259
903d185fccf839df,0.033183131737469944,-0.697851252065986,2.313024281680327,2.3212789975565693,-0.4693889819770898,-1.9510393893190223,1.8404873799262143,-1.2036706890988162,-0.3629331071479675,-0.2837743700077094,-0.17848681439369127,0.024357765065580777,-0.9044535427807487,-0.18457976590233974,-0.7339164286380699,0.46994472544905985,-0.5396894256478615,-0.038867699101396244,-0.7493675554931555,0.47205511278527496,-0.2762807315439737,-0.18774332347504016,-0.2713912041197372,-0.3212284721996346,undefined,1498460193742
903d185fccf839df,-0.05552185736997714,-0.7788593802627222,2.2989877896897735,2.316939711645489,-0.5139157649427467,-1.9792348298260423,1.9424660065342205,-0.559589198600936,-0.3347249253626405,-0.8777745118671276,-0.21880015414160423,-0.02762216773060027,-0.9131573083778967,-0.12902982732679005,-0.7412848246191801,0.49823318935128,-0.5368411716663917,0.05354261610768372,-0.7011245432322346,0.4728712294381041,-0.22207598491250094,-0.16930898247015194,-0.19249393939810158,-0.2894759582697755,undefined,1498460195284
903d185fccf839df,-0.11096252732024617,-0.7459865257539282,2.2989877896897735,2.407242190875472,-0.4467604454516669,-1.9776393003207773,1.9118340170313668,-0.7083781942101866,-0.3213146606731071,-1.0572652298360452,-0.26789483845057055,-0.016505387208656085,-0.9523242535650625,-0.03181719523024899,-0.7812849156941349,0.5406658852046103,-0.47975102231180033,0.1693594908328146,-0.7055185406034803,0.5818306290390829,-0.14816707696624268,-0.20361010730906434,-0.18440809895764454,-0.3586351157462508,undefined,1498460196735
903d185fccf839df,-0.36044505902072055,-0.7301370769626623,2.441902211471921,2.486889451416189,-0.48568152229303596,-1.9692400650448565,1.8625251536401226,-1.0057593595750522,-0.3354830688028547,-0.9330801390204603,-0.19224419254538214,0.0060010941311843735,-0.9697317847593583,0.08576379343673035,-0.7897059565005095,0.4517591470832708,-0.3427555390172076,0.29804490611380585,-0.7110600146220627,0.5886829406282578,-0.08300912962744553,-0.16008439419753676,-0.16335802742426017,-0.31752964486136764,undefined,1498460198250
903d185fccf839df,-0.21629946897382388,-0.6538250395229049,3.0971402043899303,3.2114664308075325,-0.4756735446380552,-1.9628206823620584,1.9102903163749558,-0.6362340993189436,-0.34875064740547707,-0.7889052709115849,-0.2863198998839788,-0.05506852050105034,-0.9740836675579323,0.09224456823247211,-0.7728638601632928,0.37093487567351685,-0.39011520597490945,0.41262685693257867,-0.7173711383509127,0.6291500581689577,-0.011736926152101758,-0.24717243767203792,-0.17462386869417032,-0.4157278720426017,undefined,1498460199750
903d185fccf839df,-0.14145475087017326,-0.6133210192665254,2.7877048337306447,2.7892842261887045,-0.3936451105062033,-1.958246056887921,1.8197697675510558,-1.2044424942082244,-0.410143816600757,-0.4863219362764322,-0.24024947087159565,-0.08241841135618366,-0.6346368092691622,0.13761035442435174,-0.787600725747851,0.3891203409804197,-0.4291623143353471,0.4464827722096728,-0.6930852081405215,0.705510948154344,0.027447790457784175,-0.2623945667393859,-0.35903503546691035,-0.44968654245185213,undefined,1498460201283
903d185fccf839df,-0.04859185988971785,-0.6238872746187142,2.891700723078093,2.722718800198132,-0.292999564050545,-1.927076177833101,1.8824064882519604,-0.721517533130654,-0.5110543156848787,-0.8172659178247097,-0.11233883033254748,-0.011005508550372136,-0.5519510360962567,0.20797377745006548,-0.7854954360973222,0.5042950111202477,-0.3164787057200559,0.553199206410848,-0.6970733909029972,0.8494864109770025,0.10685477120115554,-0.19613349103562538,-0.31945225158951857,-0.41557775995599616,undefined,1498460202750
903d185fccf839df,0.06783339518204429,-0.5921884062641746,2.6135277551151774,2.652766034842674,-0.3222109442719604,-1.897867516988325,1.8840501167261414,-0.663786837490532,-0.5295208987358361,-1.422330732527642,-0.17937129222395293,-0.007424589329333445,-0.7390819964349377,0.17094046779866628,-0.77707438056648,0.6113873276073761,-0.3956831520332564,0.4834291661883176,-0.6927143788584836,0.9161770774913672,0.08305812006641763,-0.19945707310737865,-0.3404469875111745,-0.44328732726290265,undefined,1498460204241
903d185fccf839df,-0.3673751255117993,-0.5792740616915079,2.749424185038998,2.745315576067302,-0.6042961844536746,-1.9027705655858602,1.8914661734926017,-0.7161157158210846,-0.4066718143651782,-1.6015262064887659,-0.2029346668842141,0.018040670489415753,-0.7826008244206774,0.2477846656201218,-0.7444427517327394,0.6962526910493152,-0.2399964606456845,0.4701616482817049,-0.654840642573994,0.9053057755043945,0.08734570177331225,-0.16826795982285114,-0.27349605837580687,-0.5136726223863335,undefined,1498460205748
903d185fccf839df,-0.13036657547362776,-0.6080378404414444,3.0971402043899303,3.1008689550421527,-0.48725524100376155,-1.889442658430633,1.943565261239459,-0.35887064597116625,-0.39203545862200107,-0.5995222918809264,-0.21483707498293148,-0.07208229454125994,-0.7434338792335116,0.2505621405325825,-0.7054953128452828,0.7265618281588749,-0.2783150632852528,0.43892123341710076,-0.6601652148069909,0.8651466269264697,0.0700267625780004,-0.1708556867162435,-0.31979552965847396,-0.5727106475450888,undefined,1498460207252
903d185fccf839df,-0.03888966328597838,-0.6315184695942921,2.981660120434988,2.8999269731042716,-0.5876025000387294,-1.9076992365437113,1.9212013916341784,-0.5542505148354526,-0.34136268947670895,-0.4070227069435459,-0.31041452483115856,-0.10671823133393354,-0.691211285650624,0.20889962832243483,-0.7370743189404604,0.6780673388012985,-0.35092931252369547,0.4007082519653376,-0.688943097820423,0.8715061862689414,0.03824367651093559,-0.14637727014100127,-0.2607063374268105,-0.5875729309646652,undefined,1498460208762
903d185fccf839df,-0.04859175637348864,-0.6080378550554405,2.13629515981875,2.2351241395643497,-0.5732230955269368,-1.921511624645336,1.9277180477596583,-0.60503771265544,-0.32701975750926615,-0.1603887217539621,-0.17971011433107004,-0.004616161159271621,-0.6302849264705882,0.12835202701150195,-0.7897059565005095,0.45984155726541326,-0.3176798256063867,0.2729727805170613,-0.6885792641442006,0.6504923006227274,-0.062332879871802666,-0.16071583577193668,-0.35593131997203026,-0.5907848307978778,undefined,1498460210254
903d185fccf839df,0.062289411000000745,-0.6274093646074425,1.9027829486627552,2.0400899503147367,-0.6476503999134557,-1.9218447059391117,1.9278232378031606,-0.6330861619820402,-0.34390698575568257,-0.36260111641272336,-0.10875613060140761,0.0016222096020009206,-0.5737104500891266,0.1366845035519824,-0.8128638776159097,0.4073058345520441,-0.25397564890603513,0.2542399317462428,-0.6937149226303367,0.6137362132675516,-0.07998765252093332,-0.21026565530021765,-0.38601570945592184,-0.5749390818680217,undefined,1498460211747
903d185fccf839df,-0.1885792720203283,-0.6955031920735004,1.662890375254537,1.6870165332891383,-0.7363028211376125,-1.928657730561195,1.865854488229544,-1.1180962516371455,-0.39164197076738316,-0.5733664946816688,0.05984656326790405,-0.014785657603899247,-0.45620961452762926,0.14409128462938806,-0.7949691438156625,0.4295325049500182,-0.3924221136007876,0.17139869599504173,-0.7113188984840864,0.586234586227208,-0.13163920026070708,-0.24691939389346193,-0.38236873086045425,-0.535235291634422,undefined,1498460213251
903d185fccf839df,-0.041661655377000145,-0.7436384219194542,2.0909962651318263,2.102438777852097,-0.7943141510262085,-1.9360926621808405,1.973768583350043,-0.42642199710028483,-0.4328439903609125,-0.6543024787323488,0.14480835793317756,0.0889836886206492,-0.45185773172905525,0.044101255325033534,-0.8233902227972807,0.3709347908793522,-0.4305089794993525,0.040173774867165654,-0.7390122764845102,0.5479694514875425,-0.21713130687555923,-0.24028600794205265,-0.39565860514381435,-0.4682657346891785,undefined,1498460214757
903d185fccf839df,-0.07769817365765838,-0.7019603570528357,1.9997608461518763,2.060876294497267,-0.8515746247689279,-1.92013737265058,1.9145821611271157,-0.8329538424081779,-0.4013606453929192,-0.35446229344763724,0.3087996613983262,0.032685435950768525,-0.5301916221033868,-0.02533634272985995,-0.8191796582206906,0.09007045762310975,-0.48899100991029226,-0.015866440345636314,-0.8039216910975515,0.3767849322899541,-0.29307499890501615,-0.25423631845872663,-0.4174418663253031,-0.44655378148283703,undefined,1498460216285
903d185fccf839df,-0.0721540514539759,-0.670261488698296,2.599491517261574,2.4444919491923525,-0.7088194381066829,-1.885245369596532,1.861047197546542,-1.0813819125251822,-0.3892940988363618,-0.32890719649434896,0.433405115753013,0.010400463770173625,-0.4126907865418895,0.0579886557888864,-0.8076006976629905,0.32446083340550763,-0.37313165567418427,0.07465032485339351,-0.8096590753802525,0.6197724028997474,-0.21729172344649073,-0.28164402749741724,-0.16452474843898582,-0.3848270813766786,undefined,1498460217757
903d185fccf839df,-0.148384817361252,-0.6233002303926004,2.366617189848632,2.3775711092917833,-0.7277656967367623,-1.9142537154871242,1.9153710958810788,-0.7615553830554952,-0.33000444295632936,-0.5118248978949091,0.47496236113432333,0.03780616737310744,-0.34741254456327986,0.059840331632076,-0.7970743672060872,0.643716968335946,-0.360597805989073,0.08384575834212671,-0.809449171139591,0.6064527451520315,-0.21333721465526803,-0.28901248440654254,-0.0389426575713533,-0.33567164864564714,undefined,1498460219249
903d185fccf839df,-0.023643517005605102,-0.6602822045022402,2.2881419870992312,2.3809693171320423,-0.7046023065340081,-1.9044522767396834,1.9351840576979054,-0.597613002933806,-0.3831754218473373,-0.7114265241300691,0.40852115692296115,0.09018429782708803,0.3619443516042781,0.06724706090638348,-0.805495430099163,0.482068312457552,-0.3972767221730361,0.06342834879547157,-0.8024523606482886,0.5868813205455451,-0.22182465288295475,-0.2882236127862194,-0.11394933658524864,-0.36174947100374827,undefined,1498460220749
903d185fccf839df,-0.2578800059419354,-0.7090045078023,2.4655089927038607,2.4602870227219102,-0.9393939071196423,-1.9423140596773547,1.8928336728649804,-1.0222753235150273,-0.3445319967504588,-0.38704683802817574,0.24522249996939455,0.13597512209368948,0.6230573195187166,0.08576374163363217,-0.7612848554321899,0.45377982029061026,-0.3722442733898132,0.12671345444320292,-0.7725829748750613,0.6193258439161876,-0.17888529353881474,-0.2914303492736847,-0.1597195190840298,-0.31444106952030987,undefined,1498460222249
903d185fccf839df,-0.39648147378514953,-0.76946714029278,2.6409618388054334,2.7166861070681327,-0.9656944349411353,-1.8997215905449902,1.8209926295660974,-1.4666512721910625,-0.3278130586568376,-0.36051658859501684,0.3509312969073358,0.22073681191347655,-0.8870460115864528,0.09502206904648196,-0.6991795469649695,0.5790575455551986,-0.43309792053900975,0.12773939001782397,-0.7373470362299084,0.7244818269399789,-0.15580548068842331,-0.31176147864198445,-0.16092502862828909,-0.26159534754474695,undefined,1498460223745
903d185fccf839df,-0.20382541830070158,-0.7600748710948454,2.207752116572874,2.3893726563620876,-0.8261586675689195,-1.9100750582771706,2.010480667461868,-0.20144113005289127,-0.37516409244404414,-0.009336801591524887,0.3320428742728823,-0.08494745589274151,-0.8043602384135473,0.019103747998944903,-0.6854953041189743,0.39114092939359457,-0.5258229531207356,0.06663914688255324,-0.6978780255668562,0.5963513606178662,-0.19442996151436187,-0.3324805060529127,-0.3617187741757156,-0.30775331877182505,undefined,1498460225270
903d185fccf839df,-0.12898059668082174,-0.752443646891275,2.799826657944242,2.8147801231693537,-0.7517107937768415,-1.9268176305126627,2.037580815723979,-0.004454952655396347,-0.3504797975458103,0.04506006796891221,0.12295495359780634,-0.04854754716683619,-0.673803754456328,0.003364464479509688,-0.6697058010713856,0.3244609464643938,-0.5265912225205192,0.10530176832647453,-0.6342630208130736,0.5968903072181593,-0.15783099456187621,-0.29188086741482366,-0.5503646123692595,-0.3541422127370764,undefined,1498460226756
903d185fccf839df,-0.2592659502293317,-0.638562664185745,3.008456574519141,3.16684100368781,-0.628395573457026,-1.9508833311571594,1.981132045618513,-0.3425871774547606,-0.3662140321940059,0.5285274890908744,-0.07910180763502603,-0.0973627607017864,-0.8304715352049912,0.07002456172039333,-0.6949690265617823,0.5224804198977074,-0.4529196374986674,0.19036586445705703,-0.5994328961527503,0.7699072450990665,-0.07510801881836045,-0.2902530373970094,-0.4510302137029355,-0.2985141322300094,undefined,1498460228246
903d185fccf839df,-0.09987428291288121,-0.600406616237874,3.0665159395735624,3.017107782668053,-0.48830438080934885,-1.948915124515039,1.900136648082504,-0.8193249879986535,-0.3412334975768163,0.9531232816149144,-0.274797823733757,-0.021924897774054104,-0.9175091911764707,0.19038302529983342,-0.7254953804694616,0.6841290757761015,-0.33762767511764313,0.26462596152539203,-0.5776028456914503,1.0138186211971043,0.010546295835695373,-0.270499113073915,-0.3628534195673177,-0.3779191935517908,undefined,1498460229751
903d185fccf839df,-0.00839740523064156,-0.6191911254057507,2.981021982554986,2.9599367247694333,-0.4152450752712436,-1.9063622530704771,1.90790772465023,-0.6543684014598515,-0.4862191347795978,0.24205085951948574,-0.16690240196415224,-0.049659618840322814,-0.847879066399287,0.242229638090553,-0.742337520980081,0.6275521479716611,-0.3304828727411023,0.2859363180019524,-0.5675484268712292,1.0283855494853817,0.026974344222792174,-0.2583556714391068,-0.3308866563018346,-0.38429372609007617,undefined,1498460231256
903d185fccf839df,0.06921951199648924,-0.6379756638016197,2.5650389334390917,2.4367286802373886,-0.4800758226584385,-1.9035741531327834,1.8286795503279432,-1.169828394689926,-0.441627422511967,-0.33149262761807363,-0.14847721299196434,-0.11809783820117345,-0.7608414104278075,0.25611716806215135,-0.8423375940605585,0.7346442383410173,-0.262579451632471,0.28263685503257785,-0.5595860567113938,1.1576709001448653,0.04506572162166961,-0.28100876670544267,-0.28672451958454115,-0.3866558190921598,undefined,1498460232763
903d185fccf839df,-0.09155827213440616,-0.6837628628830803,2.6486184768176617,2.6307427429551824,-0.4905363777688794,-1.8946158999625566,1.842167822768201,-1.0108723443761087,-0.4392022917384078,-1.2284568268949871,-0.21946074377971542,-0.034458054465717335,-0.5432472704991087,0.3857339331528921,-0.7465480413832682,0.7669739921284734,-0.24152219187184928,0.27715885977038024,-0.5181579393148422,1.13044644794964,0.059472888196273194,-0.2249402571544699,-0.3991113799314717,-0.4823841793225847,undefined,1498460234243
903d185fccf839df,-0.09017222433078068,-0.6790667282841131,2.0941861921209886,2.1846016370044796,-0.5537625580585005,-1.9388178722659724,1.943023512298252,-0.4373952227633262,-0.3631365962113982,-0.7190484184567848,-0.350899272238223,-0.08867381697427357,-0.6868594028520499,0.14131370611073094,-0.7497059390478925,0.5063157125923087,-0.384619757190425,0.14303344418182615,-0.5931357641065453,0.988919331746816,-0.05908839182710579,-0.22922166769733857,-0.3438353940504541,-0.47737652966498934,undefined,1498460235735
903d185fccf839df,-0.22045761238470035,-0.6403236799521168,2.377462992439175,2.331450762948975,-0.6745680659243107,-1.9308938010783374,1.9874198986293181,-0.16420712375748073,-0.3934525523954748,-0.6556575458935401,-0.35944992552938354,0.0488879788619812,-0.9566761363636364,0.14131370611073094,-0.7086532546833098,0.45984167032429946,-0.3687578636542409,0.17143669632577907,-0.5822977042114988,0.9150683862555918,-0.0539909609413455,-0.24812454174533866,-0.3321186525467038,-0.4087034386744616,undefined,1498460237242
903d185fccf839df,-0.2772841576115462,-0.5763389867009009,2.385757260057506,2.4581906433880514,-0.7568330722343458,-1.9334559637196524,1.9249830487530206,-0.6104337623107652,-0.36265907722891455,-0.5780481101161649,-0.33252930391141716,-0.06045155581510706,-0.7434338792335116,0.003364438577960594,-0.7107584854359683,0.5588513505115132,-0.4316874442220449,0.10794260350347397,-0.6123280175463319,0.8474230158408491,-0.10132596102147176,-0.2422396985205751,-0.41225179902529685,-0.40441894244606336,undefined,1498460238740
903d185fccf839df,-0.2745122000259341,-0.5986456150854983,2.603319327993789,2.6210516060840092,-0.8530249108820892,-1.9370686134280732,2.0299701621432638,0.026900021141671795,-0.3710660891268978,-0.8118777052242194,-0.2378886184313802,-0.03961392004756646,-0.7869527072192514,0.04039782593400706,-0.691811128897158,0.40730574975787953,-0.44051956871120496,0.16397648928838138,-0.6015879128873348,0.8600497419683916,-0.07151843290374701,-0.23742607566343707,-0.3215990275743913,-0.4151430273856399,undefined,1498460240242
903d185fccf839df,-0.20798345819534883,-0.6092118704376871,2.430418016864427,2.2265577549384115,-0.7648867748139351,-1.9369614690356374,1.8232253253740802,-1.286386073922345,-0.3664943581259193,-1.0033843570736338,-0.34211205346577805,-0.03663274004404082,-0.8000083556149733,0.009845368782996917,-0.7465480119343331,0.6295726798553929,-0.4607577347584338,0.17476149310735645,-0.6352285800839977,1.0253058592518283,-0.05666374013883387,-0.3074991198410592,-0.2255038377300385,-0.33446449120480554,undefined,1498460241761
903d185fccf839df,-0.2135275803990313,-0.5563804621507776,2.708591238964292,2.4803122214697617,-0.6889371867615915,-1.9160379125717093,1.8312251937956219,-1.1633093464041175,-0.3491570310506866,-1.315040278830978,-0.1931443092263256,0.01018041802060819,-0.8565828319964349,0.007993641136709133,-0.7802322487821691,0.6740260771807842,-0.48574226448238067,0.15989807527097066,-0.6450660953385685,1.0090297043671383,-0.0617863906634068,-0.319264683224813,-0.22705498712121228,-0.42659345505621754,undefined,1498460243264
903d185fccf839df,-0.2939163516955449,-0.6115599304301726,2.8712843771092147,2.716879760460931,-0.5721328076318151,-1.9202817867433124,1.8576494836150979,-0.9824154737166447,-0.36765460849295756,-0.7668577048039851,-0.2031543178703884,0.0010094756830497697,-0.9479723707664884,-0.028113765839222517,-0.7465480119343331,0.627552034912775,-0.4985560099606221,0.1756671069544364,-0.6088226165572312,1.0417667986051293,-0.04528412268657841,-0.23307663844818696,-0.2707643540966474,-0.43172824692820055,undefined,1498460244744
903d185fccf839df,-0.2994604738992274,-0.6156690354170223,2.942103704257236,2.8258004609541754,-0.5659099576886989,-1.9153880542156232,1.9341268767055197,-0.4975605634094424,-0.3758318228613738,-0.5327835222055831,-0.1291950553351337,-0.03739597134454098,-0.9262129567736186,0.06446958599392272,-0.724442743006431,0.7508092282936315,-0.35093654001359426,0.1737608892520783,-0.5973058667167263,1.157794085150597,-0.027340364848195468,-0.1561420228775632,-0.15242940917661826,-0.3211653133016595,undefined,1498460246255
903d185fccf839df,-0.28144216300078373,-0.64912893415193,3.1883756233698803,2.9928672565158476,-0.5194391791690806,-1.9233167842182926,1.8265520374926902,-1.1805147243528307,-0.41843704453142755,0.1752107216894733,-0.40949924092506196,-0.04471099769479985,-0.9131573083778967,0.06632121003401413,-0.7612849069678265,0.874066308615602,-0.34475938106250015,0.18022049164245477,-0.5741744103254551,1.1861272227928044,-0.010889567373458035,-0.13531491780320726,-0.23955630324237287,-0.4143324669864416,undefined,1498460247751
903d185fccf839df,-0.20798345819534883,-0.4806554543231378,2.8936146284442006,2.9510980887072282,-0.561980821808105,-1.9184673083519994,2.0161058246651393,0.08571176188980249,-0.4028705864058918,-0.027323110329131425,-0.44825878229476296,0.039514999747075584,-0.8826941287878788,0.2126030318119122,-0.757074357115704,0.8740662520861588,-0.20716574202735227,0.1484417793889721,-0.5926110063065058,1.0703771048997928,-0.046881760533228546,-0.13315063058229418,-0.14625731507902168,-0.4184835030205654,undefined,1498460249228
903d185fccf839df,-0.24679189955620937,-0.4783074381726407,3.1539232936843478,3.03376485954831,-0.6130904540552095,-1.9125626880885869,1.9810978482220285,-0.05738340701703,-0.3412950488886796,-0.41776183026670016,-0.6778327132370533,0.013670177380634413,-0.8913978943850268,0.19686385189867336,-0.8023375766079416,0.6821084308334836,-0.27550775368546887,0.1710757201251909,-0.6027563827933837,1.082480283235971,-0.04166753155810776,-0.19775012467664832,-0.1741362583820878,-0.41517253503890644,undefined,1498460250745
903d185fccf839df,0.18703071135564767,-0.3274444082874901,3.194755731485155,2.9621518731213725,-0.5931567753912295,-1.747361397785614,1.7854586955728224,-1.0200541275317485,-0.3559591932978196,-0.4279269320779793,-0.7208231547740253,-0.03831463342440726,-0.8913978943850268,0.16075626361189807,-0.7728638454388252,0.5992635992752763,-0.31148758626115536,0.13582655405548744,-0.6419944969174408,0.9216435194859858,-0.09160278764463449,-0.2573611404608435,-0.21933602751583414,-0.4607733521028997,undefined,1498460252240
903d185fccf839df,0.21752303842180395,-0.30278971991040715,3.0448235719816292,2.7710519153473605,-0.5083614878377904,-1.772007077293337,1.8334395134525343,-0.7562643562837309,-0.4308048935798705,-0.17297248397568774,-0.7542850273062878,-0.05702455386273176,-0.6172292780748664,0.036694448346078774,-0.796021781278693,0.48813024728540577,-0.4285965203019194,0.17622440318542054,-0.6350256723055405,0.9884573756909658,-0.05834491039212101,-0.31366848253541824,-0.2803561305799219,-0.5295485800104244,undefined,1498460253746
903d185fccf839df,0.13574808130002589,-0.3444678286190142,3.0409955071124646,3.0302067088170315,-0.5464802787157436,-1.81612752614213,1.9435363441384572,-0.14031742028199032,-0.35637094012426607,-0.28721758428744215,-0.6180313101871893,-0.060595802542631944,-0.6520443404634582,0.10335446788231513,-0.8086533719371901,0.6659436104691987,-0.36157482542941793,0.1937856556540186,-0.634871741316246,1.0881007165104435,-0.03346751232630146,-0.234281199790023,-0.19414317212090662,-0.4296655514336119,undefined,1498460255248
903d185fccf839df,-0.19966741291146406,-0.5563805059927661,3.020578907006637,3.1239577320029106,-0.6290641433724242,-1.9319559334640202,1.9111450145471418,-0.6321455801041322,-0.3566142595243237,-0.510562300174558,-0.46196180543113624,-0.0716592720647954,-0.9610280191622104,0.17927289253604856,-0.7781270180295107,0.7366649963425215,-0.3859535420436226,0.2588059873378353,-0.6374325751859468,1.197768450458056,0.015353169912574384,-0.1657554817411217,-0.2603136329664763,-0.3626041884028209,undefined,1498460256754
903d185fccf839df,-0.22877369217399485,-0.5311388318455541,2.861713833730879,2.998805812254737,-0.692989752573055,-1.9476387020669501,1.9048466218958067,-0.7072126013642441,-0.37545567220895165,-0.5051062772982676,-0.4276251529529621,0.014777362109151846,-0.9610280191622104,0.22741630904968352,-0.7686533103111703,0.8558808433086991,-0.3052095905185835,0.2845684029040123,-0.6478508258472717,1.1951353169060075,0.026686526188665283,-0.21741917491847482,-0.15856311978392976,-0.3445539609095479,undefined,1498460258267
903d185fccf839df,-0.20659744489713308,-0.5563804621507776,2.7660124661387115,2.5724582213990117,-0.7518753721953495,-1.9524788613555548,1.8922814070668426,-0.8101935875573709,-0.3789001958341229,-0.6382582010202181,-0.5468902724095264,-0.012244482335563628,-0.9697317847593583,0.20704795247924523,-0.8012849244204434,0.9629728771486122,-0.21541780984881284,0.30951386941681586,-0.6170578612646543,1.289019640219021,0.058514808755278536,-0.2226763866808303,-0.11127983830059213,-0.35755288743405084,undefined,1498460259756
903d185fccf839df,-0.13452468437909448,-0.5645986867384731,2.7762206391231508,2.587636811992271,-0.7584376471899663,-1.928694998820868,1.8717636600168024,-0.9012200052908738,-0.3309861259518626,-0.7435181997774417,-0.5921138078200422,0.0038542370167165625,-0.9305648395721926,0.26537546957345204,-0.8370744361943406,1.015508797715032,-0.1993023557279531,0.30134437267094005,-0.6587168728573667,1.1677722831039408,0.02271911486428986,-0.24393623439327933,-0.04342452741457328,-0.3663666537988525,undefined,1498460261250
903d185fccf839df,-0.06799594254850917,-0.3943642057573053,2.7436819606667764,2.481607760912233,-0.8218489672055452,-1.831018352931686,1.8475457802790531,-0.9348964605295434,-0.4042857858735091,-0.9732627987243938,-0.6351668764278852,-0.05301131612553094,-0.847879066399287,0.2311197125391609,-0.9033903166003848,0.8174893242817185,-0.2394021646656022,0.19723711305872998,-0.701257483476929,0.9742600203651411,-0.07107448246734624,-0.3322193623669043,-0.039386024590803766,-0.3860717820084896,undefined,1498460262754
903d185fccf839df,0.12050203853588182,-0.5587285513712554,2.3787390140622295,2.534504474069455,-0.5822950825434465,-1.8331379600799296,2.0217388681362363,0.22957545423964973,-0.4756525973971685,-0.35883394610859143,-0.3739239493460784,0.006900145270119921,-0.8870460115864528,0.271856296172292,-0.8770745125448279,0.8174892677522754,-0.20980813815132457,0.2519854108563403,-0.7124173966539513,0.9985125669754501,-0.042351657099318166,-0.30534104589500105,-0.07469289251300851,-0.39327996734396053,undefined,1498460264242
903d185fccf839df,0.25633144527725477,-0.5575545213750127,2.839383328258944,2.834816290669747,-0.5691705305937022,-1.8328281711194392,1.9384739564962317,-0.31879090443329444,-0.5187857201357668,-0.022899163316059665,-0.3109982453346037,0.0008137831004230358,-0.8826941287878788,0.18112459428078725,-0.8697060650280812,0.8053656242143401,-0.2633598302361844,0.19693946425742273,-0.7259142447066033,0.995017119589897,-0.07116827067306741,-0.24370943555032606,-0.13520001247041222,-0.4030608404298456,undefined,1498460265763
903d185fccf839df,0.3796866633238664,-0.6591082183479859,3.2107061288418155,3.1100365625622532,-0.3941285393572954,-1.933674911876328,1.9117945744313793,-0.599446275447573,-0.32432900831413314,0.1594514850544061,-0.19972670149598853,-0.1341719877819651,-0.7782489416221035,0.26815299628901096,-0.8223376000587176,0.7871801023779942,-0.2997804850614072,0.25479090680450134,-0.6985427198229948,1.0287705072290367,-0.028552509047005258,-0.2628053874929341,-0.22637114692367763,-0.4252088807001394,undefined,1498460267248
903d185fccf839df,0.2022769266468404,-0.6121469308142979,2.747510025535941,2.8672944487092584,-0.4977672188038852,-1.9191474477778807,1.839432835808064,-1.058853169342061,-0.2923727276259731,-0.48119308709377484,-0.387940720785009,-0.0024891441833899963,0.061664438502673814,0.2551913689928802,-0.7812849156941349,0.8942724188651228,-0.2726691487106058,0.2472547035183516,-0.7234373732525335,1.126258062697402,-0.01730414178113355,-0.2915539047483629,-0.2691248543745855,-0.4540274003254829,undefined,1498460268729
903d185fccf839df,0.10386980994647331,-0.5933624801024059,3.017388725880525,2.9539842008287476,-0.5432608574552013,-1.8974342799203836,1.927255203659459,-0.46317101035864966,-0.3023486207867758,-0.3867764306455592,-0.4470942803097147,-0.0104801397945935,-0.06454016265597147,0.1996413268111341,-0.7528638219880491,0.8356746200002921,-0.3263339109635186,0.3303302572831395,-0.7404396235849862,1.281628380131367,0.045277936793550036,-0.29104383090033203,-0.22070618339341522,-0.4624204400696624,undefined,1498460270252
903d185fccf839df,-0.05136374846451042,-0.5587285367572593,3.100330131379093,2.9857133445121393,-0.5852573603217524,-1.8659266606838163,1.9031924781359777,-0.6446537540086994,-0.20063615508174254,0.6668519288402763,-0.2290531948240575,0.12159907798319938,0.13129456327985742,0.002438613607140343,-0.7707585852372316,0.8558807302498129,-0.36650956648570926,0.2606615461637204,-0.713753786772881,1.1934722795340456,0.0020733632760925893,-0.37302687113480565,-0.157372960598609,-0.5379183719145233,undefined,1498460271748
903d185fccf839df,0.16485446407878587,-0.5880793451193134,3.203050253240436,3.0681069669939696,-0.49994778959282654,-1.8884993182158964,1.8876108810911358,-0.7224672735928617,-0.22255262255534705,0.8880277041815229,-0.13700447954355024,0.09913885611731849,-0.691211285650624,0.09965129750677959,-0.7854954360973222,0.9488287017269452,-0.3352632771492324,0.31052081201819715,-0.7098495663403975,1.272281529170782,0.039699173371801975,-0.4230067305277946,-0.0650130027617447,-0.5338622337433587,undefined,1498460273241
903d185fccf839df,0.5404643439385326,-0.5704688805616756,3.2981139912265,3.180815385716046,-0.0336868476495355,-1.8638163713264657,1.8512196335256372,-0.6852980705711679,-0.022500999035590056,1.1831492671319503,-0.024843375921728916,-0.039401251702463516,-0.6302849264705882,0.1292779037854204,-0.8265481351863725,1.2357549132815984,-0.21342962570086638,0.2876018869284926,-0.785450108596942,1.6088915520653784,0.07882143809144095,-0.4000119161818648,0.16598975178561887,-0.5340173658626767,undefined,1498460274817
903d185fccf839df,0.5376924553637401,-0.6092118850516833,3.4793093158372437,3.149030555000157,0.16828309529276392,-1.912050256870476,1.9832332606810097,0.22187763797769725,-0.11049835150583942,-0.005563610175238436,-0.16310732843730158,-0.009953593470840225,-0.6825075200534759,0.09872547253595934,-0.7918112314265706,1.0417766732040774,-0.25712361402992834,0.26620920378422236,-0.7646485902276042,1.4648390935152882,0.05135329350864965,-0.39641387110325993,0.13886797846063925,-0.574238519952002,undefined,1498460276260
903d185fccf839df,0.1246600094197096,-0.5428791171939856,3.000162306900809,2.8920640168297562,0.1227585977718693,-1.9090618412650817,2.0828818678024428,0.7943320662116121,-0.12014769824351568,-0.031280982292387585,-0.19177513538480062,-0.11688257819029808,-0.6041736296791445,0.0542853300040563,-0.7012847924420955,1.035714907964553,-0.3443722545683185,0.2356464153824625,-0.6931691709659956,1.5031812214514715,0.06137399094765657,-0.41294443152752264,-0.0007274572356725989,-0.5159702550937855,undefined,1498460277757
903d185fccf839df,0.01655090314806145,-0.5510973271676851,2.6830708065031943,2.616388594037264,-0.26812875513722784,-1.919853205445615,1.8951663080134733,-0.6691670394021315,-0.38474382088472125,0.35550218633385455,-0.40903857917663144,-0.10503247455944897,-0.24731924019607843,0.1450171355017574,-0.7012848071665632,1.3165792977502384,-0.310348275503405,0.2238418085671238,-0.6719058616107026,1.675936384319324,0.0866224334998049,-0.32822171384318427,0.023276878649463713,-0.3873682600638873,undefined,1498460279244
903d185fccf839df,0.04565704438895331,-0.5317258322296793,2.868094195983103,2.7193689088697184,-0.1422935308988663,-1.878122555921088,1.9072844596580636,-0.5375045695394051,-0.2773155244863584,1.5123857258272773,-0.31275023037842214,-0.13397691044312834,0.20962845365418897,0.21445457814735633,-0.6581268626003868,1.2054460305545325,-0.32517029175724677,0.2164829244539182,-0.6746835956388506,1.6574120505299093,0.0816754388772796,-0.2557428304192215,0.012550717651253953,-0.3613922989417489,undefined,1498460280749
903d185fccf839df,0.5487806307602856,-0.4906347239051975,3.0767236042841026,3.0792543676145114,-0.09686160168054422,-1.8715983579754394,2.034603880036295,0.368100629967718,-0.23648908740979446,1.4236334357602403,-0.17215896313122045,-0.045508035939711346,-0.49102467691622104,0.23945211137499406,-0.6654952806681983,1.0720857820489156,-0.3102662789421389,0.2684953910811951,-0.649690987817417,1.383735477311004,0.06381210143370958,-0.2790839724949339,-0.21229963503076937,-0.2628101206888959,undefined,1498460282231
903d185fccf839df,0.2050489532432719,-0.5399440275893825,3.2355884234229113,3.282036297566799,-0.3281869223422089,-1.911248997274817,1.9635438794621793,-0.2437523012821118,-0.18314039338744778,0.8984526564913371,0.2990541628942156,-0.031222822711914427,-0.6128773952762924,0.40239883443075486,-0.7476006346728962,0.9286225914774244,-0.11451111728264599,0.4097580310881004,-0.6465214312485188,1.403507083310307,0.13668289215241886,-0.19102202805676838,-0.2537852693087576,-0.27024905968244134,undefined,1498460283752
903d185fccf839df,0.16069642418413863,-0.5827961662942324,3.1603034017996223,3.3978660908130123,-0.2273150978295998,-1.8948604703536065,1.9602224387351166,-0.20433294934837673,-0.36874528549712465,0.8883187202078932,0.38785928662283853,0.0623327252632956,-0.6520443404634582,0.5449772268176265,-0.7549690969141104,0.9407463480742458,0.021797524815458463,0.5163288082767789,-0.642757148452727,1.318923419848705,0.18234614114983738,-0.2530167576377729,-0.2956570192495201,-0.4414636226743544,undefined,1498460285255
903d185fccf839df,0.051201235603455256,-0.600406616237874,2.6237359280996166,2.7344169851352285,-0.3350474904710043,-1.9213602244762642,1.910876768308719,-0.620656447190459,-0.32740798520407804,0.8177015212606594,0.22426660271781237,-0.07391147866878328,-0.6825075200534759,0.3431454923657278,-0.8118112401528791,0.7993038024453726,-0.1422383543578323,0.42016939274715587,-0.6108516906287479,1.1912241128665602,0.11766966333341547,-0.3343875410851001,-0.4008557232972795,-0.5225635869723336,undefined,1498460286739
903d185fccf839df,0.22029513402905493,-0.5370089672127718,2.439988560242763,2.423042583837247,-0.23337337626200705,-1.8423943565767635,1.822552104853202,-1.02687803294154,-0.39869350924652025,1.2305136618871253,-0.12984791577313204,-0.03844458581789456,-0.9175091911764707,0.23019383576524247,-0.8897060737543897,0.7083764759108582,-0.251302563857362,0.31170506589170044,-0.6040228029500773,1.0191772816124922,0.03835457946487067,-0.31787008901260755,-0.5044651859793958,-0.4662275220813795,undefined,1498460288251
903d185fccf839df,0.2119790542397604,-0.5170504572766447,2.36342726285947,2.388104079106954,-0.1749814703696301,-1.8422336390893055,1.9348395623481034,-0.2794768870827936,-0.5059565397240235,1.1500417107799872,-0.5396824654990955,-0.024545032386421094,-0.8565828319964349,0.1015028956453219,-0.8718113399541425,0.708376419381415,-0.4448394651387139,0.20025159117631916,-0.6013220330830572,1.0607376827353014,-0.011130803031231809,-0.31444198863579925,-0.514051704367567,-0.5193986699219891,undefined,1498460289735
903d185fccf839df,0.18564452553038324,-0.5223335922597371,2.376825108696122,2.194740434917911,-0.17428205471807398,-1.8615872874619117,1.8490368772716577,-0.860907668809365,-0.46960745248880914,1.8287651740873003,-0.4135670856968726,-0.02726167699682022,-0.9044535427807487,-0.062369678282808226,-0.8202322956837212,0.7245412962751431,-0.5142957220200208,0.0701032648040537,-0.6499148842423225,1.2730514434060975,-0.06287686795852604,-0.37332231877015915,-0.2477615875077657,-0.4080527152706394,undefined,1498460291237
903d185fccf839df,0.21059304094154466,-0.6109729154320513,2.511445771133837,2.5373804304221856,-0.1689026369514196,-1.9043800698414568,1.867750578621876,-0.8830283143832385,-0.3495697174417327,1.4886020986433035,-0.14185847991401057,0.008159603688111462,-0.8913978943850268,-0.016078015317010155,-0.8623376322358022,0.7386855282262532,-0.4479778478431051,0.0752329465140681,-0.7119975875242199,1.2332156672039865,-0.08441805555164111,-0.28219571316142955,-0.17912831541950422,-0.2982131307454581,undefined,1498460292786
903d185fccf839df,0.42819719777223725,-0.6990252528342364,2.2772954220978403,2.360552017459645,0.059192983728480766,-1.9247026827162899,1.9925506574952727,-0.053696562790225416,-0.3821773654442588,1.6348933426541201,0.023458349227199575,-0.034538926377889224,-0.7956564728163993,-0.022558841915850104,-0.8086533572127225,0.8114273894538647,-0.4395122572111796,0.09613165984110834,-0.6933860709409311,1.2265635375461201,-0.07048850042031095,-0.2966946528510456,-0.1288394078463291,-0.287407392229059,undefined,1498460294233
903d185fccf839df,0.6333275109622659,-0.6831758771129512,2.401707657414167,2.5167567802193287,0.15575511410133652,-1.9185721256548274,1.9388894727761405,-0.35990917139497886,-0.3389604871851485,1.9216836817065064,0.06358083553430674,-0.007986073741058518,-0.9392686051693405,0.05798870759198459,-0.7402322166050846,0.8255717344638609,-0.27217268023980506,0.11642241039794574,-0.6396435676493081,1.4866586813025215,0.0020502838236433844,-0.21929376350067323,-0.06499718729574358,-0.21344283097273917,undefined,1498460295733
903d185fccf839df,0.5252183356797983,-0.6021676904602304,2.4482825737241454,2.480970026579335,0.3069651413165742,-1.8991812084671378,1.952348819473342,-0.17711479719149031,-0.41888856393195184,2.2855582631119,-0.13339882333766861,-0.04908038672444174,-0.8913978943850268,0.012622869597006767,-0.7812848862451998,0.7871801589074373,-0.32041591090971655,0.005912544041345886,-0.707141802470232,1.3526460161972733,-0.09271290554157788,-0.16387861601959702,-0.06261293629280115,-0.14226891456378735,undefined,1498460297235
903d185fccf839df,0.38938889443301566,-0.5945365247126447,2.2058382112067667,2.1890964684975844,0.069283255465985,-1.929449672451583,2.0128185674548966,0.09466993828845231,-0.3278416634678087,1.7601082572761433,-0.13440363507675895,-0.023583001073203252,-0.9001016599821747,-0.03737219685826869,-0.805495430099163,0.8356746765297351,-0.36715718306149175,0.018090795469347224,-0.670478514039213,1.235417651499337,-0.09921086582062062,-0.19059031981297322,-0.2598041790548949,-0.2636872898350381,undefined,1498460298752
903d185fccf839df,0.23554134932024767,-0.6450198583930726,1.9550998352080058,1.9933859169548798,-0.34202119635594347,-1.9454072895326324,2.111604595897689,0.5507363827758812,-0.404459657183224,0.88842085773757,-0.005419728780308624,0.005454349526709145,-0.9131573083778967,-0.0336688192703404,-0.8086533572127225,0.8902310724504439,-0.3069192401963458,0.02213121705684265,-0.6664343575849418,1.1272743680396193,-0.11521388987294526,-0.1851794865706882,-0.23216487711410214,-0.2663357718048567,undefined,1498460300250
903d185fccf839df,-0.2939163516955449,-0.6350405595830205,2.202648030080655,2.2162261367825966,-0.6377144127132898,-1.9252523831535833,2.0627769894209766,0.17591449805788584,-0.360158825025871,-0.12323946827878891,0.19107955635967688,0.04212370414890897,-0.5998217468805704,-0.02996546758396121,-0.7854954655462574,1.015508797715032,-0.24659092709270544,-0.025182203889056103,-0.6975561714835452,1.0503591315545644,-0.15864117994926732,-0.22026189394810108,-0.22491811857185978,-0.2802428314745125,undefined,1498460301762
903d185fccf839df,-0.03750368449317236,-0.5193984880411379,3.031424963734129,2.973091460899005,-0.5813796511718937,-1.8368857057544974,1.8281272974274174,-1.064649065280092,-0.2975864177656992,0.14097951701483036,0.32491211878715215,0.021579428255279268,-0.5780623328877006,0.17742129439750626,-0.757074357115704,1.0074263310034466,-0.1374898492878909,0.35475642002809377,-0.6512652693960467,1.0030243024310777,0.03933933863552432,-0.17044158728976866,0.3179075008619385,-0.33758863331815875,undefined,1498460303254
903d185fccf839df,0.04704326471962747,-0.4295850764165962,3.2828017317498412,3.344918052577779,-0.4366496068692707,-1.8007289262377928,1.7906315235032522,-1.2195731209247438,-0.2132671811204276,0.6907410136298071,0.7893802832207549,0.14141207221449573,-0.8696384803921569,0.49498234167319466,-0.6907584767096598,1.2680848366573836,0.015014761852819556,0.5278611035025257,-0.5498674861223044,1.1179582973708992,0.18334945210057266,-0.06812473613111693,0.14100947350940674,-0.36188888190253793,undefined,1498460304746
903d185fccf839df,0.32979025359891884,-0.2417401016497982,3.648382307960491,3.779257243622694,-0.02905828787523864,-1.7148312433437773,1.9689691855473481,0.21518111607335214,-0.31091179657682155,0.33351176120882803,1.3046056719425978,0.024464070578904155,-0.843527183600713,0.8079142122916836,-0.5865477654302543,1.399424242367332,0.24679780490920689,0.7204522525960426,-0.5299195790285938,1.269879359874716,0.3361469063950726,0.19022784231929532,0.05389884541797108,-0.417900018106189,undefined,1498460306245
903d185fccf839df,0.3616685594578811,-0.24115305742368448,3.3568109858870248,3.336202721826761,0.016795351982894918,-1.7240759937414694,1.9109004437416042,-0.0358375621304047,-0.20726563315152835,-0.7587643222562472,1.1502594610175267,0.030914879922930544,-0.6476924576648841,0.9097558397345805,-0.5833899413879681,1.5954232121816354,0.17830363806602778,0.8631778018560492,-0.5187526693710162,1.524230879764055,0.45359849710767863,0.1388748612433372,-0.10046633229677013,-0.338115869723844,undefined,1498460307743
903d185fccf839df,0.6111511601691749,-0.45834884055253655,3.1960322613821086,3.127869344260813,0.13173801897445478,-1.7947800491612202,1.7175071429884712,-1.3713422627729337,-0.11006624685285105,0.023156595309756778,0.6384224194612634,0.0005562473352027851,-0.6563962232620321,0.6079340500767781,-0.613916310020115,1.4095273822862568,0.01864219245832019,0.8083155101199392,-0.5260993205468446,1.5511781614759503,0.42343342083372515,0.15157017035967119,-0.3224709737163151,-0.35561149761605443,undefined,1498460309287
903d185fccf839df,0.4171091603973307,-0.6150820496468934,2.819605374307017,3.0383667541133774,-0.3078109683540879,-1.8643148268057417,1.8961603811863241,-0.652660518511085,-0.11258798226321647,0.7679370223420705,0.26445062991251417,-0.0226642225385456,-0.5780623328877006,0.5088697939401458,-0.6686532225062253,1.3731563951430081,-0.09187260833854181,0.592628113940074,-0.5453825325708475,1.509586968214444,0.2975298439265227,0.011907699502052496,-0.44669647705855,-0.3317438309086502,undefined,1498460310756
903d185fccf839df,0.2771215412342618,-0.7242669562094407,2.6709487281526476,2.6907626687908857,-0.444147881728762,-1.9131985706097965,1.8763500422331292,-0.9497968312795232,-0.2600125102628381,0.9762631750321762,0.049144183972942776,-0.11797472382921788,-0.517135973707665,0.3570331259435225,-0.7276006406710552,1.1428071113927953,-0.14520869127103975,0.48579768849675536,-0.5937095058894117,1.5582306568273088,0.22723972971333906,-0.06771572089764019,-0.32870728013410705,-0.3492844868412873,undefined,1498460312259
903d185fccf839df,0.17455655716629614,-0.6643913679450746,2.522291827861329,2.52290006038603,-0.44401416403631605,-1.9002689627872917,1.9056618515418406,-0.7384397523730202,-0.3184167271694552,1.149588849008094,-0.03884918756790577,-0.006384253828787989,-0.669451871657754,0.22278710649093497,-0.7339164212758361,0.9104371826999647,-0.2598200609377325,0.21603962046167713,-0.6382372094766652,1.3509521821228907,0.029283367201560044,-0.3843860307326074,-0.09269002858232267,-0.17637714292509302,undefined,1498460313753
903d185fccf839df,0.08585156805884907,-0.6315184988222845,2.4151057573877686,2.2678667681111757,-0.39668967627744617,-1.909751295219613,1.8088902614561368,-1.3708459512106508,-0.3166957864857419,1.0656949024754536,-0.11499507323728857,-0.06739889165570534,-0.7477857620320856,0.1089095990180803,-0.6970742867633759,0.7952625690895797,-0.36288906222553596,0.1351995956322985,-0.6148538666887726,1.3516605126462289,-0.01267764934200331,-0.34447902309055667,-0.13003811889585282,-0.30347675037824273,undefined,1498460315249
903d185fccf839df,0.5418504262475679,-0.6174301388673712,3.095226299023823,2.9717974718752744,0.10631176379620931,-1.9028614063842393,1.884749643138069,-0.589784434415132,-0.36649496394922626,1.7861823559595615,-0.30092464453984663,-0.026927794186864848,-0.7564895276292335,0.1357587821873585,-0.6528636752852337,1.0660239037505048,-0.19303984056083903,0.12788504478243434,-0.6071713688600142,1.5922304278325226,0.03895749771591489,-0.28763427945980763,-0.1712510922651748,-0.33068996496542596,undefined,1498460316753
903d185fccf839df,0.5598685301135532,-0.542292072967872,3.231122474810694,3.1957249867846316,-0.0690902279588364,-1.8926570094002488,1.863090566622415,-0.7505571324141241,-0.35184959436836766,1.825911635907122,-0.19437050334303202,-0.02911510052118574,-0.7782489416221035,0.14594290866947948,-0.6412847073652999,1.0296530861955853,-0.2003697837640086,0.19052418965462498,-0.6508454619852095,1.4953280062772532,0.049520644696773135,-0.2998294971189487,-0.276022050374882,-0.2674965703332408,undefined,1498460318261
903d185fccf839df,0.41572314709911495,-0.6080378404414444,3.3580867533731302,3.1445969453338996,-0.06387537683762354,-1.8888743253689098,1.9096854704822528,-0.44049133437571963,-0.16735327379370954,1.6209339294453804,0.07279307474150191,0.01896677876490454,-0.7782489416221035,0.22093543064774537,-0.6223373066530868,1.2539404916473873,-0.12771813571894347,0.24869227737576358,-0.6077591000989152,1.5996524740950706,0.1070247374699321,-0.23706212461082818,0.007162126291540551,-0.19437075660378175,undefined,1498460319755
903d185fccf839df,0.09139575927335102,-0.6373886488034984,3.1328688098354673,2.986476360451423,-0.43296732924599807,-1.877666026051432,1.9440438922787344,-0.35766171700823784,-0.1699617176619639,0.22001584852241599,0.06411137417569392,0.08509334909032201,-0.42574643493761144,0.13483298311808736,-0.6454952277684871,1.276167190310083,-0.1999619415348646,0.20886439452220554,-0.6062128061430502,1.4436200257012715,0.0630369611237765,-0.24222220729160152,-0.04969145900879341,-0.24431716695302444,undefined,1498460321244
903d185fccf839df,0.04149921152676446,-0.6549991133611361,2.811949244568688,2.7460076685406514,-0.4717649737138616,-1.9289465564996493,1.9089280868228424,-0.6371129789894472,-0.3115937370511571,-0.16374006421224255,-0.3497717218360021,-0.003128785163954613,-0.5214878565062389,0.17742129439750626,-0.7181269476771825,1.1205804127300998,-0.14096697384204823,0.19005555240938463,-0.6521118847355369,1.3867689660155564,0.03848571661365189,-0.29221167798217723,-0.05770133171675004,-0.3017803980184375,undefined,1498460322753
903d185fccf839df,0.02070894304270871,-0.6150820496468934,3.186461972140722,3.0856167234389535,-0.2387527845982053,-1.8985103865752837,1.912146977261324,-0.43759948465324233,-0.32330124650166076,0.4087736645707393,-0.5221682710099631,-0.04536009614261833,-0.21250417780748662,0.17001466872939514,-0.7107585001604358,0.9346844697758351,-0.32149363612039383,0.19571086964607917,-0.6323249039800198,1.1935030761422296,0.0024456310316942433,-0.25383999281372727,0.03790135049210849,-0.2606617252000273,undefined,1498460324289
903d185fccf839df,0.21613695611276873,-0.658521159507876,2.8176909606670106,2.8794858070451634,-0.3130772366115369,-1.9028474296247357,1.9233367951892244,-0.42885858772094293,-0.32898040830722997,0.484808308126028,-0.449455558691257,-0.024991101871004662,-0.2647267713903743,0.09594786811575312,-0.6654952364947956,0.8821487753271875,-0.3840220502308663,0.10775894715130309,-0.5442840334039016,1.1321094753325682,-0.03150431394838437,-0.22797839237272685,0.11604815410209282,-0.2875150883503197,undefined,1498460325772
903d185fccf839df,0.009620871162392424,-0.614495034648772,2.416382033147773,2.3467722809147618,-0.6133373120964746,-1.8956547394563728,1.9155657154789325,-0.5870234892403514,-0.34141176994968,0.04099925507507813,-0.3695661610658083,0.0004896560467535111,-0.669451871657754,0.0940962699772108,-0.6454952866663574,0.8033449227422792,-0.4730345993924377,0.03868552797602592,-0.5773159770877979,0.7888627292625507,-0.12514496406471592,-0.2758622497944707,-0.19856039966714498,-0.4318429322013255,undefined,1498460327247
903d185fccf839df,-0.2661961547420494,-0.6420847395604772,2.34237252487364,2.310057675584761,-0.7554650807478495,-1.9186513178755573,1.839117245512763,-1.2454688976218915,-0.38152588026753154,-0.33193544107670747,0.03527283249210955,0.2827438993757652,-0.22991170900178254,0.08761539157527266,-0.7128637603620295,0.6800878424203087,-0.5243984141081849,0.07993832249259726,-0.6386010425044789,0.8692888100035154,-0.1074608279228742,-0.25384871199457304,-0.29815992781105605,-0.4531461121444077,undefined,1498460328849
903d185fccf839df,-0.11373441589503874,-0.5287907572390724,2.348115003382811,2.169985568894276,-0.6227795854386899,-1.9086449068081297,1.7116005846371485,-2.0003706247558615,-0.28496736725683586,-0.48212025745133047,0.03425323531227946,0.14440359872302153,0.21398033645276296,0.11261287299981221,-0.7286532781340859,0.7386854716968101,-0.42495910860295255,0.03769125367044885,-0.6558691719071619,0.9325610208345283,-0.12684461556714283,-0.25739436729942505,-0.18995310327358939,-0.4726247810871945,undefined,1498460330250
903d185fccf839df,0.1260460917287448,-0.5105932922973093,2.972089831193602,2.8616267003936007,-0.330007500958685,-1.9005158616632705,1.7569463219657673,-1.5457725385266143,-0.3002488588770867,-0.4312615232812717,0.0456461648276377,0.14168467296805345,-0.4866727941176471,0.29592800442910944,-0.6791794793407907,0.8861898956240941,-0.33846640464640315,0.1722283081452907,-0.6040158067692578,1.063016653388316,-0.027904308794104347,-0.12873003643039108,0.01861975202386529,-0.38780912124951483,undefined,1498460331787
903d185fccf839df,0.0026907701659039268,-0.5769260455410108,2.4093637871524964,2.3626887402611385,-0.2999835499010302,-1.918038729048071,2.0022888237148306,0.027966253851800457,-0.31887626084151877,-0.5185602258808815,-0.08630700657708913,-0.013864267587735407,-0.7347301136363636,0.20334460079286604,-0.7223374533559022,0.9953028005243975,-0.32454713931531476,0.11740401627483814,-0.6210250533559346,1.0798009581035677,-0.0556258299252461,-0.17578350100757034,-0.10312456185191818,-0.34385041748540396,undefined,1498460333242
903d185fccf839df,-0.123436508982549,-0.607450825443323,3.050565033943003,3.105431725252426,-0.5083203469801394,-1.9329901158656613,1.9473206219604178,-0.437730218978587,-0.36627758541942235,-0.12093419048610503,0.09501960398651131,0.04576837829125321,-0.7738970588235294,0.26630134634737046,-0.6612847749894786,0.853860141836638,-0.2779613278335537,0.2576217227564202,-0.568681913634337,1.3508597930387656,0.062400444838907373,-0.09111349345219018,-0.14579556442069802,-0.29446700143172877,undefined,1498460334752
903d185fccf839df,-0.09848826961466546,-0.5739909413224116,3.0346148907232915,3.095788458737027,-0.4778335431826979,-1.9062597662033096,1.8161432647774216,-1.2574511938672017,-0.3281703702957084,0.2747962109931411,0.16752803159636834,0.00972281653018165,-0.678155637254902,0.29963135611548863,-0.6254952484911138,1.0336943760808213,-0.227345332467366,0.25676677781825186,-0.54557144779192,1.5500540846646966,0.11415184116424809,-0.11189715231546758,-0.20400804864358824,-0.3724058138594041,undefined,1498460336237
903d185fccf839df,0.037341102621297736,-0.5657727605767044,2.9401892906172296,3.1551431736104205,-0.35976402384332695,-1.852603411240051,1.8681608299263084,-0.8118100164342917,-0.3637642201418604,0.48515370669715313,0.4435895493754987,0.022529454734744433,-0.7564895276292335,0.3190738100104594,-0.566547786152881,1.01752944265765,-0.2581870129628205,0.3268724658772475,-0.5263092271058724,1.4883371198662412,0.14608080423038403,-0.11326958034262279,-0.26519682779941917,-0.3781064828646705,undefined,1498460337752
903d185fccf839df,0.1329760892090041,-0.6414977245623558,3.144353258579911,3.1425820455727824,-0.23842366271429305,-1.8421521154516598,1.9592099718652054,-0.16022556157423365,-0.4055353287790827,-0.14907069792135433,0.46952950467388793,-0.04789650949368957,-0.9262129567736186,0.32925798829567854,-0.5876004323422201,1.0680446052225658,-0.20717223385371358,0.3486831263936851,-0.5618180412956939,1.5310216083278299,0.15627331173202402,-0.11683442364363977,-0.3501699951657971,-0.37338215650429263,undefined,1498460339245
903d185fccf839df,0.13159007591078836,-0.5675337763430763,2.684984711869302,2.678072130464764,-0.35893088717245825,-1.8608419304066197,1.9268212800647069,-0.41755827018652225,-0.4229570523693022,-0.7831285595469889,0.28294432446580947,-0.011025470404274505,-1.017602495543672,0.507018092195407,-0.6097057159945898,1.051879728328838,-0.1660234231734376,0.3903855611183443,-0.5888117375233393,1.6407509279663797,0.18857950707313076,-0.10834385867497605,-0.2812804147028626,-0.36285686232538317,undefined,1498460340746
903d185fccf839df,-0.03888969779138811,-0.6039287354545947,2.5790746630187966,2.614663078338582,-0.40072166893637473,-1.8871064322385374,1.8735703415433378,-0.8383920574579935,-0.3728364939686082,-0.5471532848437786,0.08600625301402298,-0.05015052253818204,-0.9566761363636364,0.4459129965825431,-0.6844426813804113,1.3024351223285715,-0.11186981503062958,0.38718742312726495,-0.6730533394325151,1.7687736071493279,0.1820423835188928,-0.19787297942502477,-0.05370709626609354,-0.3508074472877335,undefined,1498460342284
903d185fccf839df,-0.0915582031235867,-0.5481622814050705,2.510807887390784,2.535103257571421,-0.42834904630443105,-1.8449495325111267,1.8030705121524582,-1.2981473923241793,-0.2768347198314839,-0.20396718169146844,0.26706092212825167,0.006012289413890462,-0.847879066399287,0.3459229931797376,-0.7728638601632928,1.3509296964803124,-0.1478453129924959,0.35469308798908683,-0.7030626606402922,1.776426633782243,0.15643153004458552,-0.23062862918130547,0.041411862819985934,-0.3195090644002538,undefined,1498460343753
903d185fccf839df,-0.08878617652715519,-0.6097988854358085,2.4195719601369357,2.541668284792778,-0.46732154915234675,-1.8506142417453264,1.8447082281031488,-1.0604441389657335,-0.27196771400627207,-0.1867116503371281,0.26008315028247514,-0.025574209207217865,-0.7651932932263815,0.3829564064373332,-0.7981270120313516,1.389321272036736,-0.12190117951628002,0.3643761561311697,-0.6875017540885995,1.808193623156958,0.16027501259740184,-0.18447920655182828,0.15086548735076658,-0.2758689725729522,undefined,1498460345261
903d185fccf839df,-0.015327471721720323,-0.5458141921845926,2.2817616248470074,2.4004674737393468,-0.24469792705293186,-1.8333429321598127,1.9062930289898778,-0.555154637039138,-0.25378433718954796,-0.18207668202408067,0.36520247380013177,-0.0177868746626378,-0.8348234180035651,0.5116472429510573,-0.7581269651297995,1.3489089950082516,-0.07813373460700254,0.386864439699865,-0.6728574297250491,1.9384336729376999,0.20081562190223554,-0.1937415954023288,0.2500128564679614,-0.33577045776227044,undefined,1498460346743
903d185fccf839df,-0.034731657896740854,-0.5886663455034385,2.3493907708689163,2.3080372789638206,-0.3317457810194729,-1.8706107598557493,1.8789535606252208,-0.7605364259450715,-0.3264696308025003,-0.5739937825841329,0.146398845460701,0.051124765580158014,-0.8609347147950089,0.473688134230387,-0.8170744127435646,1.5307638741950524,-0.07535111772311609,0.34231851082792375,-0.6711711987441983,1.8450421002155253,0.16748715455716845,-0.2324589817587658,0.23590634829546359,-0.3227418980030403,undefined,1498460348266
903d185fccf839df,-0.10957644501121094,-0.5898403754996814,2.406173860163334,2.356474771243331,-0.3724154273776474,-1.8879612634287954,1.8721607725172535,-0.8445488407139372,-0.32004179397284266,-0.7206355851363253,0.1837502460345719,-0.07909363222015986,-0.8783422459893049,0.473688134230387,-0.8402323338589649,1.573196739636712,-0.12963999834765677,0.3408682674511042,-0.6803510135010937,1.7761186568363188,0.1494451002353392,-0.2713809441914778,0.26824731924892675,-0.33774475674657034,undefined,1498460349760
903d185fccf839df,-0.08601421894154317,-0.5663597463468335,2.660102163151257,2.611141962772795,-0.5607054007167263,-1.9012146355392778,1.8657755955659772,-0.9590255242366106,-0.34698596354196326,-0.4501769168338349,0.10947560251752056,-0.01804791520649303,-0.7782489416221035,0.477391434113668,-0.8276007579249355,1.209487150851439,-0.22469348410065132,0.34594728906657923,-0.6998651185590156,1.698679876275496,0.13492299579269956,-0.11547034678914096,0.09334090315883371,-0.18339204331452258,undefined,1498460351248
903d185fccf839df,0.07337748288031704,-0.5282036983989625,2.8151389174209007,2.710361768818762,-0.5779133760291694,-1.8952191727333352,1.9296851370841392,-0.5749779216421232,-0.29819780073506796,0.13955025546844496,0.0523285197087544,-0.08123198623385966,-0.6302849264705882,0.4088797646357912,-0.7854954508217897,1.0437973746761384,-0.20610525774418728,0.33249611817962516,-0.667162025078079,1.5811435438667798,0.11662542432263001,-0.11482217523971387,-0.04879673634590942,-0.2093342874285426,undefined,1498460352751
903d185fccf839df,-0.10541843962197342,-0.4994399781050107,2.1815938003687236,2.163635629265448,-0.6162584551087157,-1.8776473903885542,1.970507622341274,-0.3120536195319136,-0.32349070059023727,0.2454202175195794,-0.07322337452332218,-0.07685492897599115,-0.7216744652406417,0.3311097677450645,-0.7791796407680737,1.0741063704620906,-0.21687045752154446,0.26418898980135513,-0.6615785715522242,1.4741243511921933,0.06161826952678397,-0.16855127713522786,-0.03661796395277843,-0.1808682029059396,undefined,1498460354264
903d185fccf839df,-0.17056109914352352,-0.596297569707009,2.7200756877087358,2.7121069019277773,-0.6621840908910888,-1.8440457870576425,1.8987533693655827,-0.7241947067246483,-0.35304298551060675,-0.01791729686200329,-0.08817190284106834,0.032811387883052635,-0.5432472704991087,0.2209353529430981,-0.8328639157911534,0.8114273894538647,-0.259221723252483,0.2220939136262006,-0.6958629448724106,1.289943545586105,-0.0010381776072993384,-0.1945188988798227,-0.1354550652586574,-0.1844006220810479,undefined,1498460355746
903d185fccf839df,-0.22877365766858512,-0.5622506705879762,2.950397717738618,2.8969063357916145,-0.762788486212419,-1.861836516407506,1.8555062058387273,-1.067150262140341,-0.36436385056975146,-0.3847020477863515,0.03215425665598945,0.11134406041083057,-0.33870877896613194,0.032065245787330235,-0.8360218281802452,0.7649534037152985,-0.24198501148881071,0.1709237271349237,-0.717741972471546,1.2505543235076597,-0.0415089096242283,-0.22002646837309345,-0.10533740492468213,-0.16769099409143196,undefined,1498460357237
903d185fccf839df,-0.18442130113650052,-0.6362146188072556,3.1430769828199066,3.1581274601077722,-0.6817886216483787,-1.8771256430629968,1.9368329518022642,-0.5753125163931243,-0.30224975166898577,0.15895228129837805,0.3294293760092759,0.0502648618239089,-0.9305648395721926,0.14131370611073094,-0.7844428280832267,0.8437571997707638,-0.20802154144606613,0.22102364473840835,-0.7038463063396159,1.2028037445018207,-0.017926767559083446,-0.2833322896944449,-0.13446442780873244,-0.28074076572221357,undefined,1498460358745
903d185fccf839df,-0.1123485061130522,-0.6203651846299858,3.031424963734129,3.148670724802487,-0.6499235360682044,-1.8675547991652908,2.0268669927467595,0.021258756077572598,-0.3424767106555417,0.5909937336053864,0.434253811734102,-0.0011378711757558332,-0.9131573083778967,0.20149297675277464,-0.7897059859494446,0.8619426085482236,-0.1611310913091951,0.24771066860873134,-0.7106122220597537,1.0900101319712538,-0.02639909314320759,-0.30878541670460286,-0.07114354868338683,-0.26813665214006666,undefined,1498460360296
903d185fccf839df,-0.026415509096626873,-0.6385626787997412,3.183271536877661,3.275224225700343,-0.37346456973589964,-1.842888155350749,1.9604433508681174,-0.24435584943071606,-0.35800161467049035,0.9531535349145779,0.24381899761563894,0.029711678197623187,-0.852230949197861,0.14501710960020833,-0.8012849244204434,0.8094067445112467,-0.18193602903420766,0.2470773745399722,-0.7397749286559708,1.1935338765467847,-0.012783220750791436,-0.3218495040299158,-0.14175945933146833,-0.33633759114858935,undefined,1498460361757
903d185fccf839df,0.45037347955450874,-0.5980585854733808,3.0582214178182814,3.150591424186912,-0.22600881615219529,-1.840980509030677,1.8934937556293987,-0.6202631161880987,-0.42583923090753767,1.7114872158938605,0.03456465053871362,0.016521146798003428,-0.8000083556149733,0.21260292820571583,-0.7612848775188913,1.0195500876002679,-0.20727879008334352,0.2612758372987779,-0.7186585545556984,1.2517400022857825,0.019393640047870465,-0.32263871205982575,-0.2749030407563513,-0.4008901564155204,undefined,1498460363245
903d185fccf839df,0.485023881020722,-0.5546194463844057,3.1405249395737966,3.2146459176313593,0.029487901788276663,-1.8506328775563439,1.921685286994229,-0.3719100280081936,-0.3722792504666199,2.2950605713747496,0.07340954369310607,0.07489269647684373,-0.8696384803921569,0.1857537968395358,-0.6897058392466292,0.9690349250353522,-0.17941791835265578,0.3565739754227086,-0.6571705807366199,1.3704928120059163,0.1054599342630942,-0.30713010604718066,-0.41204556269753095,-0.4595329987816845,undefined,1498460364744
903d185fccf839df,0.48779597662797297,-0.48417755892586223,2.6626544605343163,2.769801805376019,-0.12718383883854567,-1.874381799909469,1.9584578612995656,-0.27609862795947665,-0.31269082340573623,2.3148899905524503,0.22146671662255799,0.03503829711791379,-0.9001016599821747,0.26167209198552377,-0.6791794940652582,0.7285824731014928,-0.0787170347854625,0.2850117130640993,-0.6278119624999454,1.3382946615949827,0.07274511146640872,-0.2572943175706356,-0.45456847282517965,-0.4361778651177257,undefined,1498460366249
903d185fccf839df,0.3311761978863151,-0.5287907572390724,2.4814593900605217,2.5645989098888937,-0.17737804324701748,-1.8801024092413177,1.8739569268425809,-0.9036192772101633,-0.2806632850821515,1.949156197369045,0.2759308829697616,0.022771014468964172,-0.8000083556149733,0.08483786485971373,-0.7328637838128056,0.8134480343964826,-0.2766137861054592,0.2539042958855863,-0.6510063896875076,1.403599465609428,0.058060421753555684,-0.2817945231895865,-0.5144836782654197,-0.44233187968239057,undefined,1498460367752
903d185fccf839df,0.5376925243745595,-0.5634246713562265,2.6352201227071106,2.618143637810548,-0.17567062546869694,-1.883384306131831,1.8491210315062554,-1.0030677418443645,-0.4654221635628589,2.2479243540253298,-0.030042712731623858,-0.10987389719236627,-0.7869527072192514,0.287595527888629,-0.6739163214745728,0.8134479778670396,-0.13516441589375217,0.38799804342821725,-0.6143640906247501,1.4573092451973366,0.12608790304507778,-0.20226611243969297,-0.16547573021405312,-0.29601565708664407,undefined,1498460369244
903d185fccf839df,0.5210603647959705,-0.4724373174194192,2.886596382448924,2.935684860240867,-0.10860788228627476,-1.83087160776815,1.9268396949740836,-0.39793021958132746,-0.48482703154473633,2.1125137722164165,0.20757150572164965,-0.20445585966935226,0.35324058600713015,0.4098056414097096,-0.6823373622809473,0.8215304445786251,-0.0748434225865104,0.46464565887322584,-0.6214308670226771,1.4877519709426703,0.16982067440387247,-0.11249398873487214,-0.1313852076531731,-0.2741752063052153,undefined,1498460370747
903d185fccf839df,0.31592998259512234,-0.46304496053750765,3.2113440125848682,3.3274917412337253,-0.3206166666584116,-1.805836944768772,1.8759608454620538,-0.7517119957456374,-0.3671654006468822,1.886605685549385,0.39205707012412516,-0.13486363748674937,0.022497493315508033,0.3977697095766536,-0.719179555691278,0.8841693072109192,-0.04440749068834988,0.44202438204223543,-0.6462205672491653,1.4650854624228418,0.14328634805588317,-0.07092944986889468,0.028937609703682685,-0.24741065250740987,undefined,1498460372243
903d185fccf839df,0.22168111282186093,-0.5041360396339971,3.398281815704783,3.5238164113578994,-0.43128047239702905,-1.7902589932657145,1.906174687310253,-0.6195775893560713,-0.17786473705227548,1.826102544556517,0.7698089984636333,-0.014136591812420716,-0.6650999888591801,0.4912789640852664,-0.7170742807652167,0.9367051712478961,0.04809750878280688,0.6372310365699987,-0.6593395867620783,1.4880907412389,0.2479723749516741,-0.0186780963317577,0.21932500451304546,-0.2783592092360574,undefined,1498460373753
903d185fccf839df,0.2577174930808802,-0.4636320339916137,3.4346485590303226,3.552195806392592,-0.46684840972726455,-1.7581737220371694,1.8691443849328262,-0.814924351233103,0.06286881788877442,1.9623373444524468,0.9746899075453782,0.08092523483625416,-0.499728442513369,0.5949723968790983,-0.7065479355838459,1.0357148514351098,0.1665229206229202,0.76730969830839,-0.660032271503766,1.5443720618490666,0.32603458743830416,0.0009552438597711569,0.3737945116690445,-0.3047460541813207,undefined,1498460375293
903d185fccf839df,0.21336499852715668,-0.5311388464595502,3.7517400594279375,3.8711490516937013,-0.4877180913769315,-1.7352749714037388,1.8796320414077268,-0.6964115243902121,0.01339614377919502,1.9621386239237542,0.9897866517723384,0.06356302527651687,-0.843527183600713,0.5440515054530026,-0.6928637221867858,1.084209482116294,0.12845858125024046,0.8279413032350402,-0.6600952436091081,1.4165341697194935,0.34086937428518016,-0.027360876102224454,0.42150497550394933,-0.37919306407646214,undefined,1498460376743
903d185fccf839df,0.21197901973435068,-0.5464012364107064,3.3600009128761874,3.638138223370116,-0.4355181830477823,-1.7276117766756411,1.8351541319549287,-0.9687311592149097,-0.07995083939155978,1.6037010392469757,0.8978487831233132,0.044096547460397616,-0.7913045900178254,0.5459032071977412,-0.6644426726541028,0.9892409222259868,0.2350986166461256,0.8997885460659326,-0.6900276028028458,1.4100360254449897,0.3680743941639442,0.03156974429329639,0.6731591662554404,-0.3134370861220844,undefined,1498460378259
903d185fccf839df,0.19950486554499916,-0.4695022132008199,3.046737477347737,3.283193406592764,-0.4518518711531851,-1.7492038243783101,1.8319089429580497,-1.0432385289070014,0.022429201120080757,1.4215836520183551,0.9688143617819769,0.08889151274084181,-0.8348234180035651,0.5097955671078678,-0.6054952544892729,1.247878839466749,0.2673694584641954,0.9575323282327587,-0.6303797887089511,1.6086605762587347,0.4290713505249248,0.023936396877899863,0.9122926585917184,-0.16300669666389442,undefined,1498460379761
903d185fccf839df,0.4462155431760907,-0.4571748397842861,2.6817947848801396,2.860331047343711,-0.3357366343431471,-1.7870958875268381,1.8654100519679488,-0.8563482833789565,0.10271958125022425,1.959651572089651,0.9161130021337668,0.2352219550772282,-0.07324392825311943,0.5977499235946572,-0.581284695910842,1.3509296399508695,0.39201990093531897,0.8991109209097417,-0.6079200261434897,1.801094951222258,0.4269748756007066,0.059400622723827026,0.9920941713155754,-0.045474962013759675,undefined,1498460381263
903d185fccf839df,0.5875887960778682,-0.40199542996087567,3.0741720693118917,3.3017359908028547,-0.3079035396494397,-1.7747183100014905,2.0520026736314407,0.35553845570975595,0.10428392849637616,2.1145549107006048,1.0038823454907753,0.15690855737530437,0.21398033645276296,0.6357090582168766,-0.5960215025975298,1.2923321802626972,0.3754590965880962,0.8379980136920693,-0.5625247171511398,1.859609035127259,0.40984155708963227,0.08333641856200857,0.8751860236763309,0.12148817403013336,undefined,1498460382752
903d185fccf839df,0.45175942384190504,-0.48417761738184695,3.3357565020381443,3.461006498715803,-0.2135528442544893,-1.810525703783203,1.9669836851762277,-0.18366438548646594,-0.1971665755194033,2.3805975707957936,0.5233642860373203,0.11117861999319961,-0.6607481060606061,0.6421898848157166,-0.6423373742772656,1.0559209051551877,0.3055141670104511,0.7555810856157232,-0.5695075341063277,1.973080178207402,0.38064609289766527,0.08484035269210118,0.7774268711025104,0.12146283500867168,undefined,1498460384247
903d185fccf839df,0.26880559946660626,-0.5193984880411379,2.9153069960361337,2.929471286070253,-0.22167854151799476,-1.837905911344084,1.8347517785720022,-1.0569587217192902,-0.2822105923081726,2.2059373702345906,0.265963095396194,-0.09401077348118121,-0.6607481060606061,0.5801590937397779,-0.6970742867633759,1.0357147949056669,0.24558993354213582,0.6847787778382743,-0.5852713485710531,1.9643954535756163,0.3401844072439754,0.05366691187219578,0.6417614318394315,0.08654751845356837,undefined,1498460385754
903d185fccf839df,0.18564473256284164,-0.4783074381726407,2.983574279938045,3.102221212713074,-0.19867972049934338,-1.821298435518705,1.8720240228680842,-0.7627308491979627,-0.2790217105571323,2.1602574990685834,0.17447444805165022,-0.13772433202279186,0.048608790106951884,0.46257813097434763,-0.756021734377141,0.9003341841046473,0.20790605033199602,0.5713240909553208,-0.61104760125989,1.7894075166700063,0.2591805813570263,0.02945512604527341,0.41007393537626713,0.056924602827125345,undefined,1498460387255
903d185fccf839df,0.1302041316233921,-0.4970919473405174,3.194755985622104,3.314892329822721,-0.12494155251902257,-1.8246362350873055,1.8726656947822737,-0.6152990753484491,-0.28796455272630306,1.1530350511083083,-0.04906715745922336,-0.11997434215905191,-0.36482007575757575,0.60793399827368,-0.7676007022970749,1.0114676208886824,0.18518775662444553,0.5918238320585616,-0.6400983606009745,1.7610743769142159,0.2731676824632305,-0.06275461232565455,0.1590860592873955,0.0016965368163686689,undefined,1498460388729
903d185fccf839df,-0.047205708569863156,-0.6180171246375002,3.55650849696359,3.542713916421764,-0.41258106967765973,-1.844206504392884,1.935449674394745,-0.2250517508029537,-0.31697950817706716,-0.40812249403798256,-0.13818041042988302,-0.049144369993718864,-0.8000083556149733,0.5662715119650814,-0.6486531843309816,0.8922517739225048,0.06424834122681244,0.6020198704268561,-0.5724322013219295,1.4597114056486655,0.27269518242172197,-0.10512834589882583,-0.2839403534185383,-0.41452487366468804,undefined,1498460390283
903d185fccf839df,-0.041661655377000145,-0.6561731579713751,3.385521345337285,3.4024316544323985,-0.4951135063312736,-1.8641168421748675,1.816955864489052,-0.9965362385796752,-0.29191953595832454,-1.0628509086966926,-0.17807521370649787,0.050374419176000454,-0.847879066399287,0.3968439364089315,-0.665495324841601,0.9548905234959129,-0.06592323959144862,0.5358152761049938,-0.5692276625827027,1.4087579480110393,0.2370673836022853,-0.13285205876336248,-0.4184342722828357,-0.4764896647184021,undefined,1498460391766
903d185fccf839df,0.08030751486598606,-0.632692499590535,3.4486842886100275,3.444090229772419,-0.38627026473136117,-1.853693496953563,1.9012464093003956,-0.5037658824005378,-0.2744670302218419,-0.7256421637904283,0.2534278810159637,-0.028938523179656176,-0.7956564728163993,0.3940664614964708,-0.637074172237645,0.9710553438601978,-0.1299225451662107,0.5280574200503587,-0.6002865064924671,1.4326563323281187,0.23257440211392977,-0.19645978676204068,-0.555605233251646,-0.5568643047982496,undefined,1498460393246
903d185fccf839df,0.19811871422514446,-0.6250613338429493,3.4754809968311293,3.6518279925469415,-0.22098939622148095,-1.8225748600362184,1.8949296293680717,-0.5311560483148045,-0.30180442579381433,0.18034581917194378,0.3980313276564312,-0.0918509802061989,-0.5780623328877006,0.3996214631244905,-0.6539163569216672,1.0458179630893134,-0.0965090958711679,0.5939960318229567,-0.6401263473245311,1.5178251395168398,0.2773697405183203,-0.25026647266820445,-0.43094562027234146,-0.7049107812286435,undefined,1498460394751
903d185fccf839df,0.4864099633297572,-0.5434661906480918,3.375951310232848,3.538809344362891,-0.03312113737521769,-1.787783012779441,1.9463239345005199,-0.1335424384144845,-0.33095991895731247,0.7575947216311557,0.7454472274993856,-0.03081529776683912,-0.6999150512477719,0.5579390872276991,-0.7054953128452828,1.2276724465700128,-0.08419273420183976,0.6842278128512108,-0.6374675591424572,1.6797859873073393,0.3486655690896176,-0.21800310633871137,-0.49352137966453846,-0.7994345690189697,undefined,1498460396250
903d185fccf839df,0.28543762102355635,-0.5599025813674983,3.434648304893373,3.5372563647042345,-0.2781675815391507,-1.8206229565487195,1.9033318637428014,-0.5543374908684965,-0.26372081822289595,1.011896864911514,0.5741130601221341,-0.09653381073428292,-0.9262129567736186,0.46350400774826606,-0.8086533719371901,1.0640034849256592,-0.06235800668657321,0.5921151484532479,-0.7064701090297969,1.7912245378502405,0.281640729736249,-0.2512764311946667,-0.19860606745472095,-0.5741597964443922,undefined,1498460397747
903d185fccf839df,-0.008397370725231825,-0.44367352405548655,2.7411299174206665,2.763180951791595,-0.6122778803762293,-1.7788923064370703,1.8372185344827827,-1.0496892736859018,-0.28900622270286147,0.790533180108258,0.4713335180813446,-0.10595442954612254,-0.4779690285204991,0.5357190289125221,-0.8139165003544727,1.130683354795974,-0.0062603396537557225,0.4999201543424092,-0.7789850564785484,1.6803865297087643,0.2061171431896966,-0.2086051710724789,-0.175349642084007,-0.44863603213604464,undefined,1498460399234
903d185fccf839df,-0.23154578778124582,-0.3861460250115982,1.7152072617997876,1.6315702300295654,-0.9530121701886243,-1.7081323471754073,1.8591616431284128,-0.8704369987501165,-0.5165939768482211,-0.005664090411577318,-0.02973176713816493,-0.10747459223469664,-0.7521376448306596,0.5227573757148423,-0.8454955285363517,1.1145185626964105,-0.08258046288544549,0.18384293785098263,-0.8300617760373357,1.1514807216829563,-0.0535710333408204,-0.20078845171976775,0.060547453648809646,-0.4333905314113627,undefined,1498460400758
903d185fccf839df,-0.4560800456084269,-0.37205763582869256,1.3879075884177334,1.279312543095747,-1.0389388841002125,-1.7192288435504355,1.8872427075587035,-0.6953244064199482,-0.5620593187844938,-0.7799375938525304,-0.19728491205331447,0.020585057577942337,-0.8043602384135473,0.4144346885591636,-0.8076007050252243,0.8740661390272727,-0.11037380733451525,0.053441289601268815,-0.8243034000007194,0.8312700455984083,-0.1798812222161351,-0.2219105053580748,-0.04732640801395612,-0.3599613353047912,undefined,1498460402258
903d185fccf839df,-0.3382688807546782,-0.3133561067885615,1.3119839206405435,1.154746549197452,-0.8647711799048029,-1.640787055599817,1.8792428401846837,-0.5070756462673118,-0.2034529676578163,-0.7852093043368492,-0.276754068880723,0.1021520867765414,-0.691211285650624,0.17742122964363352,-0.871811317867441,0.708376362851972,-0.24075963493858607,-0.086459769674297,-0.8538439352834851,0.5098275000169704,-0.3056104575628352,-0.2944654816800322,-0.30940058030995543,-0.40389089418391494,undefined,1498460403753
903d185fccf839df,-0.09710232532726917,-0.18949576681699473,1.6488541374009333,1.351486414874838,-0.5203648966197713,-1.6698186940212136,1.7571567158669656,-1.175995745473332,0.06166837062660541,-0.876386136632041,-0.262685400525496,0.043758804830435115,-0.5432472704991087,0.07650537536845872,-0.8570744449206491,0.5851192825300016,-0.24520863477226754,-0.11037929777216983,-0.8425370884174099,0.3211965426537695,-0.3486098723338834,-0.28894064501103095,-0.2587775463485111,-0.4703504513469083,undefined,1498460405253
903d185fccf839df,0.10802784984112057,-0.19360490103183678,2.0374031028265716,1.7731359954581398,-0.3391823446214951,-1.667615234019211,1.745761764888726,-1.2094506877532611,0.013751705454847473,-0.501577507002823,-0.2527658634685616,0.11763150227030107,-0.7042669340463459,0.08668954070290331,-0.8970745065466688,0.6295727646495575,-0.22118582564538736,-0.1262623208694154,-0.8679704962722186,0.35260936943908383,-0.357927228853117,-0.3141370093542534,-0.1795899233206776,-0.493148150537174,undefined,1498460406753
903d185fccf839df,-0.2939163516955449,-0.4976789331106465,2.341734641130587,2.3860335021422223,-0.5877464964523967,-1.8024548913579583,1.7921568047328482,-1.3200873890723184,-0.15601557105001657,-0.25466150829270534,0.09487687530738517,-0.02789221397362545,-0.8174158868092692,0.14686865593565246,-0.8591797198467104,0.6901909823392337,-0.23852873610621894,0.025544671716830673,-0.8503385313948975,0.6026185286280071,-0.24052342387788164,-0.3308903050471819,-0.1811589566880698,-0.4860950287660674,undefined,1498460408344
903d185fccf839df,-0.35351499252964175,-0.5293777722371937,2.5714190415543663,2.4481109420622906,-0.6957154616000699,-1.8446094644306668,1.816495663548219,-1.328620871583896,-0.28242667345316913,0.006947312789562937,0.18417865899458574,0.008011488231772307,-0.8043602384135473,0.09409616637101442,-0.9128639801453224,0.6295727646495575,-0.274462217613324,0.06382731677264829,-0.8380101509910989,0.6831678000827224,-0.2131932623267485,-0.3332379131128524,-0.11523449698725396,-0.44722954862384917,undefined,1498460409745
903d185fccf839df,-0.31886466007424796,-0.5869053005090744,2.2045621895837115,2.224130637060658,-0.8075929888056275,-1.858985527993544,1.9582448440764446,-0.4945596294888681,-0.24668850446241114,0.3930738589087902,0.29221220743455356,-0.061939340203662985,-0.7260263480392157,0.15427535930841083,-0.9118114015801622,0.7063558592329617,-0.3557066577751865,0.04623440297410281,-0.8307754504714889,0.7607297660127588,-0.2067438695488574,-0.3062609327705825,-0.014649806600246017,-0.39672456214292207,undefined,1498460411261
903d185fccf839df,-0.20382538379529183,-0.596884555477138,2.2970736301867167,2.203345688962956,-0.6592218079674428,-1.8592277688939467,1.9227713769693222,-0.6539830095783005,-0.27024533661923683,0.8092941627372061,0.1363216227615761,-0.007746794233339241,-0.7564895276292335,0.16168208858271832,-0.8897060811166235,0.6376551465669784,-0.3964128684638112,0.07389669826613143,-0.7991148815848459,0.9667917656943515,-0.15139774595233604,-0.29774748134227175,0.005461946789149185,-0.3408318939121823,undefined,1498460412770
903d185fccf839df,-0.13175272679348246,-0.5569675063768913,2.008692743376311,2.0035096875812184,-0.6062401841127054,-1.8376729874820978,1.9831227879851006,-0.14808852890230406,-0.18750315938667,0.6813913120674071,0.00030181530381027293,-0.001524885083211509,-0.6259330436720143,0.08206033814415478,-0.7907586086880076,0.6113872710779331,-0.49639270526469736,0.018141462589915894,-0.7087790574387866,0.9411687499408165,-0.15072717453725612,-0.3317497552176869,-0.13570704916165746,-0.3935642240859131,undefined,1498460414246
903d185fccf839df,0.11495791633219933,-0.4477825998143439,1.9774300865429917,1.9440401672707555,-0.3797079890265594,-1.7610782856164844,1.994970060969,0.1618852203058336,-0.13441658044185742,0.13386611110836713,-0.16953557390559598,-0.03555233648876528,-0.6476924576648841,0.06446950828927545,-0.7318111610742425,0.45175926014215695,-0.5476542718645709,-0.040685249352448355,-0.6539380549924518,0.7430677516975561,-0.18867283969267012,-0.29367095726694364,-0.22309520032815702,-0.488919957714173,undefined,1498460415759
903d185fccf839df,0.256331410771845,-0.39671226574979085,1.9582900163341177,1.7523061616879128,-0.38445998312687074,-1.6888066513115587,1.9131883537686434,-0.20076296805198496,-0.15981233202688777,0.2213270602744901,-0.3264693188563368,0.02570708934536671,-0.44315396613190733,0.08113456497643272,-0.6949690118373146,0.34264627044768897,-0.5030504811511263,-0.10450232272308731,-0.6521538680231532,0.5537438612198659,-0.2398303186663899,-0.21844398799207343,-0.24127495519724532,-0.46913148485981043,undefined,1498460417259
903d185fccf839df,0.027638940522968,-0.4659800647561069,2.027833321859084,2.0424698784561945,-0.33507835051088763,-1.7289836988472285,1.9127044777877462,-0.31196571615711194,-0.22277901418720183,0.4900525904176482,-0.20830963145240958,-0.04526922732310134,-0.43445020053475936,0.1116871127828647,-0.6718110907219144,0.3325433283818147,-0.4163549122338121,-0.11915042241781133,-0.6195137456137755,0.6357405846618086,-0.21929167375870645,-0.2169054052285345,-0.45089147808755,-0.5360514802647204,undefined,1498460418760
903d185fccf839df,0.45037347955450874,-0.37851483003602016,1.805166913293632,1.8674374684290198,0.04183073457748649,-1.6391379554177843,1.8275460961311767,-0.5685172072084311,-0.05354586668937063,0.2826651109153387,-0.10372972251413527,0.07577514215838857,-0.41704266934046347,0.012622830744683126,-0.662337383003574,0.31233724639701543,-0.4230187059899105,-0.24045795645985799,-0.6425962235642771,0.22939100493920628,-0.3475036766319373,-0.22803195926924066,-0.5126070487411712,-0.543565153000586,undefined,1498460420241
903d185fccf839df,0.4351274712957744,-0.44191244983313,1.5282702210907209,1.6642516215018641,0.18774363379346937,-1.6452964636325493,1.816721824027288,-0.6562012015582781,-0.1532142310419944,-0.01463187888235484,-0.02450051643107717,0.07860580481814416,-0.852230949197861,0.014474506587872723,-0.7191795704157455,0.2052450712334946,-0.3407019034314022,-0.19437945959195396,-0.7196451046385104,0.194806100747861,-0.36049994551754383,-0.23465184299520037,-0.4540524008373724,-0.5337232298861387,undefined,1498460421747
903d185fccf839df,0.2992978920273528,-0.38144978811465774,1.5263560615876637,1.6546097783095628,-0.04416798137193344,-1.710116859871518,1.8601898847599587,-0.5386826139503724,-0.19652474152581997,-0.06292777272842327,-0.1877989358523858,-0.10272907463032246,-0.691211285650624,-0.08181220988242625,-0.7528638146258154,0.36285243722665284,-0.422726746340097,-0.20268828167454556,-0.7829452515754401,0.38251314914954127,-0.3586523227187799,-0.29850972932470254,-0.36656354143344594,-0.47955628389849525,undefined,1498460423243
903d185fccf839df,-0.13591069767731023,-0.5282037130129587,2.020176937983805,1.8644143655884753,-0.49776722937063766,-1.8828788615191938,1.9126808116516167,-0.5876584544595953,-0.5095885592656416,-0.611185483191234,-0.24579977168036093,-0.1013915495142031,-0.3778757241532977,-0.11699388254295949,-0.8139165445278755,0.5042949545908045,-0.44840746087796124,-0.15132177558473264,-0.8126537115365413,0.5436886806379175,-0.3185788262419509,-0.3398407117938637,-0.33147467556246113,-0.4999296603359826,undefined,1498460424803
903d185fccf839df,-0.21352761490444105,-0.6414977684043442,2.008692489239362,2.0888411651729966,-0.7163794299011219,-1.927856471349702,1.9868465928321886,-0.2410924717796475,-0.41039418483408713,-0.7894571760711693,-0.19762831706304293,-0.08364212882466823,-0.678155637254902,-0.10495806726687439,-0.8823376409621106,0.46590343556382396,-0.4365318497315551,-0.12973277087087345,-0.8367437310362684,0.4401957302069682,-0.3365906282192787,-0.35666055547925346,-0.30227057660009066,-0.5282718178605542,undefined,1498460426288
903d185fccf839df,-0.2731261522223087,-0.6955031628455081,2.3200425276756036,2.254292025306896,-0.8363826568628341,-1.9303301240817785,1.9906913681148435,-0.27556532713936943,-0.3305310859427788,-0.8801607697325616,-0.06706024393570874,0.03850659236917897,-0.8043602384135473,-0.12625219700503473,-0.8918113339559833,0.5346042330239719,-0.5123472526092061,-0.0967571327883468,-0.8683273350460874,0.5794900692083924,-0.30658737269870373,-0.3922887474207676,-0.3309234583851787,-0.4810231487436023,undefined,1498460427755
903d185fccf839df,-0.3299528009653837,-0.6743706229131381,2.338544714141425,2.4036388924659415,-0.932811060786963,-1.927667804563178,1.947680898946217,-0.6091377353373176,-0.23795340418944508,-0.8461004958693368,0.0362860825829971,-0.005787590102899674,-0.7434338792335116,0.008919517910627573,-0.9107587273059625,0.5507689968588138,-0.44638054744359856,-0.011674031741936262,-0.8671658638227357,0.8599573538131658,-0.23211718366189552,-0.35556452617083034,-0.24092357513492207,-0.3608365968816357,undefined,1498460429252
903d185fccf839df,-0.19689538631503256,-0.6773056686757527,2.4093640412894457,2.406962881114281,-0.8034375709270565,-1.8787421339589498,1.8956712334210588,-0.8686915815559384,-0.1751732997617578,-0.36207248493553806,0.1885212702030428,0.1338295312085902,-0.517135973707665,0.061692033376814684,-0.9149692624336174,0.4335737948352541,-0.33957487006465786,0.07225647060414621,-0.8606798207089428,0.8952197908426802,-0.18315294624508605,-0.3164886263324356,-0.24453668205791823,-0.34736181393606524,undefined,1498460430751
903d185fccf839df,-0.2745121310151147,-0.65499909874714,2.1120507489807068,2.149201110299428,-0.7590136473924249,-1.8678296496987907,1.887061257928604,-0.9230443300167712,-0.17528731929153527,-0.1041732303704597,0.27813833530949694,0.06076427046273984,-0.4083389037433155,0.07280203663285408,-0.8770745125448279,0.4982332458807231,-0.4126395288563532,0.0416493498359847,-0.8075110543065372,0.8612354212176957,-0.18862825532323388,-0.38376013667230185,-0.32399941945914923,-0.36203752894242736,undefined,1498460432249
903d185fccf839df,-0.21214146358458635,-0.5827961662942324,1.8759859863047037,1.887219660874917,-0.7454879557328247,-1.8579047611382553,1.8554089052056162,-1.1165902408304744,-0.14152807060182546,0.09516201597653345,0.40382905219759824,0.11308478468750122,-0.7303782308377896,0.1163161987846423,-0.8718113252296749,0.48206836898699507,-0.3467327218374049,0.07498596654415926,-0.7786422110205801,0.98128170281892,-0.13976319014772173,-0.343590928497939,-0.30064003700634945,-0.3369934878017629,undefined,1498460433742
903d185fccf839df,-0.30777648467770247,-0.5657727313487121,1.9436156406005116,1.8994444987862074,-0.5654573997503225,-1.849510183497235,1.9075448143910516,-0.7195188193280706,-0.1779218505734774,-0.05739764506759109,0.42903179967393,0.005471574500995897,-0.9305648395721926,0.14223958288464938,-0.8181270354821276,0.5346041199650857,-0.3824735495414965,0.1353009230522634,-0.7765221777164387,1.262272536076646,-0.056448110825909205,-0.37996942039011167,-0.20427090019565888,-0.3794669609821207,undefined,1498460435249
903d185fccf839df,-0.045819695271647407,-0.48652564814634014,2.13119107332653,2.1252741577589505,-0.4814026811113215,-1.8421358112301613,1.8950453422917548,-0.7563727337317102,-0.17095457977601938,0.2023857804457194,0.4768414266804179,-0.02812503411822405,-0.9523242535650625,0.1857537191348885,-0.8023375471590064,0.4962125444086621,-0.30069757626564736,0.19169578450623917,-0.7709177332257695,1.3854601004008278,-0.0005622529299106196,-0.34073178902848716,-0.16362726693810808,-0.3124098797413913,undefined,1498460436758
903d185fccf839df,0.04288515581416075,-0.5657727313487121,2.022728981229915,2.058789649606207,-0.35872516913062075,-1.8490932493537777,1.9965479582362538,-0.06449752089249386,-0.30440764177411855,0.3124248430574223,0.2394237021098027,-0.0649041421703717,-0.9479723707664884,0.12001960227411969,-0.7749691277271202,0.8356746200002921,-0.369482067828572,0.12042483547500342,-0.7744791094726333,1.3399576991015676,-0.03636978747539954,-0.38920126790556286,-0.10590716241112887,-0.28576513267787595,undefined,1498460438255
903d185fccf839df,-0.13036657547362776,-0.6356276038091342,2.443816625111928,2.402036263168723,-0.4821226790277861,-1.8600709545191811,1.8473327635796932,-1.064485369780363,-0.3668289104818155,0.5075596535497267,0.03807472502068826,-0.05706088821752838,-0.5606548016934046,0.2311197125391609,-0.768653288224469,1.0013644527050358,-0.2300475484344174,0.19672414110507835,-0.7559935368798147,1.4462069736098442,0.017258251437704673,-0.3999566585136781,-0.03157601953657431,-0.27980031815211287,undefined,1498460439752
903d185fccf839df,-0.1262086390952097,-0.5921884062641746,2.513359930636894,2.446080637886308,-0.7381131098819628,-1.8908728126567924,1.76671606402758,-1.706475610217235,-0.3590362293600348,0.3227213863565828,-0.07342915110017592,-0.08538976174938369,-0.3909313725490196,0.23204545980533386,-0.7328638132617407,0.9750966902748767,-0.17484698010732153,0.19510290472211317,-0.7965890345405573,1.2876183823565246,-0.01855773260165752,-0.36545378844907506,0.03863230161271922,-0.2307103560289182,undefined,1498460441251
903d185fccf839df,-0.13729674548093573,-0.6309314545961708,1.9161810486363569,1.9413272497670704,-0.6826937703736875,-1.861596605361078,1.8558454567706684,-1.1037523553067554,-0.3096289573796286,0.5183538447031258,0.08655752963389239,-0.10058827525059247,-0.7651932932263815,0.15242373526831943,-0.7760217283789819,0.8579013751924308,-0.24745619377497635,0.15012633732449907,-0.7946859026977973,1.17470157784675,-0.054784339321910534,-0.3783178230758805,-0.1678110902811238,-0.3039024559816943,undefined,1498460442751
903d185fccf839df,-0.041661724387819614,-0.5769260455410108,1.4778674940485275,1.3769861680259148,-0.5153454756567879,-1.7817269917734253,1.7988601847606605,-1.2805599512901846,-0.18482929600100567,0.5886316692346557,-0.026926538508323782,-0.09769334654865826,-0.6825075200534759,0.05706290852271343,-0.7560217196526734,0.6740260771807842,-0.2514409475256354,0.04883723687913179,-0.8010460039192722,0.7719244420044846,-0.17543434598297167,-0.3557295271532911,-0.16221916386672913,-0.3114560887341733,undefined,1498460444291
903d185fccf839df,-0.16224495034340955,-0.4665670505262359,1.1033542582025941,1.1860962544577314,-0.48392266962585545,-1.719825129924585,1.8646868497303153,-0.6966817581760099,-0.31500665821796875,0.555487824717314,-0.16885128092490959,-0.014685109103364777,-0.3038937165775401,0.03576867517835671,-0.7728638454388252,0.4396355318100571,-0.27145493035677776,-0.00545508904568282,-0.8261295711629594,0.6437323839603201,-0.23097290124366182,-0.40958295552992785,-0.266763213359285,-0.4102296108407742,undefined,1498460445743
903d185fccf839df,-0.07492604354499767,-0.4471956140442148,1.3087945019252798,1.3957946858908266,-0.5471077060150328,-1.7392672885294382,1.8866851729878231,-0.542995931061055,-0.2591724125949569,0.4225503068863435,-0.2192575272646248,0.10220334873052606,-0.26907865418894833,0.009845368782996917,-0.7549690674651752,0.42145006650315425,-0.24965378357132856,-0.006690013433730952,-0.8085605783236927,0.6254544274385528,-0.2312082227158049,-0.35737601265659,-0.257364712368596,-0.40053751406785587,undefined,1498460447255
903d185fccf839df,-0.2897583808117172,-0.43428128408554434,1.6507682969039903,1.6135893687132399,-0.6917451772858517,-1.8060885043276131,1.9698659455822962,-0.21880514657110442,-0.22453935334988506,0.7766687839659593,0.10503291994619827,0.15882796307375113,0.49685271836007133,-0.0012646603745915686,-0.7402322166050846,0.4659035486227101,-0.27681236162381373,-0.04421903658630574,-0.7927617792234632,0.6618717503805281,-0.23836371229645345,-0.33782398467768504,-0.2054232169954687,-0.38556149618860075,undefined,1498460448774
903d185fccf839df,-0.06938199035213466,-0.5604895963656197,2.263259184244237,2.327702262768876,-0.5939590545788803,-1.8486763149534542,1.9698764721288031,-0.30706756443478495,-0.1596305802084715,0.6198083015576282,0.45931064495191176,0.1510587444472921,-0.33000501336898397,0.13761035442435174,-0.7612848775188913,0.5507689968588138,-0.20916469319928985,0.011080227820610864,-0.7842536551787935,0.7668121602029754,-0.19059858842122043,-0.2924449817907395,-0.004548497615918178,-0.37527837782632323,undefined,1498460450240
903d185fccf839df,-0.07354003024678192,-0.6344535153569067,2.3091959626742127,2.3199410411835784,-0.5829430755853409,-1.8827391099114625,1.8810574056221214,-0.974506534947418,-0.191738928250628,0.9215263786205067,0.5043080317115812,0.06336168443922728,-0.7434338792335116,0.10335454558696242,-0.7718112006135608,0.6982733642566546,-0.3087556983724569,0.019959014717897745,-0.7794608403950293,0.8043997658469939,-0.18668062646289427,-0.3178816985478204,0.09114503182879925,-0.29927988251853604,undefined,1498460451745
903d185fccf839df,0.030411036130218973,-0.6391496499558741,2.269001154479509,2.3831588065375344,-0.4867718044706688,-1.9129400243720913,1.8100605329013948,-1.4324975451337962,-0.2903989865484727,0.6386370401490116,0.3872336997067628,0.0077972978592529205,-0.5693585672905526,0.25982041614233414,-0.7444427664572071,1.0579415218330839,-0.19153344158820795,0.1247629026137835,-0.7311618536899145,1.1130462085667174,-0.07383661788651326,-0.25563193760928504,0.2929331455583855,-0.2435673304996633,undefined,1498460453256
903d185fccf839df,-0.11234854061846192,-0.5962975112510243,2.0603717461785087,2.138510906259922,-0.4434587363202191,-1.9302066741717354,1.8870270683885328,-0.9616312640386889,-0.2681345403301122,0.7807663509291274,0.3049469647261804,0.01000160007308204,-0.5693585672905526,0.20982540149015688,-0.7886533190374788,0.9346845263052782,-0.21529240788606158,0.15545234942954803,-0.7346952430969975,1.209455878790721,-0.04252086895546112,-0.26082427838238703,0.15773272994717255,-0.24647035756286956,undefined,1498460454762
903d185fccf839df,-0.1456127907648205,-0.5769260455410108,1.9519099082188431,2.032091907474585,-0.2577504798896066,-1.8935770591839578,1.9459347298730307,-0.48241125376451366,-0.28505253471887726,0.9332221160701418,0.2878133874533203,0.024163577309332617,-0.5911179812834225,0.22649050998041234,-0.8212849331467519,0.8942722775415151,-0.24360593305596992,0.13428132048222324,-0.7840927275254319,1.1350505887384004,-0.07463109994369743,-0.2756078854213405,0.0853252699416951,-0.22864850458608618,undefined,1498460456257
903d185fccf839df,-0.041661655377000145,-0.6450198145510841,2.1694714678812277,2.236684953347382,-0.3820222764016583,-1.9157118203501362,1.9521568427729736,-0.5066159196985612,-0.18898957363313076,1.2722842757263835,0.2345279609632219,-0.11028541315740398,-0.7826008244206774,0.23389710974697436,-0.8318113004148241,0.9488287017269452,-0.17373443932362623,0.1446040178624822,-0.8289702725801953,1.2030347212104393,-0.07055903652262764,-0.2878988436513905,0.13992503004694595,-0.2443758986645623,undefined,1498460457770
903d185fccf839df,0.33117612887549563,-0.6737836079150168,2.1120507489807068,2.251661600438191,-0.3323320763034143,-1.9166737966264134,1.9754095880440106,-0.34065471387541185,-0.19375666102434363,1.509719281712289,0.2742287686778551,0.06001091817323183,-0.7303782308377896,0.16445964119982634,-0.8307586261406246,0.8902311289798869,-0.22140776674001852,0.10914586544870468,-0.8506883734007089,1.243486439134472,-0.08197173810615002,-0.3898988485705356,0.0185993078161947,-0.3339581679997088,undefined,1498460459264
903d185fccf839df,0.3242460623844169,-0.4959178442742938,2.2288066004217546,2.3375358906757375,-0.31465095821901684,-1.8763826156256525,1.8996290913001723,-0.7290715161560548,-0.12425244164296481,1.1837474775947676,0.5006525637891617,-0.015669842296434606,-0.6650999888591801,0.2200097092831215,-0.8644428777129282,1.2195902625056427,-0.1772702588650094,0.2020754796364179,-0.8726443655035276,1.3984717881222462,-0.017154673528824278,-0.3898193017868083,0.48099875145790716,-0.3367652409151841,undefined,1498460460776
903d185fccf839df,0.14129209998747916,-0.46539307898597787,2.138209319321807,2.2966313083631698,-0.2311825260136523,-1.8657077125017711,2.0171104161352633,0.07458824162844588,-0.12157562608839559,1.052212639578382,0.5620798977857265,0.019449483207078316,-0.673803754456328,0.26167211788707284,-0.8402323485834324,0.9771172786880515,-0.16781162519763143,0.14906240505119342,-0.8996870401352399,1.2560053649432494,-0.06957205929767403,-0.45437385371627015,0.35616805864917317,-0.41228169735958703,undefined,1498460462304
903d185fccf839df,0.09832568774279084,-0.46891513974671384,1.85429387284972,1.9695313337195142,-0.26336646936432173,-1.8506561674414743,1.988053690429873,-0.12164404289287963,-0.056764187075085015,1.0355974016603018,0.7242287286338216,0.06042318762775929,-0.9262129567736186,0.27093052300456993,-0.8497060342150714,0.9912615106391617,-0.19607043287194878,0.13699814462172216,-0.8757579474569541,1.2804426974222498,-0.06589005969210457,-0.4511153033194095,0.4153604145787778,-0.46249148666235,undefined,1498460463765
903d185fccf839df,0.020708874031889236,-0.5587285221432632,1.7375380214086722,1.8595730900774,-0.4007010977663561,-1.8928317025653831,1.9615294727926258,-0.4319406208877647,-0.10934096962246376,1.0023054058538552,0.6885431373196094,0.0511169715744741,-0.8913978943850268,0.2700045685260042,-0.8412849713219955,0.8962928942194114,-0.21145765232302258,0.1462822381537023,-0.8822160042998533,1.2402681547202798,-0.06870625525580284,-0.5109486983330981,0.4795483479023577,-0.5340926906141092,undefined,1498460465246
903d185fccf839df,-0.32718073986354246,-0.5522713571639278,1.8109093918028032,1.9099908860264003,-0.5965099084766895,-1.8670074260318863,1.9371879925539657,-0.6408313068172254,-0.11743084237064054,0.6631277231605598,0.7577631999651141,0.0622187204651473,-0.5388953877005348,0.23019383576524247,-0.8854955607134363,0.7609122268889489,-0.236653046030651,0.12830934564719035,-0.8613025361429196,1.148324037512458,-0.0932127110280833,-0.48356452991000004,0.4866074956958746,-0.5326332486383069,undefined,1498460466741
903d185fccf839df,-0.4602382235247131,-0.5657727021207197,1.8893848486891536,1.9299886671687019,-0.7371873824366689,-1.8666906494402702,1.9162626165393644,-0.8126197804987163,-0.11842912818901719,0.7201832909480795,0.6155589992893735,0.06338696383726494,-0.5650066844919787,0.2922246009396321,-0.8854955386267349,0.8316336127622717,-0.17053534800078,0.04340990250321706,-0.8277178442651905,1.0998651258427738,-0.1410118520159861,-0.3744351068945813,0.533088289425145,-0.4233804531799364,undefined,1498460468243
903d185fccf839df,-0.37153316540644654,-0.6156690646450147,1.9289415190038552,1.9820184952766562,-0.7015680179595897,-1.8796179268280209,1.9795120678295148,-0.385584851299658,-0.1946218767889872,0.8673757368247415,0.26992686505152397,0.10898420785443418,-0.5824142156862745,0.19408628633079078,-0.8560218369065536,0.7285824165720497,-0.33022694702065347,-0.07108971732370983,-0.8018156505832433,0.951316326216884,-0.21615380506954432,-0.4278276259834281,0.15059886077826692,-0.3884541112012148,undefined,1498460469829
903d185fccf839df,-0.08047006223245094,-0.5739909413224116,2.3149381870464345,2.398367422729855,-0.7226742699089508,-1.870436066848721,2.0632003846360587,0.1786210519219481,-0.1686515714884353,1.188246645534571,0.36931365507752345,-0.02416462878634111,-0.7347301136363636,0.14964632510973142,-0.865495544624894,0.7770770472532338,-0.3100654393246967,-0.04040027155437515,-0.8025922964804474,0.9208274005714887,-0.2183549011739969,-0.4059548489658889,0.2864125205362321,-0.3875775713767595,undefined,1498460471251
903d185fccf839df,0.16069642418413863,-0.5710558663318046,2.660102163151257,2.77612314167964,-0.6119693191215905,-1.857567021043942,2.0756314839403442,0.31238184040797934,-0.17588749005666482,1.7930406935277348,0.38830532766493836,-0.08000541737576099,-0.6389886920677362,0.06261788424918403,-0.8697060797525489,0.7245411832162569,-0.3112768896160515,-0.09189976890221005,-0.7903128924987879,0.8646846689051217,-0.25802772202272006,-0.3185566144389189,0.1822348567438851,-0.3305197879992636,undefined,1498460472749
903d185fccf839df,0.013778876551629946,-0.6109729154320513,2.8974426933133652,2.9544920476365992,-0.702884590855471,-1.8758026350105728,1.9032056292483395,-0.8576730391252598,-0.17186460808035503,1.6567829348647733,0.3764327148472242,-0.2519918210483121,0.6056497883244207,-0.040149697672278536,-0.8160217826427678,1.0922918357689932,-0.3282092233875274,-0.10130419023545373,-0.7877940412315927,0.99028978758928,-0.2409056264054946,-0.3515355672272183,0.19574073063989053,-0.30148175858206844,undefined,1498460474258
903d185fccf839df,0.07753555728037402,-0.6479549333836795,2.4182959385138805,2.6162050454532166,-0.49046437621517386,-1.9340685526993557,1.9325989718921202,-0.6606042842748486,-0.18326734615053633,1.9210383571103007,0.15547931061097797,-0.14773796197750402,0.3401849376114082,-0.020707191974209598,-0.827600743200468,0.6598818452296741,-0.5317057573429405,-0.10082921896688614,-0.8132484399533428,0.9677772606025933,-0.24444813388118458,-0.452780941303188,-0.08618647010346503,-0.3397708989337927,undefined,1498460475748
903d185fccf839df,0.024866982937355963,-0.6567601729694965,2.0035886568840917,2.1773250027914184,-0.47906782372050477,-1.9270458963573942,1.9502212922346647,-0.520526122907578,-0.24234454184828572,1.7556821783695453,-0.036501156359609516,-0.10321565852641659,-0.5345435049019608,0.015400396312565708,-0.8149691599042047,0.6659436104691987,-0.4615848852361584,-0.02527086744808593,-0.8128776078635738,1.0690066430935257,-0.19350008737298596,-0.44561598545796904,0.015286138083288985,-0.347367494632361,undefined,1498460477252
903d185fccf839df,0.1911887167448852,-0.6127339604264155,1.970411840547715,2.053148745465482,-0.40442452353917907,-1.9243928929679863,1.9903679090977067,-0.23553753565714192,-0.23464459186040304,1.4816257959953676,0.12739806941138077,0.05668831184004285,-0.6433405748663101,0.05335950503323605,-0.7612848848811251,0.902354715988379,-0.44872354008795007,0.01999701362571192,-0.7930416494747394,1.2355870289739352,-0.13293867448171737,-0.4428740536512245,0.022233344034885926,-0.3585607836939909,undefined,1498460478815
903d185fccf839df,0.4129509824810445,-0.5921884647201592,2.073131962409058,2.0689684347333417,-0.16964320081454234,-1.876256835984858,1.954194931553364,-0.3462922827684056,-0.22419356075687782,1.244075986821192,0.18953943584015065,-0.054628984727950435,-0.6433405748663101,0.03854620189391565,-0.7528637999013478,1.0134881527724142,-0.5192788323192872,-0.016284418780843735,-0.8034878888476659,1.3198165333463372,-0.12926899086556734,-0.4605601595597687,0.042474145206086875,-0.40226943053004294,undefined,1498460480247
903d185fccf839df,0.11218582072494836,-0.5916014497220379,2.0641998110476734,1.9972007911891092,-0.22457911039144432,-1.874388786056933,1.854796164141152,-0.9961496935671746,-0.28961115454226094,0.528886141389135,0.07575153915125254,-0.06758168211407659,-0.7826008244206774,0.058914558464353936,-0.7570743350290027,0.9225608262378998,-0.4507058943014677,0.0003078927846667338,-0.78416269735921,1.4013513003824098,-0.10474457531567014,-0.41931538556661446,0.1710812697825196,-0.4682555436291705,undefined,1498460481770
903d185fccf839df,0.5570967105495801,-0.5945364662566601,2.020176937983805,1.9108714091816508,-0.03864456490101514,-1.853840238333423,1.9058854057866863,-0.557094282858077,-0.2962764881407686,0.9634250683398192,-0.05989113510351128,-0.01349444022765917,-0.9044535427807487,0.0996512716052305,-0.7581269724920332,0.9346844132463921,-0.40978427703159026,-0.0029535751913164978,-0.7789220858474181,1.338464048318188,-0.11833648680023193,-0.3951670247506904,0.27827709206434886,-0.43724555944954224,undefined,1498460483254
903d185fccf839df,0.27989367134692256,-0.5974715704752593,1.7273295942872837,1.760225693172978,-0.4899192358985587,-1.8588597490363665,1.8160354416569502,-1.2503711816149414,-0.3463481820649609,0.5486111203573907,-0.2076662065819019,0.0668123149546424,-0.9305648395721926,0.07280206253440318,-0.7381269637657248,1.0862300140000256,-0.33085943450658395,-0.018779603207315507,-0.7484089931187469,1.2520787676682694,-0.12986945522625729,-0.33571904807242997,0.2751650915838366,-0.5084448289397555,undefined,1498460484739
903d185fccf839df,-0.12482255678617449,-0.5070711730805887,1.3445225990969178,1.190271662627654,-0.6540789563293962,-1.7821602331265434,1.8344414586207267,-1.0715540202087723,-0.3992698675691429,-0.45974897675516846,-0.13092885922777392,-0.044593225961899546,-0.8739903631907309,-0.09384803810928591,-0.718126896141546,0.6053253362500793,-0.3572962675079784,-0.24836780782462325,-0.782609404879691,0.6624260955743531,-0.34158305280556395,-0.2900587531247933,-0.004148111954532247,-0.49197924461172765,undefined,1498460486248
903d185fccf839df,-0.22322967348654157,-0.506484216538452,1.412789882998829,1.3991849145195125,-0.7416513792944953,-1.7491129873445803,1.8559453887785258,-0.9424570878612969,-0.34210677875149503,-0.6952801087872463,-0.050778453386150744,-0.09588240746878134,-0.2342635918003565,-0.15587889393909735,-0.7328638132617407,0.2598014388894817,-0.3762591442263723,-0.2732499440701529,-0.791873182829084,0.3133741291091771,-0.41673420843177955,-0.243531956642016,-0.22350368289926867,-0.4051193211621332,undefined,1498460487757
903d185fccf839df,-0.2994604738992274,-0.48652564814634014,1.4919032236282324,1.3851464168104703,-0.773207901241411,-1.7770242593849572,1.9331091610967202,-0.5429284508423537,-0.23801560795656573,-0.6647339126149355,0.18864078448299196,-0.06582321725428439,-0.26037488859180036,-0.13828805113344347,-0.6349689414849865,0.30829604130594424,-0.30895684722588956,-0.3291951672483371,-0.6871029369513487,0.3626029549737899,-0.3943105193592472,-0.3141882467388658,-0.4457434501635572,-0.0673290194167317,undefined,1498460489266
903d185fccf839df,-0.07908415245046439,-0.572229954784032,1.8702442702063808,1.7727522625257532,-0.6770263462861841,-1.776591018751245,1.8682134386967828,-0.8897964202480172,-0.03768049397980904,-0.6856605137692942,0.3877387259419967,0.04449515251527892,-0.49102467691622104,-0.25586901389887373,-0.5833899045767991,0.473985874010688,-0.3036891051336646,-0.3673638175462285,-0.6520209280843119,0.5248255803217196,-0.36786296298709836,-0.2934420731917172,-0.1388522512980194,0.02566982140067222,undefined,1498460490765
903d185fccf839df,0.14545020889294588,-0.5833832397483384,2.0182627784807483,1.962462165817776,-0.2070522805293445,-1.780441251197845,1.85735759690483,-0.7236306582980139,-0.339009172531203,0.3297573287808452,0.14661208301539785,0.10993940219770675,-0.2342635918003565,-0.2604981646545241,-0.4254949771721843,0.4598415855301348,-0.12096879548964311,-0.3437292711885352,-0.5170734353295002,0.6743136899797264,-0.2760652805652013,-0.2648149950758757,0.03611903233948507,0.03217545336666554,undefined,1498460492264
903d185fccf839df,0.2979117407074981,-0.5499232971714423,2.487201360295794,2.4234673901745456,-0.15743407775970553,-1.8260244619982007,1.8701515991356419,-0.6490726608624671,-0.3509324253404224,0.5954479858457151,0.006583553081731995,0.09269777323218202,-0.9088054255793226,-0.2290197789264973,-0.34654755764327966,0.7649534319800201,-0.10666046560491428,-0.3114945889724065,-0.4934871857296461,0.9253853425371722,-0.21382632531023546,-0.30300331193274727,0.1016813059377462,-0.14453788570087153,undefined,1498460493750
903d185fccf839df,0.21890898270920023,-0.5235075784139914,2.512083909013839,2.446802764272144,-0.19643744179380332,-1.895789836147815,1.8900828900618327,-0.6585388354003049,-0.4543746693382547,0.9140497480153975,-0.173004909939826,-0.05217016605479829,-0.9305648395721926,-0.3086414905127372,-0.4128634233248563,0.6982733925213762,-0.22807286429968657,-0.30427503227216646,-0.44352995655953587,1.0019002175693628,-0.18739471204320235,-0.31313053570604626,0.05939265720363985,-0.25002324166778583,undefined,1498460495300
903d185fccf839df,-0.06106594506824988,-0.5152893684402919,1.927027359500798,1.9213008362360888,-0.6894206153606179,-1.875981985128803,2.016789571208763,0.020657395535466652,-0.2721035467961143,-0.6039304502667514,-0.02612975184038336,-0.08136456358123985,-0.8261196524064172,-0.3197514937687766,-0.508652961277679,0.641696266863885,-0.3679099630896338,-0.31597831218798694,-0.47167112894515284,1.093828936425975,-0.19369691604352798,-0.38220058733200163,0.1007376600255695,-0.3664376348210882,undefined,1498460496765
903d185fccf839df,0.13159014492160784,-0.3614912781785306,2.208390254452876,1.994111635479495,-0.5327077326338209,-1.8159621499089504,1.9364700315916283,-0.3467788075492156,-0.2135842463531825,0.04377367868438358,0.006624569416097614,-0.05822799988448126,-0.8000083556149733,-0.25586893619422646,-0.5497056750911968,0.5770369854067453,-0.4522032617486375,-0.14940289454188613,-0.5205158647087407,1.1638610670695755,-0.12731511743556645,-0.2962801212921134,0.22171260188475264,-0.47661895797838233,undefined,1498460498245
903d185fccf839df,0.05258731791249048,-0.1589709869146826,2.293883703197554,2.227711452850987,-0.5477557047704154,-1.7849832681827762,1.8981800609496486,-0.49491129045440496,-0.24269146482512244,0.30626536958695316,0.06036110320424994,-0.04167122716402282,-0.9827874331550802,-0.3271581841907604,-0.5749688564081907,0.5103568328892153,-0.4707834315383008,-0.10708616439125297,-0.5492167803618219,1.0294018443539223,-0.14261949909896335,-0.3070235130408034,-0.04799541919461806,-0.59145137794698,undefined,1498460499742
903d185fccf839df,0.030410967119399505,-0.1883217660487443,2.097376119110151,2.098027009907419,-0.39985766583595855,-1.7698315681533414,1.8174423909619684,-0.9695684812011081,-0.31560168697458507,1.1410189976584513,-0.0028146986493510872,0.07015519544263714,-0.9392686051693405,-0.3095673025327829,-0.6570742251373561,0.5083361879465973,-0.6051176298120682,-0.13965649281053,-0.6724935927333796,0.9037505303065009,-0.22469960316567963,-0.34500039381180264,-0.19548723774524157,-0.5345216521761225,undefined,1498460501264
903d185fccf839df,-0.00008125643052757771,-0.3438808136208928,2.0763218893982205,2.0576138137098288,-0.4360736034659785,-1.8346938912744808,1.836821433636011,-0.9686259927274112,-0.4948566305993532,0.5864952102892058,-0.1202761128523379,0.09142187859115157,-0.32565313057041,-0.2456848097121055,-0.6549689649357625,0.6154285044337259,-0.5417024515360176,-0.1318036428886407,-0.6699957306631681,0.9081082925621564,-0.2159637769963034,-0.34404126661762036,-0.1567767337524054,-0.5344587485624439,undefined,1498460502755
903d185fccf839df,-0.08185611003607643,-0.3955382357535481,2.235824592280082,2.2191362661921934,-0.5735830914843876,-1.861533714688085,1.9725930622493149,-0.20108543576515958,-0.46474729101619444,0.0300597993684956,-0.15392149840875308,0.10762367831088915,-0.24731924019607843,-0.1706922618322905,-0.6823374211788177,0.8498189650102884,-0.4616655653708512,-0.10370437337553891,-0.6849199282998227,0.915822914821193,-0.2017038941992506,-0.3260018990436632,0.0022836806029374376,-0.5816831725129922,undefined,1498460504253
903d185fccf839df,-0.012555410619879083,-0.37851480080802785,2.2728292193486737,2.235699529627322,-0.7658741982867314,-1.8696720753886054,1.9142192582005895,-0.6455298663837251,-0.5022294305583719,-0.5387802536872939,-0.103358401304012,0.060542698950180114,-0.6868594028520499,-0.14569475450620187,-0.6623374050902754,0.9104372392294077,-0.452051264768493,-0.1605678748043313,-0.7031886018291483,0.8382763454922664,-0.24371813139153856,-0.3133913546855054,0.03354551684068945,-0.6210030988120795,undefined,1498460505744
903d185fccf839df,-0.23015973997762035,-0.32157425830627623,2.758356082263433,2.550885252054428,-0.8692043138940093,-1.8334756983326908,1.9597096451294564,-0.29978194400602903,-0.44357772122929745,-0.4622880699239172,-0.21228244825322742,-0.03972351938546842,-0.8043602384135473,-0.2290198048280464,-0.7276006038598863,0.6800878424203087,-0.48742841332580294,-0.3204747037215182,-0.7662368655319773,0.5916856402769818,-0.3765128790578043,-0.4208247401050214,-0.3104320518406755,-0.691030458793146,undefined,1498460507260
903d185fccf839df,-0.25510804835632334,-0.35855620318792364,2.1764894597395545,2.0239286367555454,-0.8975928330789736,-1.8441948568830182,1.9000314538489145,-0.7338820763994351,-0.44440149698841397,-0.23023235393252414,-0.2965535834095669,0.031749930692310475,-0.865286597593583,-0.28456984700979243,-0.7444427443705057,0.8376953214723531,-0.5298807973230406,-0.37030230656843793,-0.776913998960372,0.6474434115072314,-0.39865597504052475,-0.4140623533686179,-0.23765929831478946,-0.6885810447655559,undefined,1498460508751
903d185fccf839df,-0.36321718913338125,-0.36794842854386967,2.085254294896554,2.1182467559713247,-0.853148332474787,-1.848764825499648,1.9804140904175453,-0.23209783276358897,-0.5208259598931796,-0.39065551417037353,-0.026091367937329933,-0.020256341146164425,-0.9436204879679144,-0.3456748908195582,-0.7433901142697089,0.6497788466343568,-0.5962962641883464,-0.34498953159237883,-0.777494734844257,0.6423157253368597,-0.3997465247273892,-0.40315228347486903,-0.24192296549667985,-0.6494735088937492,undefined,1498460510249
903d185fccf839df,-0.21214146358458635,-0.46950215474483525,1.861311864708047,1.8047629360579043,-0.8269198086096256,-1.8706037707590832,2.001094876378397,-0.10896281787830663,-0.5341359733224702,-0.7038200170279353,-0.09176759381346555,0.08009477241856892,-0.8043602384135473,-0.40585408375695464,-0.7160216580266537,0.6861497772481625,-0.6220786182500698,-0.4034552662323583,-0.7727369035765749,0.62821075046582,-0.42723041954074087,-0.4372072923747088,-0.30943781034869666,-0.6823432866389597,undefined,1498460511760
903d185fccf839df,-0.10541837061115396,-0.4918087539014403,1.7911306754400282,1.7423638732804616,-0.771839905463797,-1.8805193419545707,2.0007898322706366,-0.1274364329232909,-0.45179428642915515,-0.8135312293146025,-0.08233690706798892,0.041782028040615746,-0.6041736296791445,-0.42251908864101373,-0.7139163757383588,0.8983134543678648,-0.6538401323194969,-0.39096036703913745,-0.7431823748249823,0.7923889782642675,-0.38062294615539816,-0.46195476616246145,-0.2581522251194301,-0.6890800229287253,undefined,1498460513302
903d185fccf839df,-0.15947295825238778,-0.45071766019095466,1.7911306754400282,1.7375931019499096,-0.6940080342312517,-1.869981862875854,1.9711229947804847,-0.2669150933065238,-0.4040771662873577,-0.6932570131432223,-0.325241086537854,0.005306661534708491,-0.8217677696078431,-0.4002990691781604,-0.7202322078787762,0.7548503203258167,-0.6889076210662117,-0.4003647885052612,-0.757287947301843,0.7525993938713698,-0.39504676793591365,-0.44901912716750403,-0.1968014133097549,-0.6929092884319183,undefined,1498460514783
903d185fccf839df,0.07199150408751101,-0.46421901976174273,1.7898546538169733,1.6575858606858995,-0.5964070495657993,-1.8573736915119268,1.856552868141019,-0.9634398530055005,-0.39973003116890965,-0.7359020675024113,-0.2608878441111628,-0.03021028716274038,-0.7390819964349377,-0.35678488112482304,-0.738126956403491,0.9104371544352431,-0.7153956112273464,-0.3678071237254526,-0.7681889787639303,0.9432629451180434,-0.3453955194466101,-0.4622451600371977,-0.1889858896741464,-0.7051723809336946,undefined,1498460516249
903d185fccf839df,-0.25649399264371964,-0.5000269638751397,2.1656436571490123,1.8950070384029807,-0.6468583915289641,-1.8526127276324513,1.897606765103976,-0.677020094019401,-0.40935232896533513,-0.4638967445530864,-0.43425915537504445,0.011099996796444233,-0.7434338792335116,-0.36048820690965316,-0.7423374988933796,0.938725759661071,-0.6169618133730245,-0.33476815540333565,-0.7297834844796725,0.9648053710378249,-0.32040293040288537,-0.4270551155199444,-0.18697195157506877,-0.6069774937980771,undefined,1498460517771
903d185fccf839df,-0.21352751138821185,-0.5105932338413247,2.3691689789577928,2.259032719380066,-0.5388380038956612,-1.839613244268383,1.9723853051568827,-0.13300278197108598,-0.4194047020778791,-0.3796308002822572,-0.35358452781024674,0.01839812719358144,-0.673803754456328,-0.38455986336337245,-0.7549690969141104,0.7063558874976833,-0.5616803895132446,-0.35707278224890343,-0.7131100845214572,0.9903667913940976,-0.3245421991818298,-0.39072919507965687,-0.2254996765498138,-0.5189176672255086,undefined,1498460519249
903d185fccf839df,-0.4408338993280536,-0.3785147423520432,2.307282057308105,2.0550377829194257,-0.610004742306982,-1.8055015364325033,1.9400702482461867,-0.28911168088556466,-0.4504476053646385,-0.4304751984111486,-0.2878928809586288,0.01935620088147681,-0.6215811608734403,-0.3632656818221139,-0.7339164065513686,0.5103568328892153,-0.5685118075336607,-0.3498468946203324,-0.6957230100862695,1.038841095935832,-0.30901677039320424,-0.39078388936270664,-0.2520948637630138,-0.5019649168693725,undefined,1498460520765
903d185fccf839df,-0.31332053787056546,-0.4284110756483458,2.026557300236029,1.753384798540785,-0.6169373024469974,-1.8553915116824162,1.9657292636864592,-0.2090616225051739,-0.4411225273698755,-0.46808842202243156,-0.21294057523019488,0.010620676860985112,-0.7477857620320856,-0.35215569151684906,-0.7854954360973222,0.44165620501739655,-0.6634973320042075,-0.39166332219276817,-0.7003688925756707,0.7731409172427062,-0.37897003815085273,-0.40836943743779897,-0.25385511275894834,-0.44243945897217757,undefined,1498460522243
903d185fccf839df,-0.45192210923000886,-0.4700891697429566,1.828135810782519,1.5992032868965609,-0.8950522652082891,-1.8778803171340537,1.980724414558908,-0.26096060490733197,-0.36624441179594813,-0.537780283953715,-0.0491223522171973,0.05762852711026591,-0.7477857620320856,-0.3586364922141399,-0.7307585088867443,0.34870823354026426,-0.6755750295983993,-0.40376557832986076,-0.7001519909980654,0.7186612159882875,-0.393083042275841,-0.44485144188160364,-0.221000929045171,-0.4916334758135086,undefined,1498460523763
903d185fccf839df,-0.31886466007424796,-0.5687078209533152,1.8976788621705356,2.0002577321053154,-0.7862707333494507,-1.9125254206180857,1.8826116105652009,-0.9758360010874034,-0.4389122119373031,-0.1971739139761418,0.027047206229255837,0.03847857733847246,-0.6085255124777184,-0.40122485529665697,-0.7612848554321899,0.3547700553092319,-0.7108014260706659,-0.4409019585924075,-0.7583024856986474,0.6618871489067483,-0.43173677596290744,-0.46894381227638654,-0.2703038221231627,-0.5666374254938682,undefined,1498460525259
903d185fccf839df,-0.11789249029509573,-0.5276166980148372,2.2300826220448093,2.1571587222978827,-0.7885438755697791,-1.8800441788901248,1.9337166289364736,-0.5865268814354196,-0.3812314672801767,-0.27024989914681485,-0.06450376396835414,0.06491896794492309,-0.8696384803921569,-0.45029408383033764,-0.72970586406148,0.45175923187743544,-0.721394446745913,-0.47660709515627664,-0.7674892970767906,0.5756096598385565,-0.4566515519791395,-0.510237137241643,-0.2252018550533312,-0.6677819659377257,undefined,1498460526751
903d185fccf839df,-0.3091626014921474,-0.5082452030768315,2.2466711572814724,2.232618437434503,-0.7970295828503974,-1.8604459599180763,1.934999968312885,-0.5830419905363697,-0.4061105599489166,-0.20647512988748387,-0.017229193285998808,0.050914486655486604,-0.9479723707664884,-0.40492821993381073,-0.7833901832579624,0.449738615199539,-0.7305484891744831,-0.48514390450683414,-0.8001714005165891,0.5193129450101086,-0.48183743964853515,-0.49091373319809656,-0.2785801472312676,-0.670812080645073,undefined,1498460528257
903d185fccf839df,-0.21352761490444105,-0.5246816230242303,2.1075842920945904,2.1432264130842293,-0.6825806292086557,-1.8890653230971246,1.8770600907395962,-0.994316908830689,-0.40255988013412547,-0.2448562004064543,0.06984850182681328,-0.034704106975754365,-0.9001016599821747,-0.4354807547894681,-0.8476007445645426,0.6113872993426547,-0.7282542907409387,-0.42427798285110335,-0.8443632574998491,0.5463988091365842,-0.4670924514593147,-0.4912795754441963,-0.2881482598380406,-0.6219034887646254,undefined,1498460529755
