UUID,iqrAccX,iqrAccY,iqrAccZ,iqrAccXYZ,meanAccX,meanAccY,meanAccZ,meanAccXYZ, covarianceAccXY, covarianceAccXZ, covarianceAccYZ,pressureDerivative, pressureIQR, iqrGyroX, iqrGyroY, iqrGyroZ, iqrGyroMagnitude, meanGyroX, meanGyroY, meanGyroZ, meanGyroMagnitude, covarianceGyroXY, covarianceGyroXZ, covarianceGyroYZ, class, timestamp 
903d185fccf839df,-0.5919095903714388,-0.34211981246851714,0.9476796201898975,0.960285688931863,-1.2456192332810923,-1.7123177876438767,1.9640397920947252,-0.3520268624640891,-0.5042248764973003,-0.6948214035667535,-0.1320594394363409,4.157277893911337,1.3019510360962567,-0.3280839832600316,-0.7939165063526319,0.005204868063398404,-0.7673477415141867,-0.47298502670013437,-0.9150907302333987,0.06368470882505528,-0.5932468421309443,-0.49192495344459597,-0.6767891416392575,-0.39494510573826297,undefined,1498936383414
903d185fccf839df,-0.36598911221358355,-0.41197459724496227,1.2851877206933402,1.3360930056544298,-0.9371824818343468,-1.7680684308756565,1.9240922215931662,-0.5551017880482173,-0.47952456967607726,-0.39211035415947687,-0.24768586925515296,2.1856843394866363,0.6839836786987523,-0.2780889686078543,-0.9412851033003433,-0.1645261697324166,-0.7644635438692836,-0.3906538692151317,-0.959148659922396,-0.21381796344654613,-0.6113232251595729,-0.4816271335987569,-0.6390179286056155,-0.4734367494383772,undefined,1498936384821
903d185fccf839df,0.012392828748004459,-0.41256169992706065,1.3426086937308102,1.3436887586585637,-0.5750127974051803,-1.790463967893418,1.917906246322947,-0.5399232180851615,-0.499789893578671,-0.17224027725175411,-0.20386256049437532,1.414892351358891,-0.33000501336898397,-0.4021507579721245,-0.9812851207529603,-0.34638090759560997,-0.7816060974980071,-0.461318228463411,-0.9755580999445077,-0.3022280742920125,-0.670192798841312,-0.4801757063741488,-0.6370245350845133,-0.4762213528028503,undefined,1498936386333
903d185fccf839df,0.13852014240186714,-0.4565878247861647,1.3993915288882781,1.1855356518529407,-0.1848145964903415,-1.7885679677562973,1.8879395997152004,-0.47581693464630975,-0.4812737649112881,-0.8009327759147562,-0.18819319812773222,-0.149557553183748,-0.8609347147950089,-0.3577107578987415,-0.9033903239626186,-0.20089714274330467,-0.7606873722655693,-0.4421971784724167,-0.9175760190507182,-0.12076914910494714,-0.6114643399044173,-0.4079092472257851,-0.35929474370473424,-0.3708833745713526,undefined,1498936387862
903d185fccf839df,0.07337751738572676,-0.5299647287793304,0.7045976280664156,0.6222127636498835,-0.4086313673282719,-1.7928444517630477,1.9400176516531527,-0.21862421861856998,-0.33523551037210547,-1.1301395965686662,-0.1360976437203072,0.051527726036004154,-0.678155637254902,-0.36233990865439186,-0.9233903326889271,-0.23322685413367839,-0.774251283956623,-0.49715144362320846,-0.9230256646889227,-0.12862552267531108,-0.6410683184670589,-0.4232308784885229,-0.3937680260743,-0.3896126171624177,undefined,1498936389359
903d185fccf839df,0.015164889849845698,-0.48946069390895475,0.37602142478740785,0.3058451356911426,-0.5284185963226112,-1.8503021228375378,1.9777290710326196,-0.10357794050742304,-0.32762309728042616,-1.1651875220689778,-0.09447207701869871,0.04463623388919753,-0.673803754456328,-0.44381327018227223,-0.9507587815697485,-0.2514123618376636,-0.8308792780253191,-0.5556612352613433,-0.9411081613876745,-0.1396481312356888,-0.6757540148277972,-0.42775274404467156,-0.41188809053975334,-0.4195369668858158,undefined,1498936390834
903d185fccf839df,-0.15115684395768353,-0.5111802488394461,0.5706145952348038,0.5973273857104229,-0.8229598166601825,-1.8581563174787967,2.0366788135626237,0.047969519313272264,-0.36540912835063577,-0.317257869993972,-0.10563648301693264,0.043767028501150385,-0.9175091911764707,-0.5308416333381724,-0.9476008839051242,-0.22312385553836106,-0.8286232905087504,-0.6128350484831215,-0.9457190591192305,-0.06425734144215749,-0.6943910432574252,-0.4032982297811777,-0.39365980489578095,-0.40349058894086726,undefined,1498936392330
903d185fccf839df,-0.4616241678121094,-0.5446401621883499,1.0956981284642648,1.0618665252610644,-0.9363904840925419,-1.870373176929564,1.9163257365363395,-0.7840290219337936,-0.4456598313900748,-0.18669942366796757,-0.0917128763423995,0.008966828976650328,-0.9218610739750446,-0.5623199996400373,-0.9265482303535514,-0.11603159558067562,-0.8333909501653357,-0.6198392848436436,-0.9217060037867482,0.048043521776489344,-0.6742075554729329,-0.3633217168878952,-0.3714380398330494,-0.3967499802636937,undefined,1498936393824
903d185fccf839df,-0.2883722985026819,-0.632692499590535,1.7381756510147754,1.9722407394063135,-0.7505793640778221,-1.9206637816488623,1.8730259732738854,-1.055660479931552,-0.48922649087522335,-0.3908434255763664,-0.11110280727208127,0.0796116516613183,-0.499728442513369,-0.5910208457017305,-0.9381271909112515,-0.1281552673833324,-0.817328532790927,-0.6598064921092944,-0.9458030210760818,0.037356999667480385,-0.7044723268696117,-0.41346480091443905,-0.5358291719043285,-0.42407645076476425,undefined,1498936395315
903d185fccf839df,-0.1317525887718435,-0.6015806462341168,1.4931794993882366,1.4188632292889214,-0.3930382479412562,-1.91289576859908,1.9455639087292647,-0.41868129728498116,-0.5075869239866218,-0.5059555324624175,-0.09917781105984638,-0.10098969467467273,-0.31694936497326204,-0.5706525085574541,-0.9360219307096579,0.03955518199930776,-0.7739160613442531,-0.5920249964284682,-0.9393519615334244,0.21012755704978503,-0.6431878803255383,-0.38009716458717185,-0.47374193881577936,-0.32572363936227205,undefined,1498936396803
903d185fccf839df,-0.22877365766858512,-0.6191911546337431,1.0414673365529066,1.0798141954117175,-0.3989113841330509,-1.8772048371506482,1.918274418807858,-0.5917092217592201,-0.41730259572381145,-0.4798569346244671,-0.09200334817165688,-0.056538252803608344,0.28361046122994654,-0.5030666510996229,-0.9023376644128867,0.023390361635022814,-0.7243635325821172,-0.5451105489964119,-0.9334326602474515,0.20258231917151154,-0.6208830622680381,-0.40203806895651656,-0.4541730542892248,-0.3077125367258852,undefined,1498936398312
903d185fccf839df,0.06921940848026004,-0.6180171246375002,0.9221591877287997,0.9834578769827649,-0.6135327363411637,-1.8549140183241069,1.9685720969434874,-0.28352761239295526,-0.45830268638029764,-0.3968198576127476,-0.14539884965323488,-0.0984293270273161,-0.26907865418894833,-0.5243608326408815,-0.8844429306126395,0.100173399688984,-0.7742313203893709,-0.551424493870455,-0.9143453606958264,0.1657492372466626,-0.6245936713673921,-0.4023383000816304,-0.4618948355688358,-0.30758709223684444,undefined,1498936399833
903d185fccf839df,-0.3479709738421885,-0.48946069390895475,1.1996942719486625,1.2084560279011287,-0.9777595536922494,-1.792835133733863,1.9568826043109935,-0.4065608688183726,-0.4411323257940663,-0.424603101574619,-0.16980020866318016,0.12494056973263315,-0.28213430258467026,-0.5160283172480774,-0.9181271969094106,0.12442074329429757,-0.7094061630836137,-0.570581648954109,-0.9215800636867291,0.048751850455490846,-0.6520428659655798,-0.43231146617931526,-0.42344321866383405,-0.3165254122159447,undefined,1498936401359
903d185fccf839df,-0.3881653249850356,-0.5681207621132053,1.3917359074238476,1.3818157412716514,-0.9121779496470448,-1.8430069459990734,1.9454087555625186,-0.5132211887987647,-0.453766238427839,-0.6796980658892041,-0.10851675452773164,0.1126113781441479,-0.6172292780748664,-0.48269830747995923,-0.9612851193888856,0.12037956646794787,-0.7644288258644479,-0.5476120609572385,-0.9298223072603614,-0.04827375753251474,-0.6587718741923924,-0.45440799073670324,-0.45005473679057373,-0.3556213851240842,undefined,1498936402800
903d185fccf839df,-0.26758216804026513,-0.5698818217215657,1.690324967218692,1.6324574201915822,-0.781652451112067,-1.8868968005145816,1.9331512327145297,-0.607016648653436,-0.5518837542386411,-0.6480184568533818,-0.12884475806862902,0.05657168885897341,-0.8565828319964349,-0.557690803556676,-0.9707588271072259,0.07794675755573142,-0.7798035503106677,-0.6108528350137016,-0.9538983336215829,-0.24913107994733855,-0.7331160409095161,-0.47722840081283074,-0.4964698107526426,-0.4293916537019268,undefined,1498936404308
903d185fccf839df,-0.2814422320116032,-0.5411180429716291,1.3872697046746807,1.389620442171696,-0.8745323003667397,-1.9009537597234911,1.9644879993323032,-0.45437253281704654,-0.541097564091124,-0.5843291882822991,-0.03477143384934937,0.0755640665964902,-0.8348234180035651,-0.6234250499251903,-0.9676009294426017,-0.06551643301575977,-0.8496685014206801,-0.6557090756620187,-0.9518902478111396,-0.28006655726625984,-0.7604951323759359,-0.47516285765810157,-0.5482723664086238,-0.4537105515919901,undefined,1498936405813
903d185fccf839df,-0.26065210154918633,-0.5892533751155561,1.369405147814963,1.4031202706401846,-1.033796037871575,-1.9333115506860956,1.9586498304054003,-0.5841506644816309,-0.4356170546201329,-0.5264539315905487,-0.0762955322273024,0.02143451895668457,-0.7086188168449198,-0.6549033838501189,-0.9497061661934192,-0.27768022319434815,-0.9092614011355558,-0.6735553111331559,-0.9488886165873367,-0.3181315145441031,-0.7777675625537773,-0.48005993141001974,-0.5207887624789145,-0.4730248739807176,undefined,1498936407318
903d185fccf839df,-0.4477639658191324,-0.5610765821357487,1.4957315426343465,1.5913359508169214,-0.9597595923211294,-1.885620376677967,1.881730636094456,-0.9968730618151785,-0.4106955819382629,-0.23374841651004977,-0.14988497275816387,0.04029677628286891,-0.8043602384135473,-0.6604583725273641,-0.9612850973021843,-0.32415418066819274,-0.9241636757767214,-0.6732829933757182,-0.9515963822069818,-0.2891670382961559,-0.775719858922864,-0.4688087922814841,-0.5371946036621046,-0.47817320800915813,undefined,1498936408813
903d185fccf839df,-0.5544870932979745,-0.4794814389408912,1.5818631292590262,1.635598342944822,-0.9592350199136834,-1.8528060540367723,1.8833821408850053,-0.9613311783114614,-0.42567436593948554,-0.16378196966683875,-0.249998628272487,-0.018948307440342076,-0.9871393159536542,-0.6808267226224151,-0.9570745916234645,-0.3948754958797117,-0.9380455375525649,-0.7066259427452001,-0.9680248937845133,-0.3313895737713009,-0.8022630681706692,-0.4441458991362241,-0.5966864142481763,-0.48619198869275965,undefined,1498936410304
903d185fccf839df,-0.6099277287428339,-0.58925336050156,1.8555696403358255,1.8447242705783258,-0.9636887201516265,-1.8760332276078604,1.9655477983435323,-0.43696106780277155,-0.41663019672972385,-0.24826084538076398,-0.2423789029968956,-0.03850956352603645,-0.9305648395721926,-0.6206475491111805,-0.943390363501937,-0.30798934617154705,-0.8843385614892791,-0.6429861922072416,-0.9552767043243879,-0.28836631605008,-0.7576129881952975,-0.4433781241726874,-0.6056613255535589,-0.5088179906128243,undefined,1498936411809
903d185fccf839df,-0.6376480292125586,-0.5916013912660532,2.0744079840321126,2.064390662898757,-0.9430144718450185,-1.8829720322096015,1.9486486697634042,-0.5785457266001294,-0.4049518749913814,-0.5232190990233854,-0.12570504027933999,-0.1664734163955073,-0.7913045900178254,-0.6197217111895856,-0.9476008839051242,-0.21908259391784676,-0.8652985586377033,-0.6425935500646632,-0.9431512313075547,-0.23561124227419789,-0.7455081111813625,-0.44141654670767727,-0.5805013722962145,-0.5090433571837348,undefined,1498936413360
903d185fccf839df,-0.5835934760767345,-0.6473678745435697,2.179679895002616,2.2035223525501486,-0.9680807192867456,-1.9006812369215373,1.8818700117498226,-1.0720408109417463,-0.3972997236586004,-0.4580135348003697,-0.01852565582052934,0.040055132952103556,-0.4866727941176471,-0.5326933091813619,-0.9528640417713421,-0.023083652368264866,-0.8109342263895377,-0.6238290381700174,-0.9544650734491242,-0.09346819359805947,-0.7098652981111966,-0.45363069335951406,-0.5860045144539618,-0.5266843631868251,undefined,1498936414844
903d185fccf839df,-0.27174013892409293,-0.631518454980296,2.0629235352876694,2.039080723367274,-0.6672549312949083,-1.9052116073846532,1.9623026271545245,-0.4489388736617091,-0.5098009182488299,-0.14328145700493508,-0.024433225248644354,0.06491147214269152,-0.4605614973262032,-0.4956599606776391,-0.9191798196479737,0.15068861878334291,-0.7026541758224524,-0.5812019942055155,-0.9428643602020244,0.20264391230710602,-0.6306137484553355,-0.46014444977429086,-0.3660252879538299,-0.5204810993517958,undefined,1498936416307
903d185fccf839df,-0.22600170008297307,-0.539356997977265,1.9818962892921583,1.91450100714826,-0.43044733035276106,-1.8685726745819724,2.075970731205959,0.43354538900990436,-0.6291901394048136,0.24719043531654764,-0.01778594963750382,0.14179993667028554,-0.0036138034759358177,-0.5095474906492374,-0.8781271131966896,0.3487081770108212,-0.6736030354728351,-0.5770285843110409,-0.9008345172902927,0.451652174076724,-0.5715247832470144,-0.4547018364756731,-0.2901180032468106,-0.5073452111295069,undefined,1498936417812
903d185fccf839df,-0.3701471521082308,-0.4612839447711358,1.978706362302996,2.0286328507365825,-0.6344949863454167,-1.8736247955739955,1.9710835503473343,-0.3008463364568759,-0.5755567353104943,0.19617931928731824,-0.10174200736820428,0.10350581093366858,-0.7695451760249554,-0.604908330345618,-0.9149692550713836,0.2699044940142421,-0.6883431764119385,-0.6063311139035169,-0.9113857075356693,0.5442276292844819,-0.5777814181080274,-0.4592913326684229,-0.23100952974658018,-0.539094641797984,undefined,1498936419315
903d185fccf839df,-0.5184507820497747,-0.6045157212247236,2.0137968298685305,1.9602043115288386,-0.7413736721882056,-1.8732684212003472,1.8807365622669039,-0.938332715677028,-0.5473406283995966,0.26969628349138713,-0.11591849867179864,0.09055605702606542,-0.8783422459893049,-0.6058341553164382,-0.9444429715160324,0.16685358047123555,-0.6917502865180614,-0.6052291813050108,-0.9463837556998522,0.5107514093015865,-0.5943673669841731,-0.45275390946162053,-0.24946684362004004,-0.4917905158581859,undefined,1498936420801
903d185fccf839df,-0.38400728509038834,-0.5035490684778642,1.587605353631248,1.5559797742346038,-0.8310238004776489,-1.872005974073403,1.9107479118672068,-0.7821995206192602,-0.4075903900201746,-0.1997853787947617,-0.12896128411505742,0.0037833153666441514,-0.9392686051693405,-0.6030567063055265,-0.9233903106022258,0.4436767934305714,-0.6222561277937586,-0.5687704247591219,-0.9217969618999508,0.5745009761955238,-0.5609390556854112,-0.43504011001579046,-0.2800832649241079,-0.4507782148192864,undefined,1498936422315
903d185fccf839df,-0.3313387797581897,-0.6097989146638009,1.550600726562656,1.5217620423393319,-0.8015244211592657,-1.8663622276782168,1.9935157932713872,-0.2532894514161222,-0.36644035236916306,-0.0803786026219561,-0.09760551019797054,-0.00537577238465486,-0.8739903631907309,-0.6919367323538417,-0.9297061206559418,0.20120383787770182,-0.7657837159760155,-0.6553987626011364,-0.8946143522435319,0.19631515588664136,-0.6567695344558887,-0.4294166474482991,-0.4753231438571524,-0.46947502374165684,undefined,1498936423833
903d185fccf839df,-0.4948885559801069,-0.625648290385086,1.2373370368972565,1.230092223334821,-0.8876465616761582,-1.8473789282909638,1.945669108724224,-0.5944745217544286,-0.3402904543657642,-0.41112136214225303,-0.027475786228412492,-0.017369993903631035,-0.8913978943850268,-0.7104534130810904,-0.9602324745636212,-0.07561943161107709,-0.8703080808826451,-0.7056190058964147,-0.9135967006535562,-0.009238695606791763,-0.7264970269262021,-0.44410489866563796,-0.5193261904374271,-0.4540517003980947,undefined,1498936425328
903d185fccf839df,-0.6265598883214228,-0.6596952187321111,0.6790769414683684,0.6143093291342488,-1.136941006338964,-1.8590344412265882,1.9237128560370038,-0.8397175681656037,-0.3571657904479329,-0.5232986046716593,-0.02354247603170431,-0.0438044130708015,-0.5345435049019608,-0.6724942137049982,-0.948653514005921,-0.31000994871708265,-0.8888782896549381,-0.7225659634151922,-0.9186763860963053,-0.17916054137580983,-0.7656008154274156,-0.4361239411968916,-0.5664333075376047,-0.44409424665460867,undefined,1498936426819
903d185fccf839df,-0.6404200903143998,-0.672609577918774,0.6305881197922826,0.6047131820714073,-1.164177532400908,-1.8911034068759143,1.900231307913173,-1.018386902259459,-0.39378115606997327,-0.5240695708520476,-0.034451049171753116,-0.062438142461836835,-0.5954698640819964,-0.6650875362337889,-0.9307587802056738,-0.3706281664067589,-0.8697484480680145,-0.7302224924042091,-0.9139745288935592,-0.27424594113157913,-0.7831864744242736,-0.42513004301042656,-0.5821786376678498,-0.4262075434859592,undefined,1498936428312
903d185fccf839df,-0.564189289901714,-0.5604895963656197,0.8634619389313253,0.8118402054687867,-1.1360975797679622,-1.8627379337946572,1.9530535916125327,-0.5938350473337577,-0.4961215332520247,-0.39233421705453064,-0.04959287524102014,-0.016319302610721863,-0.865286597593583,-0.7058242493746655,-0.9591798371005906,-0.5221738095574748,-0.9238669201697723,-0.7716779398284137,-0.9235951441426092,-0.47294748484567095,-0.8398702366711763,-0.42242499222745256,-0.5966040168189862,-0.4428630584247167,undefined,1498936429807
903d185fccf839df,-0.38677934619222953,-0.48300352892961945,0.9527837066821171,0.8581145999749185,-1.0255777587079555,-1.8473602967909453,1.9669179238530488,-0.4514633932988464,-0.473547716406169,-0.5025802323105112,-0.10497857290020451,0.0645305858039111,-0.8565828319964349,-0.7076759057916933,-0.9623377605330331,-0.4736791930086516,-0.8979889165018939,-0.7671562175998226,-0.9835368225927814,-0.3929217605092048,-0.8468820059621638,-0.4319042299585396,-0.5968679676398486,-0.4289542656317912,undefined,1498936431310
903d185fccf839df,-0.3050045270920904,-0.4636320339916137,1.0452954014220712,0.9177319102787853,-1.0157857781801285,-1.7699457005243737,1.8739358768921324,-0.9078282503182743,-0.5162117989591024,-0.2593431387067351,-0.2626527306891524,0.02595942340834336,-0.9566761363636364,-0.5391741746325255,-0.9718114608891396,-0.3585045370011844,-0.7833445805716275,-0.6337020962335917,-0.9900438563410676,-0.35131515624191717,-0.7698924926204658,-0.41767194350413656,-0.5743684476313544,-0.4115131610538125,undefined,1498936432791
903d185fccf839df,-0.15115687846309325,-0.5017880088695039,1.5493241966657023,1.610355135050246,-0.8923471336109231,-1.8043532207084745,1.9655004650237524,-0.353795496318314,-0.41320684444589845,0.592249586423042,-0.18654143455257918,0.008415502292159661,-0.9088054255793226,-0.3290098341324009,-0.9360219233474241,-0.22110321059574314,-0.6273736160939711,-0.4581655640314312,-0.9644425248172386,-0.2146231552209555,-0.6449005589685033,-0.40725688548890854,-0.5711675886060409,-0.40442258489443145,undefined,1498936434309
903d185fccf839df,-0.11927853809872122,-0.6015806754621091,1.8747099646816487,1.945209825328357,-0.8673734580446991,-1.8450240673560871,1.8856727112245808,-0.9319405125278809,-0.41073115265531723,0.9881901957111774,-0.19465319125054248,-0.034268967220905965,-0.9305648395721926,-0.3382681874467998,-0.9286535052796125,-0.14229948520208172,-0.6435280723897593,-0.4479758582137108,-0.9581803785810135,-0.06217854228716154,-0.6105335957112535,-0.42093967467269167,-0.6028414143540752,-0.39473848685514806,undefined,1498936435810
903d185fccf839df,-0.3257947265653267,-0.6180170954095079,1.5346503292059952,1.552999488754238,-0.8981174045221685,-1.8620438192311073,1.9310473826109606,-0.6842271101830159,-0.40099293943264036,0.6373986717727251,-0.11960947788052492,-0.024806961847780494,-0.9827874331550802,-0.3234548454551558,-0.8844429085259381,-0.045310322766238975,-0.6866121251551438,-0.41802103552765996,-0.9469085162892718,-0.030211370079162983,-0.5870371009318727,-0.4343618998642819,-0.6272930508474477,-0.4092513002790796,undefined,1498936437310
903d185fccf839df,-0.5156786864425237,-0.4970919473405174,1.5065778534987877,1.5016275459925879,-0.9532281676418631,-1.8394781478958713,1.873699204531861,-1.016689047247076,-0.4191400214379981,0.32014531209082203,-0.2214590661994006,0.0035591388928250516,-0.9697317847593583,-0.3188256299456327,-0.8570744890940518,-0.025104254913800483,-0.7085414371141674,-0.39805959539552077,-0.9338944481442911,0.017723986610283342,-0.5662284506837867,-0.4508515066008467,-0.5816608034937769,-0.42332956185767656,undefined,1498936438839
903d185fccf839df,-0.5018185534603662,-0.40493053417947494,1.5231661345985013,1.55458309633327,-0.9140705194545274,-1.821438189568702,1.8713481623304051,-0.9940938403344679,-0.42468577286776416,0.19563316201874395,-0.19682988697066753,-0.04685609437274828,-0.8304715352049912,-0.5650975328309835,-0.8581270823836797,0.049658265388789695,-0.7833347077895583,-0.5253010999277801,-0.9101892534568783,0.0889417974455495,-0.6096316773959922,-0.4745835987264368,-0.592738977827095,-0.4842607859052627,undefined,1498936440301
903d185fccf839df,-0.42974582744773737,-0.413148714925182,1.553152261534867,1.5766687987613774,-0.9549355916898165,-1.782085692009433,1.9102035462165587,-0.6845659907626084,-0.4891660644608261,0.0873454815839801,-0.2610845166602397,0.033508473368214116,-0.8391753008021391,-0.5947241391096243,-0.8633902696988328,0.04157579867720415,-0.843750625772853,-0.6162421712458619,-0.9143103753752113,0.06795371472717052,-0.6614556905825842,-0.4498692413630512,-0.5697447009049232,-0.4779732923676323,undefined,1498936441813
903d185fccf839df,-0.39648147378514953,-0.4378033448462803,1.6112116265892886,1.5506656179682423,-0.9460487495125961,-1.7737167355495012,1.8429041803082835,-1.1107823079772225,-0.5054343999511762,0.26999573476597744,-0.3070974191738955,0.0394867135601817,-0.6563962232620321,-0.5539874777718459,-0.8697060650280812,0.009246129683912713,-0.8623096483548982,-0.5782128443800733,-0.9028705899405166,0.07371272869304721,-0.6371665491291484,-0.4632418928819573,-0.5766892070072787,-0.4665099487581981,undefined,1498936443356
903d185fccf839df,-0.4436059259244851,-0.40316945995711845,1.4478806047013133,1.3355267760631402,-1.0024349413296507,-1.7635845450822891,1.8524477512193989,-1.0400005485107113,-0.5101343474264195,0.10028969215860564,-0.3748476533659901,-5.860756524726759,-0.5954698640819964,-0.592872540971082,-0.8812850255857814,0.021369702560044123,-0.8283632625774829,-0.6196746260103152,-0.9387362423230862,-0.004172609491641538,-0.6797502957258605,-0.47094329083970954,-0.5782291204845604,-0.466456246069309,undefined,1498936444631
903d185fccf839df,-0.3576731014351085,-0.3591431889580527,1.7579543673775504,1.5585166563656736,-0.9610452960627531,-1.7628228845208271,1.8403769391797198,-1.092031072263113,-0.5661262290486044,0.19856153120912523,-0.3467211821352238,-5.90173458162186,-0.9001016599821747,-0.6141666966107914,-0.9054955841642123,-0.18271163503931948,-0.8974498797600465,-0.6419475903134059,-0.9348460157570385,-0.14688540196859903,-0.7172950781929146,-0.4646285319839382,-0.610270364393157,-0.46573134101226993,undefined,1498936446093
903d185fccf839df,-0.2703541601312869,-0.44308647982937277,1.863863907954157,1.6969334248997259,-0.9119516711499794,-1.7855003586802733,1.9323254718081406,-0.5383806793701366,-0.5248946492592027,0.0011170625075004037,-0.2591786303603025,-5.993785738461128,-0.7260263480392157,-0.6113892216983307,-0.9570745916234645,-0.07157825478472739,-0.8375061159420898,-0.6345887094114664,-0.938386401754784,-0.05529544975993091,-0.7004411525418615,-0.44787682520497374,-0.6229611297243954,-0.47565289410872297,undefined,1498936447586
903d185fccf839df,-0.1539289395649345,-0.47537233395404144,2.0629235352876694,1.9505053092695044,-0.7834524581944297,-1.7904080659184276,1.9940627834878901,-0.10140661521705062,-0.5791970630926772,0.126896972926992,-0.2800876789624486,-0.0572042773843152,-0.6346368092691622,-0.5965758667559121,-0.9170745299974449,-0.027124829194614567,-0.8118985056559207,-0.6276414711773574,-0.9422486415544559,-0.02694691159908107,-0.7009945622470396,-0.48619768270372854,-0.5700817711686775,-0.46108252807530153,undefined,1498936449079
903d185fccf839df,-0.16501704595066052,-0.5188115314990012,1.9940186217796545,1.9565130583662849,-0.6674812208188458,-1.834896533979238,1.9161705587528313,-0.6583399644836448,-0.5919451623465674,0.7842099801433465,-0.20510007649239292,0.0305042165095156,-0.7521376448306596,-0.6215733352296771,-0.97602197761121,0.09815285367289146,-0.7890912453020043,-0.6649615081796415,-0.9562492603083159,-0.0007849506453329911,-0.7201083438413601,-0.47891864032439324,-0.5446272749326712,-0.45904026742630744,undefined,1498936450588
903d185fccf839df,-0.01671338150370687,-0.438390301388417,1.800701218818364,1.8357254644644103,-0.5686973819002057,-1.8275943683503537,1.921340767027664,-0.5606916061216799,-0.64142107931061,1.04953078701644,-0.3146348837166027,-0.007779378422136943,-0.8043602384135473,-0.6206474973080822,-0.9633903943149468,0.0072255130060163274,-0.8185967435403425,-0.6695275604049411,-0.9498121951031079,0.04927539516398669,-0.7074948713433694,-0.4762673280619337,-0.5521761187072681,-0.5247380464661248,undefined,1498936452089
903d185fccf839df,0.1121859587465873,-0.43956438984064444,1.3923735370299508,1.3867866356189293,-0.6718629251365508,-1.7648563100114523,1.9674754510912769,-0.19887196320125133,-0.7149885685196208,1.3207028436776178,-0.30122642395299637,-0.01616368543394732,-0.6868594028520499,-0.6771233838868104,-0.9476008986295918,0.06582308575307465,-0.8238635194745141,-0.6847076254196598,-0.9333626920652801,0.12720692747340662,-0.6924602785132894,-0.4876082992162049,-0.5635013104253762,-0.5298161440616409,undefined,1498936453571
903d185fccf839df,0.32286018710784004,-0.3738185931390797,1.3560070478413613,1.2259977379801466,-0.711586286967082,-1.7608104234312505,1.9189686801133683,-0.5195389047734571,-0.5989780299382531,0.7643339644695797,-0.27077135570890437,-0.07114370653446893,-0.5780623328877006,-0.6937884081970314,-0.9518114190327791,-0.035207352435643186,-0.8698813849280108,-0.6899703016820125,-0.9559344039717919,0.1258980596104722,-0.7020656738368639,-0.5063938476682426,-0.5747328130702695,-0.5140067609845627,undefined,1498936455122
903d185fccf839df,0.3852308027802538,-0.3374237217115384,1.024240917573191,1.0540965277579102,-0.7486353696241471,-1.7323284858394683,1.915063409399593,-0.4953652980129948,-0.6979868819307643,0.8184913052900943,-0.2811003268309865,0.05441277447565049,-0.7956564728163993,-0.7215634098617425,-0.9697061822819615,0.08804978441577029,-0.9844822900847123,-0.7498609499394483,-0.9913802475610685,-0.02605380039004085,-0.7650292291391365,-0.5057917494452318,-0.5881505148007592,-0.49101677386990406,undefined,1498936456592
903d185fccf839df,0.3644405860543126,-0.29339753839644966,1.3298487316372107,1.3144135684881073,-0.658491522883557,-1.7588887993291948,1.8675191506794664,-0.8208194300199311,-0.7294093857038512,1.0795786755571921,-0.23121891221788513,0.007063459246432688,-0.7347301136363636,-0.7086017242871262,-0.9697061896441953,0.059761292248828556,-0.9186981116895514,-0.7263973931828511,-0.9894001495997209,0.025115232481738258,-0.7464537182172076,-0.4997114710173439,-0.5898706871701087,-0.48373897524760584,undefined,1498936458101
903d185fccf839df,0.2604894161610825,-0.4295850764165962,1.6565102671392626,1.4837860858170338,-0.5669796727893793,-1.812687237922344,1.9250356340851955,-0.5249449746136814,-0.6020865708357287,1.189721755774162,-0.33006707805387,0.03764712980129823,-0.865286597593583,-0.6993433968742765,-0.9570745916234645,0.00318430791494509,-0.9372310618567796,-0.7235159041363011,-0.9818995683215717,-0.010547566094876672,-0.7557160320866787,-0.4916205059188071,-0.5776020985394458,-0.4467887668966025,undefined,1498936459573
903d185fccf839df,-0.0111694663324828,-0.2881143157293801,1.9882761432704834,1.811032140451613,-0.7003234443228163,-1.7918708283212048,1.9342583700212677,-0.44376315602053856,-0.6124775262003177,0.8560741355148893,-0.30958130473955126,0.0494177774180965,-0.8870460115864528,-0.6974917080803124,-0.9665482846173372,-0.010959952300886545,-0.9141326160995308,-0.7206787454961727,-0.9651072223215366,0.0296115786732147,-0.7399765947893533,-0.485789409651694,-0.5988000661383043,-0.46525823323798526,undefined,1498936461095
903d185fccf839df,0.012392828748004459,-0.23997911511141873,1.8855565296830394,1.7619919429461097,-0.6195704392084078,-1.7336095701736571,1.880302644695402,-0.681991360487841,-0.6641670209413312,0.723986990400554,-0.30712042037570775,-0.04310787714259393,-0.6955631684491979,-0.6900850565106521,-0.9570745989856984,0.0840086075894206,-0.8435714196151314,-0.6840236682278047,-0.9436340092027129,0.08501518452736576,-0.7057605487879697,-0.47508203486466816,-0.6302787632165882,-0.48740763422915245,undefined,1498936462593
903d185fccf839df,0.09971177005182606,-0.2616986115859254,2.2415668166523037,2.074753841245985,-0.6475886811660361,-1.7230790785231105,1.8874188975818766,-0.591351440984408,-0.6584818298086927,1.0152378596866363,-0.49465445303082184,0.015610147642169152,-0.8174158868092692,-0.5650974939786598,-0.9433903414152356,0.15068859051862138,-0.8387005691528199,-0.5532293845016582,-0.9285558820937949,0.13450578951103706,-0.6246572785277118,-0.4821253427194104,-0.623309602872137,-0.44337498425497995,undefined,1498936464090
903d185fccf839df,0.3769147057382544,-0.37147059160257884,2.223702513929535,2.0858768883940715,-0.4627341360152064,-1.736318473675664,1.9569246712149548,-0.11154187648294511,-0.6840508907857055,1.3662934771865383,-0.4870293111528375,-0.014709193000325322,-0.7390819964349377,-0.48732741938328594,-0.9423377481256078,0.22949238657408663,-0.823581810654112,-0.5217799861831197,-0.9031224754929835,0.2661471013679785,-0.5811618077446451,-0.4897886008780291,-0.5384724130133555,-0.45322137367724546,undefined,1498936465580
903d185fccf839df,0.7428224580050812,-0.49474385812003957,1.8536562432436168,1.8104550399989026,-0.20263971787019847,-1.8485854742755803,1.994641352296393,0.01720282687016717,-0.5732689852978257,1.1990422587188205,-0.38876390171403175,-0.09467462694198651,-0.33870877896613194,-0.44936827181029193,-0.9097061266541009,0.10825583813584802,-0.8512245987827654,-0.4928827642440835,-0.9118894788302323,0.16333168160776657,-0.5889201631259929,-0.49922058033994043,-0.5134618080240333,-0.454324821280257,undefined,1498936467203
903d185fccf839df,0.7497525244961599,-0.46363206321960604,2.0476112758110108,1.977524201387945,-0.24950135491380926,-1.8395689887554085,1.8659386497967938,-0.8681020894737697,-0.3828793764674283,1.6207028855238452,-0.15709713607468223,-0.11974051428860477,0.10953514928698754,-0.3993732442073401,-0.9223377246748317,0.12442082808846218,-0.7634345706581551,-0.42042755621792866,-0.9076704024404826,0.17905349527001277,-0.5517342588026216,-0.49295077096647805,-0.5027877215904595,-0.39741414076565335,undefined,1498936468575
903d185fccf839df,0.8329135984323829,-0.5147023680561668,2.226892695055647,2.1532765690519353,-0.2746498776411636,-1.8454945728508683,1.7954125113722994,-1.3700223331146695,-0.413533870697712,2.027581301144508,-0.07848409061792856,-0.166649474477774,-0.843527183600713,-0.3882632280005262,-0.9033903166003848,0.19110078275294143,-0.7486978122954707,-0.3965396931651061,-0.8912209012683584,0.26710180481063833,-0.5239464450921547,-0.5074329036697008,-0.4824006472134861,-0.41657403137712173,undefined,1498936470121
903d185fccf839df,0.8038072846644424,-0.6097988854358085,2.677328836267922,2.6279129741000133,-0.28132529344471985,-1.8349617520249804,1.871474380326399,-0.8894969180307133,-0.35331917479972486,2.3490695830569375,-0.03845175903145295,0.008333452008598374,-0.9305648395721926,-0.42714826529821315,-0.8423376087850261,0.12037948167378326,-0.7819699585396038,-0.4548724354895604,-0.8585597887933744,0.28655004085734337,-0.5443536054584185,-0.4717433109337868,-0.4296562600805065,-0.45636753106203454,undefined,1498936471595
903d185fccf839df,0.7026280723568243,-0.5593155663693768,2.356409016864193,2.2790265855502088,-0.30347039935059006,-1.8260547424863098,1.9007940806167842,-0.6472221589756274,-0.4841155739108391,1.9971867570702522,-0.21870161019297865,0.03235683637759814,-0.8826941287878788,-0.49658575974691027,-0.8318112636036552,0.0395552102640293,-0.7647876495979914,-0.5043833885060842,-0.8842940589592276,0.10463280491444726,-0.6060566902108998,-0.46412732721192257,-0.4618141962567445,-0.4201809012289676,undefined,1498936473086
903d185fccf839df,0.5584825858261568,-0.4078655507140972,2.1969060598453822,2.1764337473496638,-0.22932081762041126,-1.7916448913473808,1.847685155148778,-0.9064676895287664,-0.4687749471559809,1.6324263772850276,-0.32389127543085466,0.017269230226567372,-0.9523242535650625,-0.509547503600012,-0.8065480749244275,0.10421463304477678,-0.7663003256241296,-0.5019262060658127,-0.8906401667852805,0.1114851128553364,-0.6050749306417218,-0.4500220894865275,-0.4766446823082865,-0.4155024814141924,undefined,1498936474588
903d185fccf839df,0.31038599841307885,-0.35562121588129375,2.073131962409058,2.011758846095194,-0.23877336915971173,-1.807560582645301,1.9255300486591007,-0.42055884308763597,-0.30148204962495284,0.8880144853268126,-0.3512596648465865,0.004884560196378111,-0.9523242535650625,-0.5465808132514112,-0.8139165077167065,-0.04733091117941383,-0.7784309551179175,-0.5509811867444611,-0.8555791473048563,0.024807263936294923,-0.6321096148160602,-0.45723553969881503,-0.5010213086312285,-0.4538551323927503,undefined,1498936476085
903d185fccf839df,-0.03195956228948988,-0.37557975504541324,2.1458649407862374,2.026957381398536,-0.5503888470692677,-1.7774109095714825,1.9393970164644496,-0.3939348095674398,-0.3220974482875484,0.37484187978035294,-0.22114097881102696,0.02389781562014663,-0.8696384803921569,-0.6465708814080894,-0.8707586730421767,-0.231206237455782,-0.9019348792534638,-0.6322645187552002,-0.8843570290214714,-0.15857282146998897,-0.7064001026964101,-0.47951307024324774,-0.5916791202951373,-0.44857144054710985,undefined,1498936477586
903d185fccf839df,-0.20105346071508953,-0.48769961968659825,1.7152072617997876,1.6411350351284413,-0.6734366424229054,-1.7942862500202834,1.910174605808197,-0.669000098701993,-0.4014720985986604,-0.1485557440705622,-0.13897397334531378,0.00120716800492513,-0.8739903631907309,-0.6724942396065473,-0.9097061340163347,-0.3241542089329143,-0.9312086810839575,-0.6524159458411781,-0.9157237308236277,-0.20071836644107816,-0.7378637804556654,-0.48608508123354754,-0.6160820263768181,-0.4234435113199313,undefined,1498936479103
903d185fccf839df,-0.21907153007566513,-0.4571748105562938,1.6750127077420331,1.6092111185901108,-0.7989941502785608,-1.8084946114441318,1.8277433460562549,-1.2488872994462898,-0.36428542510823464,0.3115726999665065,-0.19788433483401865,0.03072739641320952,-0.9175091911764707,-0.6502742071929194,-0.892863971419014,-0.3140511538081539,-0.9190602465879584,-0.646608636217713,-0.9142194167298245,-0.20693933762056405,-0.7320542801205504,-0.47990454938987076,-0.5980439945125291,-0.36790681407935744,undefined,1498936480584
903d185fccf839df,0.060903397701784996,-0.3626653374027657,1.6692704833698115,1.6185446447578593,-0.6427544018595134,-1.8225282765878361,1.8858462813957468,-0.8368386212581549,-0.456733430359948,0.5445572905880876,-0.2327129490974598,-0.009428574519824122,-0.9784355503565063,-0.6280541747792916,-0.8423376087850261,-0.330216087231325,-0.9076468811638381,-0.6691602485532459,-0.9117355486300387,-0.16981368648423045,-0.7378275322521525,-0.47333748603119985,-0.5734695522355246,-0.37571630100879455,undefined,1498936482089
903d185fccf839df,0.042885224824980216,-0.45247873441331116,1.7898546538169733,1.725320913182284,-0.6381566926486316,-1.8858206929568002,1.917732681913151,-0.7048343994053399,-0.4877940227328433,0.8382015809079078,-0.3074894686582493,0.02458276327131861,-1.02630626114082,-0.5910208392263433,-0.8654955225381926,-0.19281466189935834,-0.8671016741464541,-0.6580269336735874,-0.9380225674607385,-0.049705813618672594,-0.7271996384280295,-0.4593619894872522,-0.5137721849578863,-0.3480795733587932,undefined,1498936483590
903d185fccf839df,-0.08185611003607643,-0.38614601039760205,1.842809678242226,1.7446594969175862,-0.6488023951490265,-1.8493238427302703,1.9403411211455073,-0.5154544946198653,-0.46487299454758685,0.5729269443615824,-0.30354816932513906,0.014201652394485311,-0.9784355503565063,-0.5900950013047485,-0.8665481305522881,-0.2594948144168884,-0.8388143287004387,-0.6308712700111575,-0.9415209728623748,-0.1011982148814217,-0.725038082294663,-0.45198137717743847,-0.5102546940343722,-0.380293523727862,undefined,1498936485085
903d185fccf839df,-0.12066451689152723,-0.4336942690874229,1.6788407726111978,1.5473858030489738,-0.6867771889711451,-1.8186524194682205,1.8862801937296392,-0.8287466388692775,-0.5631912572393186,0.8109646462720619,-0.24431865105971382,0.0001406110802044696,-0.9349167223707665,-0.6095374811012684,-0.8528639392419294,-0.09582557012531942,-0.8333546433198088,-0.6099218919553883,-0.9245886909628932,-0.05155362693760387,-0.7017209875903524,-0.45160595111788054,-0.5001188274657716,-0.3618609225871372,undefined,1498936486588
903d185fccf839df,-0.02918763920928758,-0.5505103121695637,1.4714868776593542,1.4989172359335798,-0.6895646120143476,-1.8538355768731676,1.9239337469576887,-0.6369132662013172,-0.5355685866097979,0.6174417550755666,-0.2497110007973282,-0.0023118282665884316,-0.9697317847593583,-0.6299059024255793,-0.8770744610091914,-0.029145417607789416,-0.8428715464805542,-0.6226891080367902,-0.9297173529501227,-0.057358836832160934,-0.7108842648749754,-0.4506354898572424,-0.507895230707909,-0.3841413261244966,undefined,1498936488122
903d185fccf839df,-0.11789245578968599,-0.5599025521395059,1.1869340557181136,1.185353501733782,-0.779564460960911,-1.8634716402345881,1.9232368537536706,-0.6964141778602658,-0.5866747868977356,0.4066395772738164,-0.13617176087941646,0.009822866844641091,-1.02630626114082,-0.6086116820319971,-0.9065482142650091,0.1931214559602809,-0.8384676389179312,-0.6401996976425157,-0.9305149896898,0.0495063737707913,-0.691770144481163,-0.44588822064348405,-0.5251649082197052,-0.37618487006919044,undefined,1498936489591
903d185fccf839df,-0.18580721091848706,-0.56166359713387,1.310708153154438,1.2920190850550222,-0.7563702119245876,-1.8570149893673191,1.9070162155146844,-0.7899966158707385,-0.5565728647137279,0.0971207809798864,-0.11505995779627066,-0.01667096548208911,-1.0001949643493762,-0.632683351436491,-0.9097061266541009,0.2618220273026565,-0.8486022392133316,-0.6709208074769107,-0.9405204292128629,0.17303270318128872,-0.679323168824995,-0.4550403331473898,-0.5400272734331778,-0.41816608296415336,undefined,1498936491094
903d185fccf839df,-0.0984883041200752,-0.5757519863167757,1.0880419987259353,1.0341246479316868,-0.7924215795222839,-1.8753228098860646,1.9051700819604656,-0.8477181126297545,-0.4644623555613001,-0.00218300753730375,-0.07871220522861755,-0.02666587466038376,-0.9740836675579323,-0.6678650499985733,-0.9476009133540594,0.31839906816598307,-0.8680427395472111,-0.6876017818041711,-0.9701659162489358,0.22250790861560438,-0.6861561414428852,-0.4648668757821761,-0.5318756452991562,-0.41668063776483444,undefined,1498936492581
903d185fccf839df,-0.2966884818082057,-0.5610765821357487,0.8507019768377259,0.7246562766109841,-0.8804465774701994,-1.833338273062543,1.9391787349205538,-0.6061157389071471,-0.4078462147994419,-0.09396507880659169,-0.08186315345256247,0.013738728636415256,-0.9653799019607844,-0.6558292411978756,-0.9581272069997938,0.3365845617376075,-0.9056564947301559,-0.7111033353480394,-0.9802133372673163,0.3129275795223093,-0.6776063909341191,-0.4594031161824868,-0.5890190229537536,-0.4520564249633188,undefined,1498936494101
903d185fccf839df,-0.22600163107215362,-0.5810351797558528,0.8679283958174415,0.9216506762301475,-0.8131986908448512,-1.7830290364259889,1.9093751502690965,-0.7037953902612499,-0.4091159984023448,0.19157816422047683,-0.04227469016967793,0.01954628854464442,-0.9175091911764707,-0.6493483757467119,-0.9812851428396616,0.43155312162791465,-0.8262616016612798,-0.7095201007685645,-0.9501760279963463,0.4153118426754022,-0.6553656127161648,-0.3914681974440324,-0.44820726993683146,-0.40839371299379307,undefined,1498936495600
903d185fccf839df,-0.23154568426501662,-0.398473310744155,1.0778338257414963,1.0294280267761922,-0.7521222225546137,-1.7399777072732616,1.8899329959782527,-0.7238740882649859,-0.4848771798872121,0.470516989562208,-0.0908054157347224,0.015487856909096868,-0.7695451760249554,-0.6160183724539811,-0.9633903869527131,0.3103166862485621,-0.8032793105574794,-0.6748978974683327,-0.9488046529544105,0.37218079995552406,-0.6469123494822491,-0.4174525051869398,-0.49906172029583684,-0.3996368498560614,undefined,1498936497090
903d185fccf839df,-0.12482255678617449,-0.315117093326941,1.2992239585469438,1.2691479015370866,-0.679875481683141,-1.7270085040765595,1.920859509327491,-0.4424806202208958,-0.5721339543442376,0.7220837046435479,-0.10630253165915372,-0.03615521987661866,-0.6128773952762924,-0.6299058765240303,-0.9697061749197277,0.18099775589290257,-0.8904231707638425,-0.6800149151679222,-0.9701309324208836,0.20193558824567662,-0.6943088797953185,-0.3909972719194681,-0.4865213261342798,-0.3885811715433855,undefined,1498936498584
903d185fccf839df,0.26187549847011776,-0.3180521683175479,1.5678268914054225,1.6732086974962512,-0.44425073431400436,-1.707768987359657,1.871374444128454,-0.6542374441948681,-0.6179041107763504,1.416477487936718,-0.26033813398430555,-0.10954202224745999,-0.43880208333333337,-0.5919466900987126,-0.9654956618787742,0.31031662971911905,-0.8310803564962473,-0.643803143303645,-0.9641066793265504,0.3384274076988119,-0.6481819080249397,-0.37100017763765736,-0.45602790188372894,-0.4072283700700806,undefined,1498936500101
903d185fccf839df,0.23969928569866572,-0.32509631906701225,1.7898546538169733,1.9106161673659314,-0.4238336282032982,-1.7458730122958668,1.8173371943714547,-1.0526434469072525,-0.5627266994324831,1.4076990930443614,-0.2466486965861962,-0.05478411354758775,-0.673803754456328,-0.5845400126275033,-0.9644430244157436,0.261821999037935,-0.7768901786101491,-0.5975853197370051,-0.9543461274195384,0.27783452784284485,-0.6433399131426798,-0.36778258699284694,-0.3997818186951258,-0.36956765218157034,undefined,1498936501590
903d185fccf839df,0.2771215412342618,-0.42136689567088914,2.1069461542145884,2.129945380603513,-0.31882694963022185,-1.8049029198138702,1.8385307993403697,-0.986194070573442,-0.3847602816726245,1.737401720928016,-0.08942578472156723,0.045249891683381595,-0.7521376448306596,-0.6215733481804516,-0.9276008604543482,0.20524498643933,-0.8003235081278781,-0.610175209669264,-0.9390580961678318,0.26690162994704175,-0.6416689633289431,-0.4069109259987654,-0.4546909265578374,-0.3676383711327169,undefined,1498936503096
903d185fccf839df,0.12743203601614111,-0.5293777722371937,2.1401229705509652,2.048894060709461,-0.30267840494373893,-1.867098266051513,1.8710246844578766,-0.8858103510704359,-0.3325143260874326,1.5557607816755423,-0.05746335856043708,-0.03431075332955368,-0.8739903631907309,-0.6002791277868694,-0.9297061353804094,0.12442065850013297,-0.7905343782799078,-0.5664082356158281,-0.9501970184656786,0.3162844425950972,-0.6184356664115346,-0.41115296942471263,-0.4788772193747416,-0.3976722115918088,undefined,1498936504766
903d185fccf839df,0.13159014492160784,-0.6227132446224714,1.9927426001565998,2.041433170502483,-0.336590340003466,-1.8779571797898393,1.986833451147523,-0.1533199112683294,-0.373453288824277,1.5863718907161757,-0.09580263321976311,-0.005886326009560549,-0.9088054255793226,-0.5632458181354703,-0.9233903547756285,0.023390276840858204,-0.892705742510508,-0.5316847054105414,-0.9462927980026099,0.3626645592023272,-0.5918727618487603,-0.41531713613819304,-0.48910477611389275,-0.42880985054904086,undefined,1498936505828
903d185fccf839df,0.12327396161608412,-0.536421922986658,1.713931494313682,1.690631603411731,-0.6162275873708273,-1.892431073838055,1.9386632997268098,-0.568845286716084,-0.5008597769335752,1.2933045775132188,-0.30798279300823433,-0.09862221836534679,-0.8609347147950089,-0.583614187656683,-0.9265482156290837,-0.0776401330831381,-0.9385215624921699,-0.5496576003697963,-0.9306619220147482,0.23575057351682258,-0.6173467871232106,-0.4183525635978737,-0.4777301059963822,-0.41809347518180245,undefined,1498936507338
903d185fccf839df,-0.009783349518037844,-0.4818294697053844,1.5927094401234674,1.65910660139518,-0.7076365760474618,-1.8533115012543113,1.948956364101303,-0.45936726733915406,-0.6001184022167908,0.9740062348882276,-0.2951924974111464,0.07969584618543638,-0.7738970588235294,-0.590095014255523,-0.9065481921783077,0.01934921307339465,-0.8813352630426001,-0.6021387053441101,-0.9446135627437988,0.14560807107410081,-0.6553361018066947,-0.4597542978055265,-0.5054307111446403,-0.4516530912279499,undefined,1498936509080
903d185fccf839df,-0.06938205936295413,-0.46774110975047106,1.6277999076890022,1.6115925866685972,-0.7145588487359819,-1.8533930247361154,1.9763010772766425,-0.28847636203662663,-0.6012279336741202,1.3836716557149633,-0.2232409860584485,0.07329283121079615,0.09647950089126561,-0.5762074842839247,-0.9297061280181756,-0.061475114865802385,-0.8975312015706814,-0.5940895356741946,-0.9642466135988583,0.1597900408648339,-0.6555749047723176,-0.47370088968749474,-0.4612002818605315,-0.4811577557998026,undefined,1498936510534
903d185fccf839df,0.15238027538402465,-0.3579692758737793,1.5588947400440383,1.6099217995940927,-0.6162275852082639,-1.8606858726497622,1.9866993295995945,-0.1911629748266085,-0.5823166221799537,1.1430670224352162,-0.21465934459506206,0.16378585330093703,0.1835171568627451,-0.707675925217855,-0.9233903326889271,0.013287334774983952,-0.9324118839215872,-0.6509403718855689,-0.9583762906190797,0.06418109361387092,-0.6946548752820412,-0.4859255881063447,-0.5263978003121932,-0.47539358942463117,undefined,1498936512051
903d185fccf839df,0.08862366366610004,-0.36736148661572915,1.5435824805673795,1.5887829214731712,-0.5263717399292575,-1.8681906810889586,1.9595123983469431,-0.3613911378301149,-0.585118440491695,0.9252619502435269,-0.28197581226307256,0.05946445688553828,-0.7913045900178254,-0.6854558928042273,-0.9033903166003848,0.059761235719385485,-0.928393416197733,-0.6391927611037834,-0.940100620615316,0.1059416785661748,-0.6774296672032784,-0.4612292753605284,-0.5180082530982626,-0.4256610460998881,undefined,1498936513587
903d185fccf839df,-0.06383790265386192,-0.2963325549310719,1.341332417970806,1.2950703907811798,-0.6410778366151214,-1.8514085119648025,1.9476230490313866,-0.4384651170856775,-0.591066660782847,0.6957782068855002,-0.34915468014262674,-0.0021717176595125874,-0.7260263480392157,-0.6141666966107914,-0.9265482450780189,-0.023083567574100256,-0.9097567059501538,-0.620561240544673,-0.9474612660490722,0.17113869618188254,-0.660754018226694,-0.47583766872630384,-0.5272684792017067,-0.4084140137044557,undefined,1498936515046
903d185fccf839df,-0.01671338150370687,-0.3726446215988216,1.8243074917764048,1.7745596725488249,-0.6255258690946245,-1.8832398941076167,1.857047270144663,-1.0611525141814087,-0.66231816786422,1.0447832180744452,-0.38615564407937064,-0.03366484453945346,-0.6346368092691622,-0.6150925086308371,-0.9160219219833494,-0.08168122511532318,-0.9102633384687215,-0.6166221497877286,-0.9269816011758077,0.1842427764607022,-0.6541302011079025,-0.5142640354553216,-0.5732174578840723,-0.41865260999104864,undefined,1498936516537
903d185fccf839df,-0.08047016574868016,-0.5141153530580453,1.5697410509084795,1.7699617000513357,-0.5287888920827745,-1.9150922405880555,1.9444541342864108,-0.48149682706478103,-0.6727972813611303,1.0001726358638694,-0.29943848325252176,-0.18745637586227198,-0.673803754456328,-0.564171630155516,-0.9097061045673995,0.0294521551392689,-0.8231306977769396,-0.6057738166150295,-0.9073135663214184,0.3771237041747365,-0.6098864561757406,-0.4855926681537311,-0.5504307713636926,-0.37687104155284634,undefined,1498936518038
903d185fccf839df,0.32147410479880484,-0.5528583721620492,1.6820309537373097,1.6484987497485657,-0.4444050343873889,-1.9022860830158166,1.8916265820761884,-0.8108513439124483,-0.6100916090124299,1.171633689906537,-0.20453893526404424,-0.053921188440221014,-0.1820409982174688,-0.5030666381488484,-0.9023376717751205,0.007225484741294791,-0.7983100009841116,-0.5812463262120338,-0.8879673831708031,0.38409919945033655,-0.5921208525360339,-0.487163068729146,-0.5443300231969195,-0.33884874089218947,undefined,1498936519574
903d185fccf839df,0.3270180889808484,-0.5657727313487121,1.9385112999713427,2.007722991053567,-0.3557320396125934,-1.9014545454757912,1.8611471347920086,-1.0131789848563895,-0.5364210529772256,1.3111091571899751,-0.21045784016568064,-0.0834833227153368,-0.49537655971479505,-0.48269830747995923,-0.9012850490365575,-0.017021774069854168,-0.7919265566621254,-0.5811513314644496,-0.8829436727839541,0.3813120787379006,-0.5905526031235454,-0.49679022254828326,-0.5982983920924893,-0.3241631217195111,undefined,1498936521050
903d185fccf839df,0.4476015219688967,-0.43604229985191617,2.109498705734597,2.0551507075874693,-0.28564529971639685,-1.872262190328021,1.8571498356223106,-1.0034445969369468,-0.5187112833567328,1.6232766482528047,-0.16078773922728287,-0.014752962510620606,-0.865286597593583,-0.49658578564845934,-0.8907587259418879,0.0739055524646602,-0.7707140694045558,-0.55664917237662,-0.8721266038170197,0.34755868671004747,-0.5805461635033292,-0.4929700227042823,-0.6178995014650328,-0.3150856067293797,undefined,1498936522558
903d185fccf839df,0.4323554446993429,-0.5340738629941725,1.7298816375333934,1.7935769206972332,-0.25422249279723297,-1.8727955865868533,1.9081917465668694,-0.6186257622818327,-0.6164626635999868,1.5234675593537093,-0.17532488826251824,-0.03004505608938904,-0.852230949197861,-0.4854758082939691,-0.9118113794934608,0.021369801486569497,-0.7666405506600235,-0.5713416004845663,-0.8723644951788467,0.30067041755286933,-0.5969475936041044,-0.4799894056904093,-0.6113250880124624,-0.31209121530993583,undefined,1498936524028
903d185fccf839df,0.24385736009872272,-0.5528583867760454,1.239250942263364,1.3525414329359837,-0.34357433231363366,-1.9014126201425174,1.923576108351938,-0.5801574605644261,-0.6067255917283648,1.1372025219849031,-0.1233853414766454,0.006882736840248061,-0.6868594028520499,-0.5567650174381794,-0.9349693153333286,-0.021063007425646943,-0.8581248101830778,-0.6106248502316985,-0.8961816394703436,0.2478383500015901,-0.6339232072845015,-0.44612963122951904,-0.5693729628454403,-0.34131331127060993,undefined,1498936525541
903d185fccf839df,0.21336492951633723,-0.6215392146262286,1.1703455204814506,1.2740341016415913,-0.3340806305202347,-1.903655678009909,1.891797530300304,-0.798751141536568,-0.4298843495036966,1.1586777937700057,-0.007832163294487321,0.03674680996216433,-0.8391753008021391,-0.5891691633831537,-0.9918114512098636,0.03349327543617553,-0.7911123250652587,-0.5940642026703452,-0.9092866664014035,0.31571469680185626,-0.6173885064771625,-0.4424977282669101,-0.44459309027586663,-0.40662856473191183,undefined,1498936527031
903d185fccf839df,0.09555366114635934,-0.6051027946788298,1.2411651017664211,1.3120490044244628,-0.17539289284976195,-1.910345253613052,1.907694708998392,-0.6851993100798179,-0.17324584518460717,1.4828642467065711,0.1783020233341668,0.04572735567322706,-0.7608414104278075,-0.6039825053747977,-1.0202325522781832,0.15068864704806445,-0.8073734718948291,-0.6041462492372932,-0.9651981819578873,0.27735717011059363,-0.6432032317347192,-0.4560289064310678,-0.343336163836087,-0.4703935752042549,undefined,1498936528531
903d185fccf839df,0.062289411000000745,-0.49356979889580443,1.5442206184473817,1.6906122842347548,-0.19335172191545863,-1.870361531962535,1.9265241232722938,-0.4673445667176099,-0.2578512329867464,0.8137940167439897,0.11371024978112337,0.13046882393361292,-0.7956564728163993,-0.5891691633831537,-1.0402325683667253,0.18705952113242713,-0.7494407822345389,-0.63173888483969,-0.9870562191672122,0.3415840832803566,-0.6524743360168063,-0.4361318635208894,-0.2925913813892037,-0.47658511363423395,undefined,1498936530036
903d185fccf839df,0.20227675411979174,-0.44308650905736513,1.5053018318757327,1.488073323053446,-0.1922203005025973,-1.8368833759779903,1.9316390815813893,-0.3841642192712009,-0.46484209724709713,0.6500643618601091,-0.029304198485009748,0.1340175899222518,0.0660163213012478,-0.5549133415949898,-0.9981272759880473,0.23151300325198304,-0.7483908957509287,-0.6042539096507655,-0.9785690870477355,0.30496657982061487,-0.6450686654423812,-0.4301101341199035,-0.3163721125804445,-0.48308876815533736,undefined,1498936531544
903d185fccf839df,0.03595508932308198,-0.36325232317289474,1.3789754370563492,1.3229912287930028,-0.5356700131408374,-1.771107989020821,1.847232820049096,-0.9641574699763031,-0.6261725025769895,0.3105920597233456,-0.19009753269424884,0.1471877224668882,-0.30824559937611407,-0.5502841908393394,-1.0012851515659702,0.15472982387441417,-0.7494108122897359,-0.6285090843393533,-0.9899319080215663,0.1512284979809006,-0.6806929278746283,-0.47440471230891973,-0.49902681289685674,-0.5377540761619679,undefined,1498936533034
903d185fccf839df,-0.1123485061130522,-0.5452272064144635,1.324106507264989,1.1749772094588062,-0.8283392328684309,-1.8100412237328918,1.9074580088787938,-0.7163830648297825,-0.5178917259922647,0.37769574916667054,-0.247146508841327,0.0723284995000214,-0.9262129567736186,-0.6456450434864945,-0.9749693548726469,-0.08976372009163026,-0.866293152330582,-0.6707181537332408,-0.9883786160986999,0.019756571110526366,-0.727601832509087,-0.4716052035825457,-0.580260074556208,-0.5236939060003243,undefined,1498936534574
903d185fccf839df,-0.2578800059419354,-0.5387699829791436,1.2418029855094739,1.0827746333076524,-0.9209310764044111,-1.8287426861012228,2.009389299024455,-0.10618768226035775,-0.5712139306250915,0.4791733242754908,-0.22681450429689354,-0.024174743410796402,-0.8348234180035651,-0.713230907419713,-0.9991799060888441,-0.21302077214887913,-0.8801583927297311,-0.7175249411006347,-0.9898199593105732,-0.0779927589804856,-0.7706530845606462,-0.4706505057009572,-0.6022717818724088,-0.501240404057691,undefined,1498936536038
903d185fccf839df,-0.18164918827654467,-0.5816221362979895,1.2717896207197386,1.2734816584745086,-0.9591115871240693,-1.8193768167723272,1.9394864276871702,-0.5592860423860644,-0.5964358357596076,0.45300394985519793,-0.1591129025660682,-0.007612966741176781,-0.9044535427807487,-0.6549033838501189,-0.9928640886728942,-0.31809241542866823,-0.8411045151894089,-0.7016672503373018,-0.9942909211671508,-0.12431128183285552,-0.7745446563927487,-0.47474959625439606,-0.5661174846105947,-0.4798252433185743,undefined,1498936537537
903d185fccf839df,-0.32025060436164426,-0.5017880380974962,1.2271286097758678,1.1976524373095996,-0.9505950282297624,-1.8209280895686284,1.8843867362833364,-0.8923460090823008,-0.6532579296438662,0.3782916146951643,-0.23700363254463389,-0.05158790215544867,-0.9088054255793226,-0.6715684016849525,-1.0054956866936249,-0.2695978412769272,-0.8970481711781274,-0.7261567426574467,-1.019276533168672,-0.1751107533870793,-0.8049980835579016,-0.47525786803962206,-0.5220498858056278,-0.4754682072874344,undefined,1498936539053
903d185fccf839df,-0.20243947401330528,-0.43545528485379476,1.412790391272728,1.4500462828646647,-0.9015322567611541,-1.7899002950479395,1.852129532430036,-1.042821718805446,-0.5621667843224499,0.371109045922545,-0.18672276860667683,-0.01318216078532363,-0.8348234180035651,-0.6613842169243461,-0.991811436485396,-0.2857626333764906,-0.8945773719054495,-0.7082218455042094,-1.0056047639999484,-0.15589349207003356,-0.792806834510597,-0.4749579837762956,-0.5061601489111754,-0.46121616053781866,undefined,1498936540540
903d185fccf839df,0.18564473256284164,-0.5017880965534809,1.895126818924426,1.780052019530426,-0.5632151093357328,-1.805308211001283,1.8630879355095495,-0.8792586825065681,-0.5890391954727436,1.1705041445514914,-0.27343768827430665,-0.09314919916044646,-0.6085255124777184,-0.6410158668292951,-0.9854956706050827,-0.15846437622817053,-0.864529076107402,-0.6648601806046499,-0.9786740380058246,-0.05095308752481168,-0.7451568529232253,-0.43045300682289966,-0.5115296467884296,-0.4032475920871495,undefined,1498936542037
903d185fccf839df,0.07337748288031704,-0.4413254056070163,2.0137968298685305,1.8492005194681025,-0.689883468360472,-1.7970114600021254,1.839288187975509,-1.0482587954026996,-0.5303632158156317,1.006872773179059,-0.36486759930242696,-0.03422552350851919,-0.7956564728163993,-0.6234250240236412,-0.931811395582003,-0.18069099009670156,-0.8475649823885334,-0.612651392374564,-0.946537685526905,-0.0996583694348182,-0.7163418720318898,-0.43661991381770937,-0.5485755345701464,-0.3997034926412646,undefined,1498936543535
903d185fccf839df,-0.12205053018974299,-0.456587854014157,2.122258921965146,2.043349406582307,-0.8913391274391054,-1.8417258641778216,1.8510539412421223,-1.08764317099471,-0.42975794962882563,0.29402986420807053,-0.32779173528443306,-0.03290166533358897,-0.6825075200534759,-0.5947241779619479,-0.927600867816582,-0.2736390322356377,-0.9168144812585809,-0.5773958949114496,-0.9389111621117553,-0.18758349510054603,-0.7091159127210453,-0.44549036375536266,-0.6039747959354369,-0.41584269038721217,undefined,1498936545037
903d185fccf839df,-0.09017225883619041,-0.49356979889580443,1.7458322890270037,1.6534485326563837,-0.8836659991448497,-1.8728887558660838,1.9599568304184516,-0.4500870934347673,-0.22240089159209864,-0.06799761120275737,-0.1257683829937085,-0.005382911550662346,-0.5563029188948306,-0.5734299964206894,-0.8276007505627017,-0.303948126948115,-0.9314924629807076,-0.5179358879701663,-0.8740857087826885,-0.08256609686070128,-0.6345595103680841,-0.43794871812191505,-0.6156807857656014,-0.365634752248927,undefined,1498936546545
903d185fccf839df,-0.06106597957365962,-0.5604895671376273,1.4842473480268523,1.4834820953706016,-0.7202879877939214,-1.860674226217646,1.9940338593161164,-0.22138426557252402,-0.16419287418948797,-0.09250127431358936,0.1844163898950313,0.006986375571991836,-0.5432472704991087,-0.5215833059253225,-0.7644427825457493,-0.28576266164121217,-0.8628244851695648,-0.5037690936448503,-0.8325456420083841,0.013905166108489492,-0.5915752426660504,-0.4564750606109606,-0.5668649307592568,-0.38021786618312425,undefined,1498936548037
903d185fccf839df,-0.005625378634210056,-0.5252686380223517,1.2296809071589272,1.2255392239188616,-0.7292262574860813,-1.8690408530840936,1.9017776375874054,-0.8803296707338129,-0.1592960879275709,0.2528454966794676,0.32316086756833207,0.005799836861900013,-0.6955631684491979,-0.5484324890946007,-0.7686533029489366,-0.182711663304041,-0.8251125413181973,-0.52923386095785,-0.7528869510215687,0.08760212733372322,-0.5544219728449797,-0.5014891528180729,-0.5303035994630427,-0.3997396906817048,undefined,1498936549562
903d185fccf839df,-0.4408338993280536,-0.5546194171564134,0.8749463876757687,0.8040376416811249,-1.0218234819336032,-1.9065602387677756,1.8688445768627526,-1.2151993944089128,-0.3606855452989138,-0.26022710316019043,0.2575267277589316,0.058819853056447845,-0.9653799019607844,-0.5752816463623299,-0.7254953583827602,-0.0008569537055692197,-0.8140799131616402,-0.5965340529413411,-0.708779054386373,0.15544767823930783,-0.554428784684185,-0.47968072506636794,-0.48698210715901663,-0.46985059648012717,undefined,1498936551050
903d185fccf839df,-0.5281528751372849,-0.5657727021207197,0.8321992820980058,0.8985702165726466,-1.0661959794336806,-1.9111208888963047,1.9409880470361944,-0.7562217931199051,-0.35570360879825835,-0.2554010683824177,0.22200881105619624,0.06704755771007857,-1.017602495543672,-0.5780591601271143,-0.6865479121330698,0.04561694723883231,-0.8071926994827746,-0.6094912557938718,-0.6723186726143893,0.19402078383993412,-0.541229045127412,-0.481357418903498,-0.4735260038683135,-0.502614951661668,undefined,1498936552718
903d185fccf839df,-0.23015973997762035,-0.48300352892961945,0.9304534553471312,0.8496024819615403,-0.8742237273790447,-1.8257612576390445,1.9180955843159164,-0.6710519135076232,-0.25331705473344984,-0.35561054029691785,0.015168121147892915,-0.006992279238995194,-0.7216744652406417,-0.6150925086308371,-0.6981268800530037,0.27798690419638455,-0.7248564920111216,-0.6085856435136682,-0.6621942870984425,0.3905511423169998,-0.5021705743547958,-0.47374816112156415,-0.4633955196656896,-0.5404615798944313,undefined,1498936554038
903d185fccf839df,-0.24124784636334637,-0.3292054825098466,1.0070144985934752,0.9064315272589075,-0.7543645009040607,-1.7245977414330722,1.9231553324651018,-0.44629413096952336,-0.34721130447217724,-0.3980902145180562,-0.1125569252160017,-0.028804861246677128,-0.7390819964349377,-0.6299058894748047,-0.750758547061988,0.1143176316400941,-0.810747050364189,-0.6457853532849654,-0.741258251919535,0.26369874700731566,-0.5702952720037853,-0.47775619938728453,-0.509622065572333,-0.5278298612816106,undefined,1498936555537
903d185fccf839df,0.0816935281642018,-0.31394300487471355,1.225852588152813,1.0122855995366244,-0.43807931915972276,-1.704154008176898,1.836676790517304,-0.8907758458771055,-0.5330612860619033,0.43227749355037554,-0.14183224153762938,0.019635502970939207,-0.7347301136363636,-0.6058341941687618,-0.7054953349319842,0.025410921783476127,-0.8408422744342379,-0.6230120878598207,-0.7999335068975665,0.19434414983461293,-0.6033349607052523,-0.4754659294894791,-0.5102906097717843,-0.4907248743831929,undefined,1498936557039
903d185fccf839df,-0.09433029873083768,-0.5129413230618026,1.2328708341480896,1.147665936233552,-0.5381385852153162,-1.8367482801400499,1.839464393711508,-1.124244029905849,-0.4474208576740798,0.23638442206073396,-0.11990399774340532,-0.03239301981480362,-0.7651932932263815,-0.5530616657518002,-0.7907585939635401,-0.02510421251671818,-0.8384815872742766,-0.5797390830422647,-0.8555931385898923,0.14730189743457955,-0.6164549303001898,-0.4702575163068921,-0.5048216085236632,-0.46284147131033765,undefined,1498936558526
903d185fccf839df,-0.19412335971860104,-0.41490974530555,0.9732000526509953,1.0238659882051335,-0.7140754315119183,-1.8609956607105422,1.9210304533615195,-0.6355517179126678,-0.5076079695540665,0.09666365084836313,-0.1416151238466328,-0.08593069233830035,-0.852230949197861,-0.5030665733949756,-0.8623376322358022,0.21534801329936887,-0.7563128101351291,-0.5381063124144232,-0.8819221372276006,0.19777800084015515,-0.5977599737793406,-0.4688912423220082,-0.44912225719622983,-0.4475419458672954,undefined,1498936560044
903d185fccf839df,-0.29391638620095467,-0.32744443751548247,1.0280689824423557,0.8844040598428872,-0.9122705302408186,-1.8115109742814324,1.931192020230178,-0.5488285812806475,-0.5000679686145449,0.09341153609784728,-0.1901522013889307,-0.12409040539494777,-0.5780623328877006,-0.3734498989596567,-0.8897060884788572,0.1426061803364789,-0.7181094492133071,-0.463402908142581,-0.894838249634933,0.14132730369775148,-0.5826464953574115,-0.48525547518246287,-0.26639383447108866,-0.4622813590562965,undefined,1498936561525
903d185fccf839df,-0.3895514072940708,-0.32685742251736105,1.4153421803818884,1.4430360256679198,-0.9277196480608246,-1.8095590706525895,1.92399423086607,-0.5730317866355868,-0.523257983325178,0.17602490110070385,-0.22499632404248743,-0.05919189618409668,-0.7521376448306596,-0.3743757368812515,-0.8665481747256908,0.12240012661640119,-0.6788860033122341,-0.4324538122361398,-0.9082301456528932,0.1302712211462372,-0.577609721179467,-0.4755176736629386,-0.24901314274934627,-0.4458407841749193,undefined,1498936563027
903d185fccf839df,-0.3992535003815811,-0.3180521390895556,1.250096998990856,1.2167359378121343,-0.9470156170653459,-1.776178742649959,1.9143559912203503,-0.6111049042418804,-0.5417389993861927,0.16795124380882012,-0.19379863716731624,-0.009571448819244145,-0.7521376448306596,-0.36604318263612373,-0.8718113105052073,0.1769564377429452,-0.6491242666346241,-0.4302309484904654,-0.9142893843308751,0.17739046426572322,-0.568448024239349,-0.4768156427439618,-0.24204236966913786,-0.4694592012500236,undefined,1498936565146
903d185fccf839df,-0.3853934019048333,-0.34681593245348824,1.2896539234425068,1.2273827569164892,-0.9046385465231827,-1.7547287797251492,1.8872032421751177,-0.7368690911925139,-0.5049422031080132,0.29910690350131436,-0.22179477900536934,0.07924819840206233,-0.5606548016934046,-0.33641652455438475,-0.88549556807567,0.24565723520309313,-0.6670579178243506,-0.4280017519616768,-0.905459408943338,0.2075560203623903,-0.557212330019891,-0.4872069963996054,-0.26382132065091424,-0.46575998447427575,undefined,1498936566042
903d185fccf839df,-0.40479758807985383,-0.36207835163263663,1.2022465693317217,1.2607799095426575,-0.8485506360132261,-1.6799532124922403,1.9096986087624723,-0.4785246426930358,-0.445974328041918,0.46419561529608067,-0.2048374810952216,0.09308162328407901,-0.2516711229946524,-0.29475399939346253,-0.9002324189357607,0.3790172575909378,-0.6355735761124632,-0.40542480816148774,-0.9004077118696349,0.4056570193595402,-0.5032403759963664,-0.5077458338317107,-0.27658960045188863,-0.42030142370543894,undefined,1498936567563
903d185fccf839df,-0.2925304074081487,-0.2898753899517367,1.2009705477086667,1.1942351583665958,-0.8020284271139217,-1.6307806451267601,1.919602469033238,-0.33350756911913565,-0.4329308750205663,0.269996764311585,-0.2180512179707659,0.11327914076063769,-0.8130640040106952,-0.33456487461274426,-0.9391798357365159,0.3709348191440738,-0.6793582790711457,-0.4095412205939492,-0.9299412509471129,0.3891344889169156,-0.5159056233705519,-0.5191351762939226,-0.2887182894007,-0.41542895868905116,undefined,1498936570189
903d185fccf839df,-0.27035419463669663,-0.2669818050250025,1.2590294044891897,1.2932351421028556,-0.8519346281123024,-1.6242867255440738,1.9058038782129871,-0.41031264462960204,-0.4654532061392338,0.35518132629027505,-0.2262190673883867,0.08555696550684196,-0.852230949197861,-0.3428973252516756,-0.9465482611665612,0.30223416300753353,-0.6927721862209432,-0.43438535936566114,-0.941143145350302,0.31200367544760715,-0.5421179705061615,-0.5412030850007691,-0.37142153217272034,-0.4392111150409799,undefined,1498936570536
903d185fccf839df,0.33256228019535033,-0.22119463517153432,1.7573164836344977,1.5145281052028512,-0.5559122581827906,-1.6303567199567446,1.915705099776354,-0.1467132460067137,-0.5100102102695077,0.04716020842862232,-0.4609963742294272,-0.09068887142243366,-0.7564895276292335,-0.3410456623592606,-0.940232458475079,0.5022744227070728,-0.6804453473388523,-0.41701409419417507,-0.9100073377871258,0.6597313727234684,-0.4637534847176618,-0.4929602198597283,-0.31109980637904794,-0.38399092561595355,undefined,1498936572041
903d185fccf839df,0.4739356366133571,-0.18832167836476726,1.7866647268278109,1.4776816145978078,-0.33906919763094606,-1.688312850504391,1.962718138720585,0.15996078836199057,-0.5464767267430232,0.16417349942976164,-0.5644880450412963,-0.14567104513754867,-0.6215811608734403,-0.21328062491480757,-0.9086534744666027,0.5406658852046103,-0.4608783916643957,-0.35144279636059533,-0.8670259278376505,0.9508081825655229,-0.36338818696653286,-0.4871055280726206,-0.23786975159782522,-0.29410813863411733,undefined,1498936573531
903d185fccf839df,0.5266043834834238,-0.2217816501696557,1.7330718186595053,1.5298358873763138,-0.27794130049742255,-1.7054956490313378,1.9304530475519373,-0.06508129347457484,-0.5511581743551576,0.2652801558634785,-0.5365324552860524,-0.08018180626639355,-0.5432472704991087,-0.2317973444943799,-0.9402324731995465,0.4861094892839017,-0.42852467473739136,-0.31832783444178925,-0.8763106955162117,0.8851338102196589,-0.3659749336957076,-0.47921960366116223,-0.17295013284445682,-0.3172715623801488,undefined,1498936575039
903d185fccf839df,0.14267828581274358,-0.3391846790219255,1.7190353266689522,1.520258591040544,-0.6643646576469792,-1.7735979468387704,1.850372822145038,-0.9085603758735727,-0.5458664247060113,0.6347166834576223,-0.3445077040370122,-0.028047839514745924,-0.8087121212121212,-0.3095673154835574,-0.9518114043083115,0.4376149716616038,-0.5426618418101318,-0.3756093099428962,-0.908356089423149,0.6317985843103481,-0.4493506323506462,-0.4445832848885535,-0.1709212430035298,-0.30148158998431207,undefined,1498936576543
903d185fccf839df,-0.018099429307332358,-0.42371501411935936,1.216282553048376,1.151469816772471,-0.7295348319861699,-1.768177807658569,1.896486474066072,-0.6612616315516522,-0.5405466484516698,0.08416744034031559,-0.08511660573887248,0.11006913002810052,-0.8739903631907309,-0.24105564600568058,-0.9265482229913176,0.5750163404641273,-0.48241320311276725,-0.3938925181845002,-0.8970002652357266,0.5820000098388717,-0.46123406157689634,-0.443997715290518,-0.108334190469064,-0.30155169481672,undefined,1498936579216
903d185fccf839df,-0.033345575587705636,-0.43369421063143826,1.180553947602839,1.1254489660589446,-0.7070194391224293,-1.7913327749366734,1.8963576142201142,-0.6858070023949575,-0.5388698191311198,0.0638374912031279,-0.07190203738412379,0.08548672168701701,-0.8826941287878788,-0.2799406833033676,-0.9265482229913176,0.5184392996008008,-0.5218307507785186,-0.3987688854029786,-0.8971611915861543,0.5831548925203784,-0.46363713663375716,-0.44584295113219113,-0.11136141129389264,-0.2950485349678147,undefined,1498936579539
903d185fccf839df,-0.12066451689152723,-0.2975066726112917,1.3770615316902417,1.155185971574354,-0.6618138062058101,-1.7951899950488288,1.9748573177939053,-0.17620113082728117,-0.5609160295424461,0.007871183144969521,-0.11480901099783376,0.045159841179075504,-0.852230949197861,-0.39566991842251004,-0.9707587902960569,0.04763767697561484,-0.6508764682238282,-0.4861951730520846,-0.9679619207983142,0.0984426279603167,-0.6154603138357146,-0.4759001473519954,-0.3140261053522403,-0.4170541323883417,undefined,1498936581028
903d185fccf839df,-0.2703541256258772,-0.23880508511517595,1.4332064831046567,1.205153577102845,-0.7054045855296092,-1.7460057791029817,1.9464054495039578,-0.28634726073162453,-0.5634708570361242,0.034152022090770104,-0.18291334765772185,-0.013732609762478101,-0.8043602384135473,-0.4771432410980668,-0.9581272364487289,-0.06147518552760623,-0.731472509491187,-0.5589416973123628,-0.9584812421766408,-0.16637983098227654,-0.6976421694854894,-0.45691508681180143,-0.5067998447775475,-0.49998810351202544,undefined,1498936582537
903d185fccf839df,-0.17887717893281804,-0.23293490590596974,1.560170761667093,1.3544800504410122,-0.4950620861942556,-1.7518964241476336,1.926413664717929,-0.38225604944274755,-0.5989174277544963,0.5258892533473845,-0.27792495653214866,-0.04461305949165785,-0.7390819964349377,-0.5632458051846957,-0.9402324658373127,0.10219401636688039,-0.7544888924441031,-0.561937180485659,-0.9346640982705188,-0.011687049253952354,-0.669265185897146,-0.4568395637609602,-0.4707564041687488,-0.48938213726124036,undefined,1498936584011
903d185fccf839df,0.21475094281455298,-0.28341825420039374,1.6928772646017511,1.452006449399476,-0.4382130353077662,-1.8139729788077943,1.9420320868676755,-0.3505233184359408,-0.5540114105063842,0.9628883270879571,-0.31407007716811075,-0.03248056697030341,-0.6650999888591801,-0.5817624729611699,-0.9412850959381095,0.08804975615104875,-0.8232885551413489,-0.5529507338060797,-0.9320332980170626,-0.01368884788893425,-0.6636040992917193,-0.4620668033617153,-0.5032978456105887,-0.5076515447009913,undefined,1498936585520
903d185fccf839df,0.18010061035915917,-0.3403587090181683,1.1805536934658898,1.1207824461554843,-0.45965871280675785,-1.7630068972010728,1.9198181092509305,-0.46758483537377005,-0.5306786652562359,0.6306857975956104,-0.18264775488287335,-0.15652957102196177,-0.6607481060606061,-0.5382483108093816,-0.9497061441067178,0.05976126398410702,-0.7950765186291682,-0.5457501768393485,-0.9157447225408406,0.09912016186200824,-0.6353507088139799,-0.46885308518308483,-0.4371404476890194,-0.5044353494173277,undefined,1498936587095
903d185fccf839df,0.21475094281455298,-0.34916402167396615,1.2922057125516673,1.2374143657993388,-0.4162016348311475,-1.7980060457384441,1.9489563609587377,-0.30931199694040584,-0.5132697072797036,0.7591481870723933,-0.24289018399779086,-0.1567083641346902,0.07472008689839574,-0.5465808391529603,-0.9349693006088611,-0.00691880373925838,-0.8598225015596737,-0.5788524728375796,-0.9236301283805045,0.09739553702208428,-0.6571923444927765,-0.46656176161025453,-0.44149507547677824,-0.4821564371687282,undefined,1498936588512
903d185fccf839df,0.04149921152676446,-0.3526861116626945,1.2494588611108537,1.160873513772389,-0.557547684994163,-1.799610891293622,1.9458978927216262,-0.36613392477988577,-0.4769366769288179,0.6748023428319545,-0.2862682451737767,-0.18972601969927896,-0.5867660984848485,-0.5512100028593852,-0.9591798812739933,0.05572005889303579,-0.8435968987348706,-0.5296138365486737,-0.9685286633907673,0.09108217596419717,-0.6435657170205815,-0.45708425283416965,-0.5468505230809021,-0.4534379446774574,undefined,1498936590033
903d185fccf839df,-0.16917505133989805,-0.39788623729004896,1.207988031293095,1.189597539643988,-0.6452949682198046,-1.8222161569547521,1.9044048128188706,-0.6910368804706581,-0.4523600211024029,0.2321482002255683,-0.20606983481288282,0.08126688073074714,-0.678155637254902,-0.5234349947192867,-0.9497061588311855,0.16887414061968886,-0.8564036091095429,-0.5005392918378605,-0.9514004700526912,0.1706921396753877,-0.6093352464694205,-0.4812935076103472,-0.5468695967286927,-0.4305110911506882,undefined,1498936591538
903d185fccf839df,0.01655090314806145,-0.46187098899724954,1.9729638837938248,1.9174368535714315,-0.5445568539577033,-1.8562673041786466,1.9540318847861402,-0.33705941254274074,-0.5383925971916224,0.6907069619122911,-0.0966824422223282,0.1035818579596029,-0.16028158422459893,-0.384559876314147,-0.8718113399541425,0.2557603185925751,-0.7188211524418135,-0.324021152856331,-0.8955869089737413,0.21711845192858992,-0.4821233282385012,-0.40176681521994256,-0.6237025072313306,-0.4020894830320574,undefined,1498936593032
903d185fccf839df,0.49195394751180077,-0.4612839447711358,2.3040921303189426,2.298667521030297,-0.20054143689466877,-1.7865252219872112,1.9424160329357587,-0.18459091506366943,-0.4975625588291301,1.345189656295423,-0.09586355131829644,0.06575472560664948,-0.673803754456328,-0.27531151959694267,-0.8644428777129282,0.3850791358893485,-0.6449708946690913,-0.2328710950557585,-0.8653676829197137,0.34494094448188334,-0.40519104630479796,-0.3997827596005573,-0.6172029925110338,-0.42849684659843923,undefined,1498936594524
903d185fccf839df,0.32979018458809933,-0.4876996781425829,2.510807633253835,2.5108128739791336,-0.10086274386808163,-1.7546006694819805,1.8454577131863528,-0.7801278992136143,-0.45620506257210164,1.6074146400464682,-0.052278243359986355,0.05151675246688585,-0.9610280191622104,-0.11606803167059014,-0.8297060181265291,0.15675044055231055,-0.5566431645450474,-0.18473438917283894,-0.822582184047926,0.512429835304971,-0.34026434482690565,-0.3554583948422279,-0.5818118124589686,-0.3908741527418753,undefined,1498936596041
903d185fccf839df,0.5584826548369763,-0.5651857163505908,2.3953275492988926,2.391988757024691,0.021033054385499822,-1.810574618115742,1.7828236254314773,-1.2348284766506417,-0.5305839746826626,2.2176053904676563,-0.230749107281151,0.02084976867222668,-0.7608414104278075,0.059840383435174185,-0.8339165458919502,0.15068859051862138,-0.45693239974680144,-0.060887341388621855,-0.8052160982714205,0.7020154965550879,-0.23882184674096651,-0.3708893907501566,-0.5462287334849282,-0.452562389749858,undefined,1498936597527
903d185fccf839df,0.5570966415387606,-0.5293777430092014,2.683071060640144,2.6955663544723567,-0.09078275246421894,-1.8391636996043492,1.7869655685055241,-1.3276298212126958,-0.4154861922056016,1.7258861095543152,-0.15782882309932644,0.01888729895089924,-0.7608414104278075,0.0376203769230954,-0.8644428629884606,0.14058564845274713,-0.4534551734821983,-0.09671280392111825,-0.8192796895159974,0.6766234612392314,-0.2704736076203294,-0.355551158623316,-0.4017030718453661,-0.5152883151593066,undefined,1498936599026
903d185fccf839df,0.613923117754787,-0.4565878247861647,2.215408500448153,2.124216030825687,-0.015090311917160076,-1.8557269192304189,1.9075737244212811,-0.5476724421628558,-0.3948956612285746,1.5359035400505996,-0.1862233168526836,0.06233851680989133,-0.8000083556149733,-0.17254395062625463,-0.9339166705080643,0.09209101777156306,-0.5512983123526516,-0.22501824188384603,-0.8652627304996469,0.6005089464617596,-0.36820004872925965,-0.40210719869302874,-0.36623338401001754,-0.4776963455640914,undefined,1498936600570
903d185fccf839df,0.44205733075439474,-0.3920160873088351,2.036764964946569,1.9844133205510353,0.061198704271487984,-1.8166376265848103,1.898445662457422,-0.5017929237446339,-0.5154063582069258,1.1801185480843503,-0.28722447024364034,0.010124622079032622,-0.7086188168449198,-0.22809394100490252,-0.9518114116705453,0.11633830484743356,-0.5307148220044432,-0.2682405816903031,-0.8783047862001044,0.5511107328777309,-0.4132405858352909,-0.3850357390466065,-0.2582508804575978,-0.4507475690347862,undefined,1498936602026
903d185fccf839df,0.7705427584748059,-0.32216127330439764,1.7534879104914343,1.5614662457377706,0.3027274356471185,-1.811792809920436,1.8319273460828063,-0.8134692778257436,-0.6557812188217077,1.371291257518752,-0.2391079821448236,0.035238725049972636,-0.8217677696078431,-0.4641815619988378,-0.9949693635989554,0.013287334774983952,-0.6488130460974147,-0.38976977106984817,-0.9385263384066289,0.37838637077791576,-0.5236116488023201,-0.4306596577398239,-0.4098094465237207,-0.4608696532990495,undefined,1498936603529
903d185fccf839df,0.8038072846644424,-0.2810702234359005,2.0661139705507305,1.7609407880926502,0.0421701578605267,-1.796461759241371,1.817797398454853,-0.9340591488424529,-0.5773804149708656,1.750651784980748,-0.3081680669629494,-0.014823768221498035,-0.9523242535650625,-0.4567749233799521,-1.0107588666465441,0.003184166591337409,-0.722425906681093,-0.4067167283782324,-0.9570538941035522,0.20216656040403483,-0.5644028845881017,-0.4222290944606051,-0.5728602096452089,-0.4632830749197939,undefined,1498936605041
903d185fccf839df,0.6014491360924842,-0.23586998089657665,2.01379708400548,1.9713646322707619,-0.1265049842983882,-1.7656831929296555,1.9552179135779828,-0.048083161748150006,-0.3795665786685318,0.8743681062495584,-0.2525617090684428,-0.04145313922539038,-0.7913045900178254,-0.35493320528163347,-0.9044429540634155,0.03551394864351499,-0.6632897613919461,-0.37337377838310726,-0.8796131915345862,0.15857356079364304,-0.520199362045284,-0.42315759957276416,-0.6139158031181441,-0.4764313750685905,undefined,1498936606572
903d185fccf839df,0.4905679687189948,-0.04626393190742216,1.7394516726378304,1.6457083073954697,-0.22514481634463676,-1.6667976720336388,1.9476729995843691,0.08599348725555307,-0.562968042928153,0.7671471575600225,-0.3262238945699763,-0.10950600711100754,-0.8261196524064172,-0.25123982429089975,-0.7370743189404604,0.05369938568569633,-0.5518978539282846,-0.1993128223401489,-0.7758294959231746,0.23701324160085588,-0.37726060337566036,-0.4016029880815118,-0.3324466040653559,-0.5150607653522041,undefined,1498936608037
903d185fccf839df,0.3561244027487889,-0.0339366754028577,1.081661890610661,1.0114419272610993,-0.4228770640061863,-1.5155182412500043,1.8427200893519802,-0.40773324672689987,-0.7089639973658743,0.11888302661375798,-0.25373908072396184,-0.08637780447255487,-0.3996351381461676,-0.21328062491480757,-0.8065480822866613,0.06178188066200341,-0.5342022804091512,-0.2364618693316237,-0.7899840435008892,0.04718120632750772,-0.42342152259414495,-0.39455459651250113,-0.28441584964640193,-0.4824478459448276,undefined,1498936609535
903d185fccf839df,-0.27174006991327343,-0.47243722973544217,0.8092311470199672,0.6320449077605605,-0.7317771184257245,-1.3015636416248577,1.749070067073689,-0.6942072710475764,-0.6507550772687377,-0.10508331021289387,-0.1279533100183073,-0.037557863627503595,-0.5606548016934046,-0.2743856298722497,-0.8002323016818804,0.02541096418055843,-0.5533764456338491,-0.28980425622401246,-0.7827003634272048,-0.03747944588805004,-0.4613061470239411,-0.4152368335125633,-0.22008657880731597,-0.47841234911326497,undefined,1498936611041
903d185fccf839df,-0.4020255614834223,-0.5604895963656197,0.6656783332208679,0.6357463982112946,-1.0022395227864465,-1.24189784881267,1.7329362092064375,-0.7939193704719583,-0.4146476798504975,-0.43590176772818695,-0.03683769863490462,-0.03288261593268426,-0.7956564728163993,-0.3382682003975744,-0.7907586086880076,-0.17867040168352671,-0.49793786095535664,-0.36320307379379524,-0.7775507108972382,-0.19037061017227416,-0.5174937349775106,-0.3818663732592752,-0.20602647870841326,-0.45588621732654233,undefined,1498936612533
903d185fccf839df,-0.23570372415966387,-0.6262353930671843,0.7282036468875069,0.693480923253623,-0.8985596967907229,-1.1970856133851147,1.6990642955512412,-0.8381341475734579,-0.31928968748041286,-0.474356174718597,-0.07963123992003741,-0.004680096022015859,-0.843527183600713,-0.41511238526825534,-0.8623376248735684,-0.4231639456495711,-0.7449201317300463,-0.4469879210264573,-0.8807606674601097,-0.3615551284544255,-0.6313745711106328,-0.3706426523954719,-0.21048332792776375,-0.4744183997518002,undefined,1498936614043
903d185fccf839df,-0.19135133312216954,-0.5053100696302398,0.7441537901072184,0.7588649706130753,-0.8360535144495749,-1.1766558561250942,1.6968105586967448,-0.7570331114597791,-0.2913659397268216,-0.4592473955216266,-0.06743286170792816,-0.10421097462538635,-0.7347301136363636,-0.4234449265626085,-0.8981271513719332,-0.43528761745222794,-0.8160090842191224,-0.5558195562344351,-0.9275553390743403,-0.41977665153496035,-0.7149749085563152,-0.4502304000030321,-0.5494811196304702,-0.5067542122647116,undefined,1498936615571
903d185fccf839df,-0.12343654348795874,-0.38673292309775026,1.0255169391962458,1.0765137656587447,-0.7900353091843222,-1.2495237776703558,1.7604623861534208,-0.5183203690872399,-0.31794080376467854,-0.22170992449036933,-0.055750617132413104,-0.07440501362990094,-0.8565828319964349,-0.4373323917803341,-0.8612849947727715,-0.380731179134437,-0.7940627955838435,-0.5090381002154275,-0.8903043185357977,-0.4006517820348886,-0.6745295570528542,-0.4484004615814949,-0.5201119176843316,-0.48187625461144984,undefined,1498936617069
903d185fccf839df,-0.13313867108087873,-0.26932986501748807,1.572930977897642,1.432709903226672,-0.7021851656874359,-1.4724855450401844,1.8053242500544766,-0.6358830001768946,-0.43726605214938463,-0.4773238424718781,-0.11769994884981809,0.06871361610698447,-0.865286597593583,-0.35585899140013005,-0.8749692081698315,-0.3039480845510327,-0.6785065380317354,-0.42065553996457505,-0.8716997973625785,-0.2142536022769567,-0.5935800707742543,-0.43227855738832777,-0.5138885752599249,-0.4826755640906131,undefined,1498936618534
903d185fccf839df,-0.041661655377000145,-0.3902550130864786,1.811547275545856,1.7531787052940337,-0.633990992950032,-1.6850495885356043,1.8318668826011,-0.8600271139077331,-0.4267350705744753,-0.4057258240702244,-0.1263603323698711,0.014839433852072143,-0.8913978943850268,-0.3651173706160781,-0.8876007988283285,-0.19079413001562656,-0.633922203309792,-0.41482923189210774,-0.8793053307732925,-0.12367994815432111,-0.5803558937585621,-0.44084628138217063,-0.5327856044224686,-0.4726651656588483,undefined,1498936620071
903d185fccf839df,-0.1664029902380568,-0.4736112889596773,1.8402578891330656,1.7888111422243897,-0.7568125026647442,-1.8359027662767857,1.9419426740736725,-0.4450251416025224,-0.30955411502203467,-0.5897168506602306,-0.09519461419333251,-0.014858491148967663,-0.9479723707664884,-0.2688306152934554,-0.8412849639597617,-0.22312382727363952,-0.6572109911574483,-0.3676108025102101,-0.8512061382619716,-0.05953002333464441,-0.5368660662524292,-0.4548348358893793,-0.5660555588927172,-0.47328940325192637,undefined,1498936621543
903d185fccf839df,-0.47271230870324515,-0.4560008097880433,1.7190353266689522,1.6813668896063214,-0.974941280017614,-1.8633551793093135,1.925892973059823,-0.6909833606376258,-0.41079954363435567,-0.23927757816273293,-0.03411041130306638,0.019230559312052,-0.9305648395721926,-0.2512398113401252,-0.8276007579249355,-0.1988765119330475,-0.6672649526718275,-0.3663885455653199,-0.8721895737997416,-0.06034613915281044,-0.5403725655357879,-0.4816114145824806,-0.595243108406239,-0.4336034657182073,undefined,1498936623040
903d185fccf839df,-0.3950954604869338,-0.4518917048011936,1.5429445968243267,1.5794150549132362,-0.9700864311594944,-1.9098071972634632,1.9332722089114667,-0.7320369995100348,-0.40996835215132443,-0.04534298760788781,0.000101682849378609,0.008841538009362325,-0.8826941287878788,-0.26883064119500455,-0.8381270810196051,-0.223123799008918,-0.6402152814905655,-0.33435018357890733,-0.8738758054106498,-0.051184063883410576,-0.5303006472637325,-0.4744556878601559,-0.598433926161706,-0.3965563060090384,undefined,1498936624544
903d185fccf839df,-0.20659751390795256,-0.5305517876194403,1.7432799916439445,1.7816295056351392,-0.8852088550889816,-1.9049786832907174,1.8980091313190446,-0.9391204211703721,-0.43069519540988266,0.2594904692136218,-0.027003984954378165,0.036778623154804554,-0.6607481060606061,-0.3206773834934696,-0.909706089842932,-0.31809241542866823,-0.6715137122726168,-0.3513858017499651,-0.8927042232779251,-0.13980211590554872,-0.5606319910544635,-0.5073870241070538,-0.6093376486840807,-0.40899118741698237,undefined,1498936625617
903d185fccf839df,-0.146998838568446,-0.48182948431938055,1.728605870047288,1.7969223320100933,-0.8126226892100197,-1.9027985155966305,1.9145295739617783,-0.7921190782048462,-0.46579817533910284,0.2612936702538241,-0.11710196356574162,-0.26823176710021673,-0.6302849264705882,-0.3438231890748195,-0.9139166176083531,-0.3524426728351345,-0.738388709903988,-0.3468894114843303,-0.9003027601897325,-0.212421184334065,-0.5706688632894268,-0.5137352960030128,-0.6191268318638287,-0.4153165694402071,undefined,1498936626986
903d185fccf839df,-0.15392887055411503,-0.3016157483701491,1.9761540649199367,1.8540726708725594,-0.8684431686322039,-1.780098854737558,1.8422098964810538,-0.9956742513259135,-0.5274095418887694,0.24790048874486753,-0.4293602509547101,-0.16875748147112807,-0.36917195855614976,-0.3484523527812444,-0.9118113942179283,-0.2332268117365961,-0.6782245382871892,-0.3064788975300822,-0.9310187598710578,-0.21659416125952144,-0.5533936376052547,-0.5178392489389215,-0.5420353152068504,-0.40257435557486787,undefined,1498936628409
903d185fccf839df,-0.2842142586080347,-0.3022027925962628,2.188612046364,2.038565791267183,-0.8695231679475365,-1.7148032923254763,1.7885618560653918,-1.2368439265405256,-0.5159410711072739,0.11408323950300714,-0.40444678615891727,-0.3724204392198495,-0.5824142156862745,-0.3864115262557875,-0.9444429862404999,-0.14027885439182458,-0.6728354708659718,-0.31382511183043676,-0.9711734575534787,-0.1666416059953307,-0.5664652031624727,-0.49867879565419426,-0.48334440366362197,-0.4400481547870764,undefined,1498936629911
903d185fccf839df,-0.20105346071508953,-0.28459222574065185,2.0827019975134946,1.990504948818129,-0.8302935237279335,-1.7176892194758457,1.8068758215277665,-1.0936239359592625,-0.5517776780955593,-0.2763769887288101,-0.41475130413423505,-0.07494351040645174,-0.5867660984848485,-0.4345549298186479,-0.9497061588311855,-0.03520732417092165,-0.7164774244180028,-0.32717495634385596,-0.9670453393319851,-0.05869850442653532,-0.5565590315569097,-0.49871506594805576,-0.5138724157869361,-0.4180217410708805,undefined,1498936631410
903d185fccf839df,-0.31747861227062246,-0.42488904411560213,2.014434713611583,1.9060409740352475,-0.7303268281834875,-1.843729010214144,1.8977829598409968,-0.7442004826266372,-0.4576003999129875,-0.5292505190171781,-0.18459055407805533,0.020958391949596176,-0.669451871657754,-0.3808565505293169,-0.9486535434548562,0.055720073025396555,-0.7147997103453275,-0.34658542989437213,-0.9781003001317603,0.013335423990459422,-0.5580270521776585,-0.48594632539449917,-0.4663637686786577,-0.47418811483110057,undefined,1498936632979
903d185fccf839df,-0.27035419463669663,-0.43134620909493737,1.7879407484508656,1.6714542272112014,-0.6464983939550925,-1.8348709131818632,1.9421530410666548,-0.4340849031693449,-0.4428778542104816,-0.17434330357336095,-0.13849233157042504,0.050922191229875124,-0.5084322081105169,-0.3401198891915385,-0.9286534979173788,0.2133274814156371,-0.6682016983138067,-0.33564210413338874,-0.9730066220765728,0.1005830161449028,-0.5414298665939453,-0.48018821230522135,-0.44054743037582106,-0.4468445312841461,undefined,1498936634409
903d185fccf839df,-0.33272475855099576,-0.3826238473388929,1.9321314459930177,1.8746514807703372,-0.6284264189511206,-1.8324391889334064,2.0092788483265034,0.06372920308652963,-0.5048648785627252,-0.3448607713125056,-0.20607549252953286,0.07481981502657561,-0.5824142156862745,-0.29845735107984167,-0.9454956310657644,0.17695663559599595,-0.6542316818520122,-0.33327358289352743,-0.9546959675168267,0.21959759904721649,-0.5174986402673496,-0.47174258278890446,-0.4507950815139223,-0.475783633474675,undefined,1498936635921
903d185fccf839df,-0.24956385714182142,-0.30865995757559805,2.085254294896554,2.0180445403969887,-0.5845476403523076,-1.8145133637596462,1.9498583898318993,-0.2571474437364103,-0.5684394689285839,-0.4300146599834422,-0.2496985159633233,-0.000593824561791363,-0.7434338792335116,-0.20679979831596762,-0.9191798196479737,0.31637847975280825,-0.6193154484682601,-0.30823312357097304,-0.9237070922418964,0.3011323673487459,-0.4752485341902925,-0.49769666063105156,-0.48729334401361696,-0.44785755063574056,undefined,1498936637412
903d185fccf839df,-0.2897583808117172,-0.33566261826118954,1.9193712297624688,2.121469256609937,-0.7383188169889523,-1.8354578824985697,1.884036973470193,-0.7519265565233446,-0.6229996083681781,-0.5410598875309194,-0.2599819322732994,-0.09958444265558633,-0.4866727941176471,-0.20309645958036296,-0.9002324336602282,0.02339030510557974,-0.7155181225370539,-0.30029161313522,-0.933656557167839,0.2411554202622641,-0.4812366361423019,-0.5132102980106344,-0.5587783188060947,-0.4716150297595409,undefined,1498936638911
903d185fccf839df,-0.3147066201796007,-0.39084202808459995,1.8083573485566933,2.017127104626018,-0.783555311603887,-1.8391194451845276,1.9127886440688442,-0.6367835024646843,-0.5725455580359659,-0.05108894064152284,-0.1845524544160654,-0.11288808714429517,-0.5780623328877006,-0.2345748323576152,-0.9139166323328206,-0.07966063670214833,-0.6481174604119762,-0.2901399037670341,-0.952624911277116,0.15540147831232146,-0.49802953764426217,-0.4929950420650144,-0.537758766157558,-0.4721990759868208,undefined,1498936640428
903d185fccf839df,-0.3853933328940138,-0.46950215474483525,1.5786729481329143,1.7162682373939688,-0.7524307974728113,-1.8590670498893032,1.8805998135343158,-0.9000261798264144,-0.4880131474184579,-0.08897269325197554,-0.06857992711539819,-0.08257950725396834,-0.8217677696078431,-0.20309644662958842,-0.9191798196479737,-0.027124829194614567,-0.6251815165159328,-0.35476759264940927,-0.9508547182048385,0.339520689490434,-0.48815747221901723,-0.46180003043763723,-0.5059067810725493,-0.48620536232410766,undefined,1498936641905
903d185fccf839df,-0.31332053787056546,-0.481829440477392,1.6354560374273317,1.7084733426702365,-0.6197144459807731,-1.8193185829061025,1.883242773871694,-0.8018868679890551,-0.44296904091124917,-0.2038429822035352,0.020846535127611258,0.09252110555787466,-0.8348234180035651,-0.37252402218573827,-0.8981271440096994,0.10825592293001263,-0.7069754279579985,-0.40788199086751903,-0.9390510980295528,0.40214616526268254,-0.5027921091557523,-0.45637383583263225,-0.5011408561086639,-0.4953469658979551,undefined,1498936643413
903d185fccf839df,-0.24124784636334637,-0.3755796673614362,1.3649391992027455,1.3332953711471893,-0.631615000525081,-1.83088791527409,1.9442884587632445,-0.404653651423702,-0.4931055538749526,-0.6533088614919645,-0.015461907884295363,0.11215805748252276,-0.2864861853832442,-0.4123348844542455,-0.9202324350243029,0.011266689832366028,-0.7201195460037763,-0.46734199905455215,-0.9572148189614167,0.30188688748694115,-0.5615728111423475,-0.42777676389061914,-0.46560895691230314,-0.5105436149055801,undefined,1498936644959
903d185fccf839df,-0.37984924519574104,-0.3567951581935595,1.1780016502197799,1.1319907010931143,-0.8027689973567061,-1.7712663775567332,1.9830412677440539,-0.10467089421353729,-0.5725639848663344,-0.6354979202695421,-0.10606728313160631,0.07862981772113076,-0.28213430258467026,-0.45121992175193243,-0.9170745447219124,-0.015001213921400854,-0.6723122251733756,-0.48288937423781964,-0.9432911657205552,0.21587117425300412,-0.5797282154517192,-0.4240664761990503,-0.4633557842312845,-0.5099803214468405,undefined,1498936646408
903d185fccf839df,-0.4838004495943809,-0.3162910940951914,1.0867662312398298,1.0258061880886356,-0.9731824249458073,-1.7790180851237913,1.9645458495090142,-0.28074329544741516,-0.5381778335096745,-0.563732393286315,-0.1810185941742128,0.06902024260568916,-0.9305648395721926,-0.47714330585193954,-0.9012850416743237,-0.01095998056560808,-0.6608259994463686,-0.4805271857090958,-0.9252114076263994,0.2065397167568108,-0.5734306462108828,-0.4258993798848541,-0.4547823288955826,-0.500531882829327,undefined,1498936647906
903d185fccf839df,-0.5489430055997018,-0.340358767474153,1.1352547987789663,1.0123559804675162,-0.8670957402536262,-1.7341615956148249,1.8942116862136045,-0.6408819988149272,-0.5521342182471815,-0.614304408724249,-0.18846203938001915,0.03734214795092522,-0.9523242535650625,-0.4836241583523285,-0.8486534114765084,-0.2615153463006201,-0.7225869858654876,-0.49264210748439324,-0.8779409537656456,-0.06294847441388644,-0.6230723235107894,-0.45734305865837044,-0.5711855029744739,-0.41899004403220474,undefined,1498936649464
903d185fccf839df,-0.3853933328940138,-0.3274443790594978,1.008291028490429,0.8882978207957138,-0.8365575043960614,-1.7598274831331078,1.9298061190424458,-0.45729581186277246,-0.5014138465427956,-0.4771309477326548,-0.16506427984627076,0.071730405057544,-0.9392686051693405,-0.4623299379587464,-0.865495544624894,-0.31809238716394667,-0.7068656163525132,-0.47594846929066115,-0.878262806796822,-0.1630229692691823,-0.6386684867508946,-0.45303665346300015,-0.5442058407345189,-0.40276362401614024,undefined,1498936650927
903d185fccf839df,-0.3715331999118563,-0.347989962449731,1.4925416156451838,1.286300287316996,-0.823350668858527,-1.7956162450487567,1.8844261864778564,-0.8077831198239361,-0.4510022609105493,-0.17341840108909307,-0.17422350667709796,0.03603882821957949,-0.5432472704991087,-0.4280740902690334,-0.8676007827397862,-0.2615153745653417,-0.6804377555773096,-0.4358862672442063,-0.8853295857210954,-0.07631432333808744,-0.6066629096393538,-0.46373640841290065,-0.4542286099756518,-0.43209092397275706,undefined,1498936652436
903d185fccf839df,-0.38677931168681984,-0.4765464224062689,1.8192031511472357,1.7755448606980984,-0.8859597060455064,-1.818414838130799,1.896115674920263,-0.7783234398515594,-0.44164214003015745,-0.078166787362488,-0.13284863286696116,0.06639709242395886,-0.8043602384135473,-0.3410456623592606,-0.8465481365504471,-0.18473230824665893,-0.6535414756654405,-0.4098578679937488,-0.8939076753420685,-0.07294206397382307,-0.5895745056567907,-0.48049587694569557,-0.45746643887409094,-0.44221527156039847,undefined,1498936653915
903d185fccf839df,-0.4061836013780696,-0.5499232971714423,1.662890375254537,1.7755448606980984,-0.9328110592585649,-1.8723786531419624,1.8707459373372304,-1.0484599515883453,-0.4876156055421941,0.028810393639053564,-0.08058483819150641,0.03696741640619022,-0.9436204879679144,-0.33549071253433904,-0.8676007827397862,-0.1382582377139282,-0.6762252931526704,-0.38566602537738787,-0.9045078431167723,0.017523804032783512,-0.5632196282472274,-0.48647196910082385,-0.44800098406838734,-0.4457738056009083,undefined,1498936655416
903d185fccf839df,-0.4214296786476234,-0.456587854014157,1.5978132724787377,1.5211106752515402,-0.8922751257715805,-1.843798889170167,1.8769969806940774,-0.917258482533885,-0.553561122625445,0.07244669539825899,-0.21219901148665501,-0.08578013029539876,-0.9349167223707665,-0.35308150353689477,-0.8781271500078586,-0.03924847273254981,-0.6533020129493691,-0.3804920108414286,-0.9253863260142615,0.10041363429505362,-0.5518380359722084,-0.4916365854370692,-0.4372547578813499,-0.46110243356897757,undefined,1498936656914
903d185fccf839df,-0.4546940668156209,-0.44954367403670037,1.4542609669535371,1.3922737056034549,-0.839170071711902,-1.836289422358543,1.9257115140020276,-0.5933572327935825,-0.5071827158483606,-0.16306005562754883,-0.18303063515094206,-0.012669391726580407,-0.9827874331550802,-0.3706723333917741,-0.8781271279211571,-0.09582551359587635,-0.6890170474901955,-0.3822272364567274,-0.9585512093005607,0.09431585049066576,-0.561840106766742,-0.5150983922435407,-0.43545899964716217,-0.5070057051306728,undefined,1498936658408
903d185fccf839df,-0.5156787554533432,-0.44367352405548655,1.6411980076626038,1.5904261581978352,-0.7357988184318028,-1.828495786983328,1.930434643117779,-0.523644516204887,-0.4881259487258232,-0.404656552870207,-0.21831685378696788,0.030216305090043805,-0.9088054255793226,-0.35585904320322825,-0.8718113105052073,-0.12411400576281809,-0.6927007738782589,-0.3584027024531123,-0.9514004692146539,0.15392323293440177,-0.53602050227639,-0.4913370136860781,-0.44351714258600267,-0.4586490580606599,undefined,1498936659925
903d185fccf839df,-0.4893445027872439,-0.5240946372541013,1.5276323373476681,1.5197163416346389,-0.7111542867272151,-1.8220391341988513,1.8959052854055622,-0.7651399408843197,-0.4183976561718526,-0.5075996019863107,-0.17663448167949417,0.007808111021093483,-0.7826008244206774,-0.3753015489012972,-0.874969230256533,-0.03520718284731397,-0.7059387759536153,-0.4153675322043461,-0.9509386802962653,0.2617739431574039,-0.5448054303793317,-0.4727926588667593,-0.4816707353989828,-0.45634921317012783,undefined,1498936661440
903d185fccf839df,-0.349357021645814,-0.542879146421978,1.6858590186064746,1.6201436716225068,-0.8172409690827878,-1.8589995024258508,1.8275908143127981,-1.3041025022437776,-0.391813253831541,-0.3044730827474913,-0.1467507596636231,0.004199114480865698,-0.7782489416221035,-0.36048821986042767,-0.8570744522828829,-0.06349581633786339,-0.7268498957534333,-0.40717270264840427,-0.9181586209597749,0.23972336533386499,-0.5375098559766952,-0.4698549321331058,-0.46106476860801565,-0.4606842845117363,undefined,1498936662905
903d185fccf839df,-0.15531498736855998,-0.6262353053832074,1.6750127077420331,1.6746578580406788,-0.7682810532442151,-1.8614521911260953,1.8968651657648368,-0.8456518032324462,-0.41287050867144043,-0.29247706203325696,-0.08421041228846206,-0.06648835427664644,-0.7913045900178254,-0.2503139734185304,-0.911811372131227,-0.09784604547960814,-0.6651924845339767,-0.38978877202696,-0.9378616403456783,0.20341383223697831,-0.5391152544871692,-0.4584796724395096,-0.46784852917997305,-0.44933845421087776,undefined,1498936664419
903d185fccf839df,-0.04859175637348864,-0.596297569707009,1.6144015535784513,1.6746578580406788,-0.8046101376007153,-1.873049472547155,1.9169148062270653,-0.7376874493751101,-0.35198024306534853,-0.2730944013545066,-0.05854462817906152,0.0012495230792197126,-0.8870460115864528,-0.2577206249881906,-0.919179804923506,-0.09582545706643328,-0.7006654191743712,-0.39766062069129493,-0.939680811338775,0.16216139669790447,-0.5521289401534728,-0.45070103051857985,-0.44300010822427555,-0.4305188171053847,undefined,1498936667250
903d185fccf839df,-0.07908418695587413,-0.5910144347239165,1.736261745648668,1.6991357966105631,-0.8151529783354765,-1.872644185085431,1.9372800241524537,-0.6056447054245816,-0.35065924703336465,-0.2631335674861804,-0.0664639982928889,0.03670187776053467,-0.8739903631907309,-0.23179733154360535,-0.9244429701519578,-0.08774313167845542,-0.6959361329319231,-0.3863879808458773,-0.9453272379303508,0.1743415664401131,-0.5469676744289146,-0.4464353548768862,-0.44501656481582624,-0.4295173073126048,undefined,1498936667415
903d185fccf839df,-0.20243943950789556,-0.5857312412848393,1.8912984999183118,1.8671298815182849,-0.835631800300849,-1.851643764212052,1.9905309616263007,-0.2135980533673644,-0.37971654517262654,-0.12815819435066192,-0.06869078749611054,0.047841429870713784,-0.30824559937611407,-0.27345983080297853,-0.9591798518250582,-0.035207352435643186,-0.6919262238564873,-0.3919166400727439,-0.9673462017470197,0.21139022763780793,-0.5535190773085508,-0.44488369200670186,-0.4420785804926036,-0.43158929402709,undefined,1498936668909
903d185fccf839df,-0.20105335719886033,-0.5205725180373806,2.062285397407667,1.8002928807435228,-0.708582870529698,-1.8571337814068876,2.02392686461799,0.06362807248037085,-0.4100643037313999,-0.3464644060510598,-0.06361720790697549,-0.04458386119983784,-0.35611631016042783,-0.16976642391069569,-0.9760219628867424,-0.01904244727719363,-0.623850236174291,-0.3271686251386916,-0.9455721267025263,0.25721600084170043,-0.5063763343651393,-0.46329651010085954,-0.4287854757797486,-0.45558954551019387,undefined,1498936670483
903d185fccf839df,-0.1899652163077246,-0.45658781017216854,2.244756743641466,1.8828950860856657,-0.6640355083559288,-1.867925147322512,2.0298334110537524,0.17407425276818744,-0.5122563583026778,-0.9542770779898926,-0.0634484435245584,-0.06455808715049322,-0.5084322081105169,-0.1632855843610812,-0.9076008296413384,0.005204924592841477,-0.6212105141138705,-0.29665650115007053,-0.938393398681885,0.16893671416166228,-0.5076984587020767,-0.44434128685578955,-0.3608682210848914,-0.42206577558601377,undefined,1498936671913
903d185fccf839df,-0.059679828253804926,-0.38614590809962884,2.244756743641466,1.9604471984512117,-0.7035428696064066,-1.828423579308614,1.9778421473439478,-0.12574968616798415,-0.5642179447608806,-0.9901970593133075,-0.07735836927937728,-0.07882819617985708,-0.5737104500891266,-0.2280939669064516,-0.9507587815697485,0.02136971669240489,-0.6245465956153926,-0.3503851958295107,-0.9621405747422738,0.05869924605224432,-0.5612292846930969,-0.41252867207948263,-0.34908379840149856,-0.4075150872823898,undefined,1498936673581
903d185fccf839df,-0.15808694495417203,-0.38849399732010675,2.163729751782905,1.8573972975310462,-0.7442536567602162,-1.8357304035319086,1.9669757915757493,-0.24355318643529722,-0.5439687745066928,-0.9936718000411673,-0.0702020005158385,-0.015471419309219737,-0.8391753008021391,-0.3067898535218712,-0.9476008839051242,-0.039248500997271354,-0.6376306583268573,-0.3642733412531278,-0.9554726143315899,0.015722183748136186,-0.5747825443989684,-0.4176280957107948,-0.34618575387596934,-0.4264645494309868,undefined,1498936674933
903d185fccf839df,-0.2010534262096798,-0.35914324741403736,2.2064760949498194,2.1815699859236903,-0.8230009544710398,-1.819861296320685,1.9273340995965311,-0.4938963544883951,-0.4834459687183734,-1.1122416005667906,-0.011587481178157572,0.020943480958994364,-0.8913978943850268,-0.2827181841173774,-0.9507587668452809,0.02136971669240489,-0.650359837211247,-0.33291893680738033,-0.9398277441469711,0.08529236016676028,-0.5439177588449242,-0.4163660337271038,-0.3427893569839884,-0.4263591878795288,undefined,1498936676314
903d185fccf839df,-0.1941233252131913,-0.4554138532459066,2.174575554373447,2.1815699859236903,-0.7720764711162806,-1.8393803205803587,1.9285543273561414,-0.5955722139367482,-0.36226726513749485,-0.3093878691931308,-0.04716543755931533,0.05508641018520206,-0.7042669340463459,-0.3382681874467998,-0.9076008370035721,0.0718849357867638,-0.6661052850418248,-0.3571234482566023,-0.9188862888260526,0.13293514998716374,-0.5377389723893052,-0.4397561276907354,-0.39177962671224487,-0.429174163320888,undefined,1498936677778
903d185fccf839df,-0.14561282527023026,-0.5640117155823403,2.475079281945247,2.4631424191143925,-0.7342045297593732,-1.8203434486652725,1.9516939879356756,-0.37805487584505615,-0.35094636235160076,-0.07202234440282183,0.025690295363207452,-0.02417468092999102,-0.6868594028520499,-0.29290233650104747,-0.9223377099503641,0.01530800798232341,-0.6296832606564361,-0.33414119572332357,-0.9354827240787215,0.11074598871244706,-0.5304400832440238,-0.44244332446954066,-0.35541129857120984,-0.47463087520329345,undefined,1498936679341
903d185fccf839df,-0.12205059920056245,-0.5105932338413247,2.3296125627800404,2.3712736716350276,-0.7204011262502478,-1.8217759307828962,1.9009413553721182,-0.6720462544300593,-0.3951378553539168,-0.13093461624372446,-0.03218303931850762,-0.04897893579774377,-0.6389886920677362,-0.26420149043935415,-0.890758718579654,0.14664738542755015,-0.5810784951232395,-0.31386311014582785,-0.9303610586209837,0.2101121595870873,-0.5061015509840634,-0.41032805213098666,-0.33253796633939503,-0.4354592167854059,undefined,1498936680812
903d185fccf839df,-0.14838488637207148,-0.48535161815009736,2.33982048162753,2.415796598576549,-0.6864788972933462,-1.8506608274692604,1.8500309461234812,-1.0276250531586761,-0.44384054138787193,0.24828938221284766,-0.12998213215791435,-0.019864430083305584,-0.6563962232620321,-0.24105563305490604,-0.9307587875679075,0.1264413034427509,-0.5838665213750542,-0.3016215299122324,-0.9331737762080331,0.24563637192582638,-0.493230132054957,-0.41671373588046806,-0.3658370307100395,-0.4516161156066532,undefined,1498936682262
903d185fccf839df,-0.17333312573995502,-0.41197468492893924,2.503151757652455,2.379450849860396,-0.706433150722281,-1.8514830484923028,1.920323031515951,-0.5355758631408154,-0.508042828881662,-0.32286062088024836,-0.12052919589520603,0.02373174662931254,-0.8217677696078431,-0.2725339799306092,-0.898127158734167,0.17695657906655288,-0.6317086462941393,-0.25060966914450683,-0.9090207846702515,0.3344084075004526,-0.44720898018689365,-0.431169379460805,-0.36762682578294553,-0.47120154821837495,undefined,1498936683763
903d185fccf839df,-0.2218436256829161,-0.34681588861149976,2.1650055192690103,2.252028504399843,-0.7335873976655992,-1.8312466176384155,1.926958033511143,-0.5088649571903274,-0.5707678287782795,-0.5277408168983961,-0.00688094358443813,0.004152179529191044,-0.8217677696078431,-0.2253164790432163,-0.8865481760897654,0.21130689300246222,-0.566465101074898,-0.23389069979063515,-0.9009884455207925,0.39812717602264314,-0.42622962756656857,-0.40116874196604463,-0.3425239115592412,-0.46039442959469085,undefined,1498936685266
903d185fccf839df,-0.42697383535671557,-0.42195385221302584,2.491667054771062,2.5780635519645587,-0.8184032565370956,-1.809773360638887,1.963646447820512,-0.2357117751008005,-0.517932157514703,-0.602880387247611,-0.11955855084886241,-0.007644078525745786,-0.8826941287878788,-0.19198645632432357,-0.8676007753775524,0.20322445455559823,-0.5450224272720229,-0.1994014886398285,-0.8577621475087206,0.34698893869552566,-0.40906499097468063,-0.3490051695249306,-0.29603387300029266,-0.4560108024096973,undefined,1498936686751
903d185fccf839df,-0.43251788854957857,-0.4213668664428968,2.6001294010046268,2.3384796833256716,-0.7723953267702248,-1.81367017690218,1.8784801835624432,-0.7334703681793042,-0.500792895164211,-0.24909363107115107,-0.36767188209479046,-0.11667362205219386,-0.673803754456328,-0.22253900413075556,-0.8381270736573713,0.017328483336612115,-0.5633536934572322,-0.26070438424533593,-0.8099809260747115,0.2075868145877456,-0.4565869879172812,-0.3192104054241162,-0.20009844173533328,-0.3330238499339947,undefined,1498936688279
903d185fccf839df,-0.39093742059228653,-0.3884940265480991,2.3819294493252907,2.4163648931071746,-0.7614410571456622,-1.7891176675140512,1.9815580701132973,-0.052649207157940636,-0.4828733281785703,0.009607241867576347,-0.3750152054497966,-0.0006468221859535123,-0.3343568961675579,-0.25401728625258596,-0.8202323030459551,0.12644135997219397,-0.5495755565424629,-0.27813897756908934,-0.7729328141281954,0.4258289852500797,-0.4189273223041978,-0.33720691127093405,-0.1908997117254467,-0.3026369357326286,undefined,1498936689765
903d185fccf839df,-0.32995273195456426,-0.4419125082891147,2.126086732697361,2.060264062841868,-0.6786823357133469,-1.8285726502298603,2.003758895046398,0.01708809195299488,-0.5290126725095435,-0.12951572526060648,-0.19611326670037382,-0.018533372120340192,-0.517135973707665,-0.2734598567045276,-0.7928638541651337,0.09209096124211999,-0.5470844300931871,-0.29311005631171055,-0.7644456821065916,0.36620620450898284,-0.43102757091682786,-0.34125470924639667,-0.20469560714575663,-0.27439561002546253,undefined,1498936691326
903d185fccf839df,-0.3535150270350515,-0.502962068093739,2.0603714920415594,2.0508093223958235,-0.7828661633666072,-1.8296743809611402,1.9792938019984456,-0.2163424456657495,-0.4515169178835845,-0.19700919577537382,-0.08666408267567291,0.007862919985256322,-0.517135973707665,-0.36882069640090814,-0.8002322722329452,0.10623522145795163,-0.5754618389908989,-0.3530450335803284,-0.7837918649452367,0.3055825249888875,-0.47864564603860815,-0.3500684418352236,-0.24275321114674764,-0.2358219116898259,undefined,1498936693316
903d185fccf839df,-0.23015973997762035,-0.5311388172315579,1.5742067453837474,1.6043816615604782,-0.7503736482205535,-1.833317311469352,1.9644248806447304,-0.3196851014402528,-0.4695580200608376,-0.24787268089696235,-0.024882951285134493,0.09873696356172007,-0.7390819964349377,-0.41511242412057897,-0.8107586026898486,0.031472800081886826,-0.5714845235902882,-0.3864259795211515,-0.7799576126765735,0.2654541764116487,-0.49881974350506025,-0.3825597857251138,-0.29775858630596796,-0.25100198220313524,undefined,1498936694753
903d185fccf839df,-0.2246156522793476,-0.6162560504151438,1.5742067453837474,1.572168843920864,-0.837812361479287,-1.857783639902053,2.014535833830506,-0.08850448884435591,-0.38474551404126456,-0.3658761660737792,0.040701494256642386,-0.010289518850391099,-0.6520443404634582,-0.42529656355347445,-0.873916570706801,-0.06349575980842032,-0.6314288069200441,-0.44172524341315816,-0.8211548356506332,0.21479329078566745,-0.5495352896017622,-0.3647076041901427,-0.29880028388845464,-0.22532416233383765,undefined,1498936696574
903d185fccf839df,-0.1331387400916982,-0.672609577918774,1.3655770829457983,1.2966614845387952,-0.8133735477645235,-1.8970126855108482,2.024255591098467,-0.07399776461073808,-0.33829562223161547,-0.3231853396695625,0.0909479192458428,-0.05154005662105705,-0.7042669340463459,-0.4539974225659423,-0.8749692081698315,0.08602919600259544,-0.5930036517133263,-0.4431881540005956,-0.840522008701694,0.26422229959126253,-0.5399532886492853,-0.3810358681806484,-0.3387381694711959,-0.20777676607174866,undefined,1498936697727
903d185fccf839df,0.0013046878568687057,-0.6432587695567199,1.612487394075394,1.6108251015476138,-0.8086935537135258,-1.8850077857828682,2.0107699463666293,-0.15629761040650675,-0.3129987357510433,-0.16512187907583237,0.0821144835138379,-0.08328555934561278,-0.852230949197861,-0.472514103293191,-0.9244429996008929,0.1325032100058831,-0.5921649406609726,-0.45740561272797725,-0.8958317989693291,0.2251102459229514,-0.5687504871563793,-0.43693467268620245,-0.41533989386870657,-0.29289852037452335,undefined,1498936699227
903d185fccf839df,0.04704326471962747,-0.6350405595830205,1.7751807863572662,1.7234103154741207,-0.633764698056696,-1.8939404189340194,1.9947439146314752,-0.23190511334024674,-0.34718641413518797,0.023898928841956428,0.12930550839260319,-0.21243085621432056,-0.06454016265597147,-0.4345549039170988,-0.9939167261359249,0.04763762044617177,-0.6285705194625212,-0.4260702074454617,-0.9571868326538204,0.15075115091079874,-0.5802919485686401,-0.4527831865640364,-0.45825379473520905,-0.3759459359270558,undefined,1498936700733
903d185fccf839df,0.04704326471962747,-0.5522713863919202,1.7688006782419918,1.622846113989229,-0.5095134770557935,-1.8690571572643666,1.9302137307228975,-0.5795977445817877,-0.4705799580173056,-0.1606011886635049,0.1532822389205612,-0.1533121290732458,0.30101799242424243,-0.4206674386993732,-1.0581273463403753,0.06986434737358896,-0.617354471964764,-0.3845134295727359,-1.0093690485329854,0.1355528883651074,-0.5720507105534278,-0.45266385916405905,-0.4993937428000342,-0.4043770641459409,undefined,1498936702220
903d185fccf839df,-0.16501697693984105,-0.6215391853982363,1.5525143777918142,1.5009484108343576,-0.46968726376231223,-1.8695626018425735,1.95696411250554,-0.40324931475248577,-0.4042634726587346,0.034403191664743,0.19790151158178046,-0.09519369297244286,-0.47361714572192515,-0.3734498730581076,-0.9960220157864537,0.07996740249834935,-0.6956618269470657,-0.35778207427170783,-0.9554866083815375,0.22500245660289264,-0.5236539693888381,-0.4720033971891144,-0.5303379534875741,-0.4221415105891177,undefined,1498936703723
903d185fccf839df,-0.36876124232624424,-0.6233002303926004,1.7719906052311543,1.6146347392605618,-0.7247108382646568,-1.8620018925401134,1.9339901279729323,-0.5694048781512884,-0.40883592919373357,-0.004025046990513584,-0.03532200693461671,0.05464317535770764,-0.6128773952762924,-0.40492821993381073,-0.9749693254237117,-0.0048981022671973845,-0.7487478595339507,-0.3670661694037844,-0.9663106747465865,0.20523085264986077,-0.5392541779777323,-0.46867646861003276,-0.5146545322245758,-0.4543865406332304,undefined,1498936705222
903d185fccf839df,-0.3784633354137545,-0.6051027654508374,2.072494078666005,2.027145726243624,-0.7494582323050263,-1.8436754383504474,1.8679399307563895,-0.9440410394044894,-0.4094072210790149,0.34475943286748567,-0.14957682377624262,0.06456987320992669,-0.8826941287878788,-0.36974653432250293,-1.0360220626880057,-0.01095998056560808,-0.72776603435421,-0.3714675640691887,-0.9805771716102982,0.15286073831388475,-0.5505381429766284,-0.4626376875483313,-0.5524308914034796,-0.4597543804652433,undefined,1498936706724
903d185fccf839df,-0.1705610646381138,-0.47537233395404144,1.88045244319082,1.8733613888086613,-0.7482136637835854,-1.8560413699519744,1.860786862716468,-0.9990014093870756,-0.5100235906978567,0.43652286620144254,-0.2295237854451151,-0.07483365390770315,-0.852230949197861,-0.4169640611114449,-0.9697062117308967,-0.04328973435306412,-0.6951218582988316,-0.4648468188359465,-0.9527718451496807,0.0704020636221358,-0.6069099866692647,-0.45971323037428835,-0.5373454426707522,-0.45136186352089047,undefined,1498936708221
903d185fccf839df,0.07892157057858977,-0.4824165139314981,1.8453617214883358,1.8242859384076815,-0.5772345214169932,-1.8510358337968593,1.9030373197316224,-0.6820143049693671,-0.5108985900566854,0.30642688283721503,-0.07203543212643948,0.03899687193121803,-0.6650999888591801,-0.4475165830163278,-0.9097061266541009,-0.04531029450151744,-0.7225904357330595,-0.47730371958643303,-0.9176758413151371,0.049244594745969095,-0.6089118529508903,-0.4517815701234045,-0.5560234439693362,-0.4656374187783419,undefined,1498936709740
903d185fccf839df,-0.04304773768603537,-0.43662925639405287,2.0405935380896327,1.981966544394438,-0.7264285533410371,-1.820935074010448,1.9131226270136836,-0.6176471836249922,-0.48960560626914884,0.03395154533757453,-0.13107141221630383,-0.07577026775001953,-0.49537655971479505,-0.48825327025565524,-0.9476008765428905,-0.025104240781439715,-0.708929316094673,-0.5001656451655582,-0.9400446455471817,0.04293123302842847,-0.6329831114845769,-0.4264592197475681,-0.5213875534768329,-0.44725863928524406,undefined,1498936711212
903d185fccf839df,-0.25372196604728814,-0.5029620388657466,2.0278330677221343,1.983502455428599,-0.8890145645176121,-1.7881696651133112,1.947883409525745,-0.3953963669683434,-0.4080374339595623,0.02467669714716166,-0.008644316746374914,-0.026253143878774064,-0.8000083556149733,-0.4993633253147928,-0.8570744596451167,-0.041269117675167735,-0.7039681189291535,-0.5101083669716034,-0.9086569517341937,0.09063561680562723,-0.6253583336608317,-0.40589352045038923,-0.4818710876871405,-0.44699840300087473,undefined,1498936712782
903d185fccf839df,-0.39093742059228653,-0.5534454456161553,2.3264223816539285,2.219233725514762,-0.983046406207126,-1.7982110162100835,1.9343662102949086,-0.5286636630379359,-0.41444290912193765,0.14131644415913525,-0.10076271757729345,0.04217022805901703,-0.7129706996434938,-0.4586265733215926,-0.8128638702536759,-0.021063063955090014,-0.7965218191649488,-0.49306641674273494,-0.8868968699872495,0.18025456677210072,-0.595207994085738,-0.4091410982575775,-0.48857705848299043,-0.45040055553166414,undefined,1498936714216
903d185fccf839df,-0.23570372415966387,-0.5869053297370668,2.2983496518097715,2.1757625599695922,-0.8577254754909461,-1.807665399020331,1.8552406040690732,-1.0556488796713126,-0.37596428854043495,-0.15713095862666104,-0.05209795060967636,-0.0781344517217231,-0.6433405748663101,-0.35493323118318254,-0.8244428234491423,0.029452098609825828,-0.738200353642543,-0.42997129902883213,-0.8963075805796777,0.3531483165913318,-0.5380855253154614,-0.40348402607238193,-0.38534966016617367,-0.4824759210454502,undefined,1498936715723
903d185fccf839df,-0.32579476107073646,-0.48652563353234396,2.2894175004483874,2.11271492531489,-0.8156364080667978,-1.85302267430742,1.8708327129951177,-0.969917956916915,-0.421007288245665,-0.42602570481734814,-0.26087447358178456,-0.07584314158063302,-0.13852217023172905,-0.425296576504249,-0.8760218677195635,-0.07763996349480888,-0.7452864106181245,-0.436088922715316,-0.9012403322722035,0.34424801731773474,-0.5476315567275668,-0.4143496670680337,-0.3747597102191157,-0.48415831912800594,undefined,1498936717225
903d185fccf839df,-0.3424269206493255,-0.38321083310902193,2.2045621895837115,2.190809180705046,-0.8473677835565061,-1.8087927516226583,1.936341174888236,-0.4589315560782722,-0.524878606465761,-0.662562653596057,-0.24062416349367136,-0.130485695610491,-0.8043602384135473,-0.429925766112223,-0.9149692697958512,-0.07764004828897349,-0.8055035642920524,-0.42043388747845956,-0.9083560886891018,0.3195951063467023,-0.5452522739010357,-0.43573927012406416,-0.3904261784716133,-0.5204322341398051,undefined,1498936718730
903d185fccf839df,-0.45469413582644036,-0.24643630931874633,1.9499960028527357,1.8009441350985351,-0.9778521306450749,-1.7637289603130242,1.8886233465207045,-0.7405109093978479,-0.49824806879364053,-0.38429727353069015,-0.2251459320603228,-0.01745661311485515,-0.9566761363636364,-0.4012248941489806,-0.9707588050205245,-0.11401095063805769,-0.8243325828883235,-0.45758293449761756,-0.9300252118946493,0.24879305558475706,-0.5773907468849733,-0.4379430623374268,-0.41943971904839805,-0.49210499486421516,undefined,1498936720222
903d185fccf839df,-0.3244087477725207,-0.32744446674347477,1.6501304131609376,1.5670504263761535,-0.9350842042756219,-1.7986722082870352,1.9469077325378177,-0.3970985441974238,-0.4901169170244165,-0.542409584674025,-0.18138580944259666,-0.034197430604501464,-0.847879066399287,-0.4391840676235237,-0.9728640799465857,-0.08370187005794111,-0.8039240023344241,-0.43640557049714557,-0.9449564067520239,0.13793964630537242,-0.5917465259482637,-0.4304468208233396,-0.41384524947103674,-0.4642648320962324,undefined,1498936721720
903d185fccf839df,-0.23293180107946157,-0.3896680857723342,1.5652745940223631,1.5220917319379639,-0.9584018796478786,-1.8129737365723122,1.915300097472691,-0.6411300567915986,-0.5326739229574892,-0.46836247010020954,-0.19617123326045224,-0.04597001592045869,-0.9653799019607844,-0.4502940967811122,-0.9760219923356775,0.13048250853382212,-0.7891790717581546,-0.40604543886207517,-0.9246026842543252,0.3276946861609218,-0.5327760900922802,-0.4171624114576929,-0.4463991874640612,-0.40857173081043796,undefined,1498936723232
903d185fccf839df,-0.21214148083729123,-0.42371492643538233,1.9193712297624688,1.8476563829297385,-1.0054075121168993,-1.837635720753201,1.958668222531178,-0.3941607708489223,-0.5327328584113332,-0.23648640284292566,-0.22973693613648893,-0.04207755805636002,-0.847879066399287,-0.47158825242082164,-0.9539166718721389,0.16685352394179248,-0.7737996932238482,-0.35896633659969984,-0.9179137329583489,0.3755530551330103,-0.4926371663967573,-0.4373699318587365,-0.5011743681484765,-0.4196230370096615,undefined,1498936724727
903d185fccf839df,-0.09987428291288121,-0.4706762431970627,2.014434713611583,1.9360192634018114,-0.8797574334540191,-1.8434262088154658,2.0273377176152954,0.10436356214777338,-0.6231545241031478,0.0099562741674226,-0.2541165191886047,-0.016610401880019603,-0.9001016599821747,-0.437332365878785,-0.9002323968490592,0.3386050936213393,-0.7239991323693241,-0.24997004389272995,-0.8973151209544274,0.4228878780638346,-0.4254500647384953,-0.4057149384601436,-0.4384748117912863,-0.38615956892066305,undefined,1498936726234
