UUID,iqrAccX,iqrAccY,iqrAccZ,iqrAccXYZ,meanAccX,meanAccY,meanAccZ,meanAccXYZ, covarianceAccXY, covarianceAccXZ, covarianceAccYZ,pressureDerivative, pressureIQR, iqrGyroX, iqrGyroY, iqrGyroZ, iqrGyroMagnitude, meanGyroX, meanGyroY, meanGyroZ, meanGyroMagnitude, covarianceGyroXY, covarianceGyroXZ, covarianceGyroYZ, class, timestamp 
903d185fccf839df,-0.7429851778985948,-1.0612138574110406,-0.461049268210499,-0.46296301837916615,-1.3842926562398639,-1.4024732787984477,1.8305527620740598,-0.7647972461529572,-0.3429594876436102,-0.44837407628025233,-0.07799334080380813,-0.5708712869756349,-0.5106081495098039,-0.7780392705389215,-1.014969372325264,-0.7464612291416377,-1.172870098248956,-0.6734913106725792,-1.001097342704039,-0.8240142092581467,-0.8597781699599649,-0.48886268469999195,-0.686258543819258,-0.49832544313378163,undefined,1495192634283
903d185fccf839df,-0.5967605161462598,-0.65177048702948,0.09242517432379699,0.12077797167725195,-1.2204304475902235,-1.4014605623341012,1.8541682108741078,-0.5060526624924544,-0.386173789652512,-0.39020031210717154,-0.10209835833343363,-0.976130474851121,2.3594585561497325,-0.4595524500955111,-0.9391798430987497,-0.21706203376939345,-0.8835899192638834,-0.5492181892878591,-0.9458735270975696,-0.4272922730529768,-0.7206926442034147,-0.474168826000263,-0.558868271114684,-0.5512738163576071,undefined,1495192635719
903d185fccf839df,-0.5129066943515019,-0.44426050982561555,0.34475902209103776,0.300186326815964,-1.201832208776482,-1.4502766498320707,1.887279776148552,-0.37566472431697534,-0.3852123830831878,-0.2915435382029223,-0.09266850703834432,-0.6554119167841874,3.4822443181818183,-0.3984473544826471,-0.9707588197449921,-0.035207239376757044,-0.8433851094308236,-0.5718327541098953,-0.9745544718389985,-0.10796668616693608,-0.6806270794274171,-0.4819127194329982,-0.5862675582510439,-0.546906482900793,undefined,1495192637234
903d185fccf839df,-0.23015967096680087,-0.30865986989162103,0.7747788173344345,0.7949898722532414,-0.7081405791133655,-1.4962204948233944,1.8199249309311396,-0.72543410274612,-0.4371017908667599,-0.49102640056658475,-0.11936887505080362,-0.5178510670316705,1.0060230057932265,-0.39937321830579103,-0.9012850711232588,0.5830986375873837,-0.6190814159219732,-0.5653547035935075,-0.8778067448999114,0.5509162203332367,-0.5154055716145852,-0.47354480159120294,-0.6334726042548543,-0.34343415624696816,undefined,1495192638782
903d185fccf839df,-0.10264637852013218,-0.3385976932517965,0.987236290504599,0.8782431685611902,-0.5551716984787513,-1.5871376897807918,1.7964302385038387,-1.0023054233262354,-0.47706707032998014,-0.5858974435312841,-0.061521191670444765,-0.20344085178821544,-0.8565828319964349,-0.424370758008816,-0.8844429085259381,0.629572736384836,-0.6549995202511061,-0.5779421299478741,-0.8559580358153174,0.568475114335817,-0.5094692942784568,-0.45465724930915624,-0.6813298104379151,-0.39621639091870103,undefined,1495192640266
903d185fccf839df,0.019322860733673487,-0.33448858826494676,0.9196071444826899,0.8118458919745111,-0.24313450784884164,-1.6378801647514962,1.845944227874649,-0.6568146363295784,-0.49775110914362886,-0.8839953720762137,-0.0870520697501507,-0.09319164701663189,-0.6172292780748664,-0.35400739326158775,-0.8802323954849846,0.48610954581334476,-0.7271177919029475,-0.5473021832732263,-0.8590698297283069,0.5157930749729015,-0.5088962949916693,-0.4807966973758231,-0.6344918025347787,-0.43749016601037044,undefined,1495192641762
903d185fccf839df,0.033183131737469944,-0.40903955148234766,1.1952278150625462,1.0996087299252923,-0.2925778499858413,-1.6728723265674186,1.8414525151785677,-0.7372327361468121,-0.6412935907964674,-0.6146991305692879,-0.08430946211706371,-0.18013771790816502,-0.10805899064171122,-0.37067239167025956,-0.8497060268528376,0.34062571029923566,-0.7640678149655538,-0.5524440966564254,-0.8529693342236365,0.634431724741637,-0.48743303047142633,-0.4695895760936839,-0.6673171772838427,-0.4742419215499407,undefined,1495192643237
903d185fccf839df,0.04565704438895331,-0.3644264116251222,0.9349196580962981,0.9210604323540357,-0.16769919631425065,-1.667060874162093,1.8290766511747143,-0.7688718137945434,-0.4593080046096188,-0.8282911165190721,-0.06840886539273239,-0.19175605496284118,-0.49537655971479505,-0.4938082783590622,-0.847600766651244,0.37497605249986654,-0.7444871918453687,-0.5887571967545573,-0.8755200549390025,0.7058959082000541,-0.49812765890859073,-0.4663501143077165,-0.6191439824770487,-0.46681314358554815,undefined,1495192644747
903d185fccf839df,0.23692736261846342,-0.28283118074628766,1.419170245251053,1.2332677483294736,0.08653237693545969,-1.7133405281305267,1.7521574537212046,-1.2292834318721677,-0.613186245121756,-0.3499522770230673,-0.1329315749091546,-0.05186107356406306,-0.7347301136363636,-0.38270820694634466,-0.8876008135527961,0.49419201252493034,-0.6817756512604661,-0.5261117187227592,-0.8846368997865808,0.8473922265696235,-0.44267221484785424,-0.4825954984054802,-0.6020453187308045,-0.47202003235669554,undefined,1495192646211
903d185fccf839df,0.21059304094154466,-0.29633252570307955,1.1760879989906217,1.061735429259716,0.13836199894490483,-1.7784707155742787,1.7620087006385878,-1.2583777575556294,-0.5395044137856461,-0.567622383344954,-0.10586626342429847,0.09984944702161266,-0.6389886920677362,-0.3771531858921631,-0.9265482303535514,0.3547700270445104,-0.785551954713502,-0.5082718165330361,-0.929563423037431,0.5239478788530035,-0.5202102024321981,-0.4865131687930864,-0.5325436159256995,-0.5955175360197614,undefined,1495192647717
903d185fccf839df,0.13990622471090233,-0.36501339739525124,1.0874041149828826,1.06990111975605,-0.014915457414117182,-1.8382110441827821,1.8638873868585621,-0.7597535705368378,-0.5586884022110701,-0.5574489697895614,-0.1582779313490965,0.06022558647052844,-0.3996351381461676,-0.4354807547894681,-0.9444429862404999,0.3082961543648304,-0.8076759690529154,-0.5149847366262149,-0.9410731770641405,0.5050385874949435,-0.5397596387773129,-0.4674843767599217,-0.41997359576928933,-0.5852608315609559,undefined,1495192649228
903d185fccf839df,0.16901264199507207,-0.34975097821610285,1.095060244721212,1.0162065152163815,-0.14917466165545526,-1.8507027539563923,1.928191416049441,-0.4006881783486217,-0.46379080600348555,-0.6148005039037215,-0.18828499727128298,0.08108599851349085,-0.7390819964349377,-0.46047824916478225,-0.9412851033003433,0.31637850801752976,-0.8037458008970871,-0.48998860753290885,-0.952114145116902,0.45853527907005315,-0.5421561131734969,-0.4879476833512437,-0.4234062757203609,-0.594842745524605,undefined,1495192650761
903d185fccf839df,0.06090332869096553,-0.48065549816512626,0.9725621689079426,0.9905010804365704,-0.2725413062653706,-1.836305726514353,1.9052963324296341,-0.6021935367404712,-0.47565654912581495,-0.4614298729662832,-0.1432209072616839,-0.007520098666247044,-0.8783422459893049,-0.46881079045913543,-0.9307587507567386,0.2517189439131746,-0.8252595005237573,-0.454004821951071,-0.9420457355315951,0.46281604714644237,-0.5225986385662469,-0.48109779581676365,-0.46115115473624124,-0.5962883565166259,undefined,1495192652215
903d185fccf839df,-0.1303667134952667,-0.43721632984815895,1.0956986367381636,1.182048039282157,-0.5285420207900579,-1.8038803859658679,1.8642345392473951,-0.9108733400576714,-0.4827115176888364,-0.47054707944129837,-0.10815669595295116,-0.056531549218268834,-0.7651932932263815,-0.4901049590496194,-0.91707455944638,0.13452374188961488,-0.9132868528937964,-0.5082338182674752,-0.9238610235737462,0.24001593960717804,-0.5867226484355387,-0.48914645909556925,-0.49081859451595045,-0.592430369131037,undefined,1495192653722
903d185fccf839df,-0.21352751138821185,-0.629757424599928,0.7849867361819243,0.9059082074982472,-0.5255900289308485,-1.8181889018854411,1.8784670418777776,-0.8571537772269104,-0.49991751812107804,-0.7634375992297715,0.02170053430814739,-0.08340731002483276,-0.7913045900178254,-0.5391741357802019,-0.9054955768019785,0.16685355220651402,-0.9128061557730709,-0.520830044050161,-0.9057672692091495,0.23741360177480095,-0.5852185204498125,-0.468449496088308,-0.5130213343536734,-0.5746824003394636,undefined,1495192655208
903d185fccf839df,-0.008397336219822091,-0.58925336050156,0.872394344429659,0.8895091565997284,-0.3483983273554908,-1.8582075609667437,1.9598542675596082,-0.30555787822160163,-0.4735146180851462,-0.6134842012218288,-0.017129915929944832,0.0010075733927014984,-0.8261196524064172,-0.5613941552430552,-0.8749692228942991,0.11431780122842332,-0.9181021892622894,-0.5355034736537383,-0.8843850154881114,0.10977588355299983,-0.6091595679242143,-0.4690090454820485,-0.5558715630007344,-0.5649924339039407,undefined,1495192656724
903d185fccf839df,-0.009783487539676783,-0.545227162572475,0.7977469524124732,0.8410446602823582,-0.10497702011079894,-1.896258011195157,1.96556094107572,-0.2473751964709112,-0.40402465519558073,-0.6486250921901595,-0.03745001998012318,0.10817631851260869,-0.8739903631907309,-0.5354707840938226,-0.8497060489395389,0.10825592293001263,-0.9533165274609995,-0.5924493047954066,-0.8499117281335622,0.07345095544355583,-0.6312096155276224,-0.4538901593801529,-0.555507121828231,-0.5261803513305346,undefined,1495192658214
903d185fccf839df,-0.03750375350399183,-0.5604895963656197,1.0063766148504225,1.109547019507422,-0.13941353180307264,-1.91417917844861,1.8908323714787099,-0.7811574504716363,-0.28987047045642095,-0.4661890076942258,-0.043061155195297386,0.002808395085617129,-0.7390819964349377,-0.5502841649377903,-0.8381270883818388,0.11027651134318747,-0.9312607964810747,-0.6449367413292313,-0.8465112774296739,0.1646559465833785,-0.6316294022360353,-0.4563031472140059,-0.5605024157310415,-0.5677277727777278,undefined,1495192659734
903d185fccf839df,-0.05967996627544386,-0.5587285221432632,1.4319302073446525,1.3589145889804533,-0.1975585815326741,-1.9028497585377746,1.7957806665731002,-1.381713001127357,-0.4041964397918726,-0.5164305524108024,-0.08841011979256164,0.0008762717472754534,-0.7738970588235294,-0.6308317079702378,-0.8149691672664385,0.1466474136922717,-0.9504159768329513,-0.6630046280961007,-0.8406199623167221,0.21037393072299615,-0.6258289245839905,-0.4574403407519013,-0.5905827299409694,-0.6183616123287416,undefined,1495192661216
903d185fccf839df,0.04149907350512552,-0.546401207182714,1.404495869517447,1.4734443006038587,-0.26239962020836377,-1.8944668282756958,1.7955860694969645,-1.3734484099537483,-0.49674320384552717,-0.5498072641170405,-0.07456919735725179,0.11374569233067638,-0.7434338792335116,-0.63916420393688,-0.8181270502065952,0.38912039750986277,-0.9134127034899346,-0.682820408137357,-0.8510242197355515,0.34383225610011764,-0.6069706173110657,-0.49488275681354205,-0.5996601939981403,-0.6382280333365644,undefined,1495192662752
903d185fccf839df,0.24524323537529952,-0.6215392146262286,1.475315196665468,1.503107812741281,-0.270813323726701,-1.8811063128179093,1.844574103936416,-1.041957448944502,-0.6067586470160494,-0.555340712756234,-0.08121787444075389,0.05947031730253188,-0.5693585672905526,-0.5715783141021126,-0.8170744274680322,0.3951821910141089,-0.9164720570993897,-0.6516369935473922,-0.853333167728581,0.36414280680152805,-0.5878136790657457,-0.5207652425433257,-0.5361185213207721,-0.6391558121822976,undefined,1495192664212
903d185fccf839df,0.15099433109662835,-0.6244742603888432,1.2035223368178272,1.1503482533549663,-0.5028277882445044,-1.8855574887226794,1.9673702668091444,-0.3381147113745529,-0.5369527878986272,-0.435058006568285,0.042715341552626324,0.03144599625321553,-0.6999150512477719,-0.5234349752931249,-0.7749691130026527,0.5022743661776298,-0.9033770867731947,-0.6074963756176703,-0.8239955391293187,0.38975042318071734,-0.5480810998804192,-0.4624908687942927,-0.5407216579371547,-0.6534180997743622,undefined,1495192665709
903d185fccf839df,0.09416768235355331,-0.6350405888110129,1.3017760017930537,1.1625717685899533,-0.6196424500045205,-1.8874208793612512,1.9590495586987113,-0.45312867867072765,-0.46899211552011794,-0.06164240403387226,0.040933652221521566,-0.017095522127364104,-0.7782489416221035,-0.5650974939786598,-0.7833901611712609,0.5204598880139757,-0.919979060657145,-0.6002324891311152,-0.8187829143716685,0.5221308602844577,-0.5247982658178211,-0.4598995582445343,-0.4890166219880342,-0.6992576576010481,undefined,1495192667205
903d185fccf839df,0.0927817035607473,-0.4912217389033189,1.2239386827867054,1.2537264403613482,-0.5908836329468425,-1.8665066403874069,1.912607185534809,-0.722393173999595,-0.4088369306004043,-0.08652765853406603,0.056009996940655,-0.055534364572208395,-0.6085255124777184,-0.5956499899819936,-0.7949691364534287,0.37901737064982394,-0.9205894650438023,-0.6118154423972985,-0.8204411587757724,0.40427115836739963,-0.5610007286343078,-0.45578584075399137,-0.43504911537953644,-0.6258953742185163,undefined,1495192668722
903d185fccf839df,0.01100684995519844,-0.5704688513336832,1.239250942263364,1.3004183141528651,-0.46059471037503413,-1.8590693793604705,1.7985367267910457,-1.4165665792035336,-0.41258625080625205,-0.011200130331949212,-0.09538905954882342,-0.11423007563063028,-0.7782489416221035,-0.6345350402304551,-0.8160217679183002,0.3002136593885233,-0.8946275381643263,-0.6176354185614449,-0.8010809840893217,0.32872638697341516,-0.5749932231903654,-0.4210162710047795,-0.4367358295779526,-0.6455699361532051,undefined,1495192670217
903d185fccf839df,0.01516482083902623,-0.5775130313111398,1.2003321556917153,1.2117685117710024,-0.3595068765761042,-1.8627262856310747,1.844850238537708,-1.0674581404379635,-0.40578770872129905,-0.2380925569410757,-0.1906684113362923,0.20356736447618234,-0.4213945521390374,-0.6215733611312262,-0.827600743200468,0.14462691007326145,-0.8697557327430248,-0.6250892933306386,-0.8097150486132684,0.36030859562204076,-0.5856845450982854,-0.40407944213169583,-0.45402359282697563,-0.6430826243573542,undefined,1495192671720
903d185fccf839df,0.1773285147519082,-0.5692948213374405,1.1231327204284196,1.1623439034573577,-0.28620071926236584,-1.8949978945618606,1.9047861463676001,-0.6821790946259894,-0.39566020659080925,-0.20383997309175933,-0.24717914568919586,0.17879855437648204,0.7579656862745099,-0.5873175134415132,-0.8539165840671938,0.13250323827060465,-0.8420010805526758,-0.6330878013003812,-0.8182861418943785,0.35607402092995544,-0.5913214311307844,-0.4343373412643189,-0.5051072472772157,-0.67310446766551,undefined,1495192673236
903d185fccf839df,0.34087835998464483,-0.564598672124477,0.8781365688018807,0.8240832715920733,0.2075950265770623,-1.9000034302856947,1.967930413899379,-0.11470993656535135,-0.2919233011871734,-0.16238301277483855,-0.22521762428224418,0.13529508212701835,-0.2560230057932264,-0.49751162357005413,-0.834969175992747,0.06986434737358896,-0.8205952923583895,-0.5799100749410774,-0.7864786404931584,0.3341928289949583,-0.5589474095160786,-0.4669443713213097,-0.46350058797203925,-0.7129431083322937,undefined,1495192674724
903d185fccf839df,0.468391721442133,-0.44308645060138047,1.0427433581759615,0.8831161136954874,0.1699802315091227,-1.7835996997512227,1.837886510062038,-0.8235600830096527,-0.30957722127486775,0.02707526011050576,-0.17596510794110606,-0.022436223699752983,-0.7695451760249554,-0.46047826211555676,-0.7854954360973222,0.12442082808846218,-0.8062101906221324,-0.5676368301939517,-0.7746260435470611,0.20777159066933795,-0.5671891436806317,-0.47316267600727024,-0.4718537072078636,-0.7090740517863225,undefined,1495192676219
903d185fccf839df,0.43651348459399014,-0.5264426095626098,0.7588281658408244,0.856416130306623,-0.003056047594467382,-1.7193825742743136,1.807141448961704,-1.0192905069281752,-0.25423302004177795,0.12876435866753536,-0.0886931900768147,-0.05834108119215757,-0.7695451760249554,-0.5086216397768681,-0.730758553060147,0.02339033337030128,-0.8401364696532776,-0.5748817174563715,-0.7323583077625884,0.16474833578866444,-0.5656133948217203,-0.4645947402074114,-0.542314322401466,-0.6456718100121234,undefined,1495192677722
903d185fccf839df,0.14960817977677368,-0.5763390013148971,1.0216891284640306,1.0015393812026991,-0.21892197251111206,-1.6989830971417934,1.8316091665755105,-0.8887249493512698,-0.20395831814581233,0.030920333142180727,-0.11522987004808945,0.037443517031800204,-0.9175091911764707,-0.4632557499787921,-0.768653325035638,0.049658265388789695,-0.8381794424155721,-0.5339772333859136,-0.7357587579954629,0.21026614373191715,-0.5378799625520101,-0.5190846548920944,-0.4621955227659286,-0.6240634965286198,undefined,1495192679210
903d185fccf839df,-0.05967975924298546,-0.4800684247110202,1.0803861231245555,1.149918899540398,-0.1395061006617901,-1.7203352331701396,1.8967126481629242,-0.46191135580209586,-0.2345155084343834,-0.2844927674349394,-0.06375559895024006,0.05812967435397772,-0.8391753008021391,-0.5104732897185086,-0.7676007022970749,0.0536994422151394,-0.8903270174347289,-0.5469977651990648,-0.7327011512141608,0.13656918332788423,-0.5560481793000095,-0.511574059655184,-0.47627132731937066,-0.6037955182221822,undefined,1495192680837
903d185fccf839df,0.23831323789504022,-0.5827962247502171,1.4836092101468503,1.4805741925003586,-0.1502237964037252,-1.774289730181112,1.9311105099405883,-0.303457556100041,-0.33403234340212157,-0.5324251552649308,-0.12981606581694707,-0.006642782815840957,-0.843527183600713,-0.541025824574166,-0.7844428133587592,0.0617817958678388,-0.9003236825990372,-0.5544579716772594,-0.7429794676521141,0.13892514576387477,-0.5617555560557094,-0.524295698362895,-0.38362958069500075,-0.5948181624229791,undefined,1495192682215
903d185fccf839df,0.28682370333259155,-0.485351588922105,1.6864969023495273,1.6887560940201236,-0.13023868719201556,-1.7698175902159694,1.913527620937172,-0.4106861868427167,-0.37223327407126156,-0.011167573846775662,-0.14379438885493173,0.08964319911804033,-0.7434338792335116,-0.6447192055648997,-0.7844428133587592,0.11229707149164078,-0.8951475320193366,-0.6026453408383015,-0.7491366610828977,0.08875701159032037,-0.5953300645847577,-0.5456804119905012,-0.36543138499582795,-0.5794236044443247,undefined,1495192683726
903d185fccf839df,0.2147508738037335,-0.5017880673254885,1.6105734887092866,1.6543901130748324,-0.02261943958064992,-1.81531927858373,1.8944378508827606,-0.5698450885041969,-0.3521708516920735,0.21845501478980303,-0.22633848473920332,0.05903386454927712,-0.6128773952762924,-0.5206574550529531,-0.7665480206606415,0.25778085047630683,-0.8763539032681122,-0.5494486135108123,-0.7187285214227017,0.2780962959228092,-0.5247808249679451,-0.5881948458129752,-0.31651725257382746,-0.6631338040430047,undefined,1495192685236
903d185fccf839df,0.04981515329442004,-0.46245803322336326,1.5001977453835131,1.4822247392289585,0.0030125173831992424,-1.8080008091161544,1.8326663391877218,-0.9818808060850686,-0.34293741008761913,0.6112086781278867,-0.1505753989127508,-0.05540538420554429,-0.7477857620320856,-0.5984275166975526,-0.7886533043130113,0.1446267404849322,-0.8728216180890489,-0.5871106303243222,-0.7858839130428527,0.15643317789974462,-0.592320231011618,-0.5641048310455508,-0.33620425587008274,-0.6440715577356093,undefined,1495192686728
903d185fccf839df,-0.04997773516629466,-0.5557934763806486,1.303052277553058,1.2893318099922488,-0.15282608473027467,-1.813304487528734,1.774221532016761,-1.4168187039385378,-0.2884716759953875,-0.06035812155120217,-0.145091000155634,0.005496750640020831,-0.8609347147950089,-0.5762075101854738,-0.7844427912720577,0.1082557533416834,-0.833480522020439,-0.5878135883570192,-0.7799856023363194,0.1285465947581477,-0.5950359857830505,-0.5387185861862197,-0.31096643585644723,-0.6432260345582127,undefined,1495192688204
903d185fccf839df,0.08169366618584074,-0.4659801232120916,1.0197749689609734,1.070401032221865,-0.1176695706723775,-1.8250764637190946,1.877028540954446,-0.750389185348374,-0.27603674048962384,-0.2657284185774323,-0.01834998028536664,-0.010332793357521047,-0.9653799019607844,-0.5373224469862378,-0.7539164300021446,0.0840084662658129,-0.8118315625905588,-0.5920059966562028,-0.8049712127657556,0.1408037553948193,-0.6045927805412596,-0.5161009011864952,-0.3222672699932427,-0.6168108553406818,undefined,1495192689741
903d185fccf839df,-0.06522408847912635,-0.4254760298857312,0.8366654848471726,0.7838575787263484,-0.12576441309135264,-1.7934849930693921,1.8308622913928567,-1.0116063019518406,-0.3130855359639591,-0.49839186887585335,-0.03504919681507235,-0.034244282719810136,-0.9305648395721926,-0.5984274907960034,-0.7360216593907284,0.05976137704299317,-0.8229590107678721,-0.6135823349013573,-0.8108905136785876,0.2290214510932326,-0.6014251637032885,-0.5011844290787233,-0.3936135778363132,-0.6040907332020206,undefined,1495192691210
903d185fccf839df,-0.05829381495558918,-0.5217465480336234,0.9438515553207328,0.9282445319956215,0.0095027925445587,-1.7964221637570885,1.8055372630875104,-1.1556899228516186,-0.3377728964815306,-0.07110358848240772,-0.002286998017642933,0.028622865111755966,-0.9218610739750446,-0.6419417047508899,-0.8128638923403774,0.04965818059462509,-0.8533024482239491,-0.6598698206491284,-0.8485263594087024,0.11767529085952683,-0.6589467713571513,-0.47819136732056866,-0.4588491114799423,-0.5153749108386534,undefined,1495192692721
903d185fccf839df,0.3325621421737114,-0.5704688805616756,1.0070147527304245,1.0058883094966184,0.23145784837952646,-1.8225562261460329,1.8110256692012703,-1.0755793296490994,-0.34181214352582945,0.6880307839918766,-0.05828369660469752,0.036090174835301275,-0.9044535427807487,-0.6289800256516609,-0.7412848319814138,0.059761235719385485,-0.8461250559219886,-0.6453673791572843,-0.7947418742730895,0.09026605844978007,-0.6379897259623374,-0.4486633467413037,-0.495919608328735,-0.513781687093707,undefined,1495192694222
903d185fccf839df,0.6596616256067263,-0.528203742240951,1.3560073019783105,1.4897052608347963,0.5034116781886643,-1.8124473278444864,1.9270343051442413,-0.19284719064542807,-0.19816290716523427,1.4506495654164588,0.0926295729025519,0.09031641755541081,-0.6433405748663101,-0.6456450434864945,-0.7318111316253073,0.049658265388789695,-0.8576726637027359,-0.6274768117737521,-0.7863736888193732,0.12548230354891982,-0.6217471618403314,-0.4428134937599425,-0.5680084408180666,-0.4979779889908812,undefined,1495192695759
903d185fccf839df,0.970129087482791,-0.63386655881477,1.7943208565661402,2.0959125458686514,0.9917457135852811,-1.822099694592478,1.8796820147443083,-0.32865264005872846,-0.07330645347655526,1.9793085640409627,0.09628749627269757,0.08961013383314217,-0.7956564728163993,-0.6252766998668308,-0.7644427751835156,0.057740732100375246,-0.8497227678983434,-0.593012932264775,-0.7496894096926906,0.10822064765756192,-0.5985437144604393,-0.45893592961351515,-0.5448440749078303,-0.5135281972845595,undefined,1495192697224
903d185fccf839df,1.3498970072371852,-0.4835905731557332,1.7688006782419918,1.8983258822539877,1.149980879017653,-1.7815080434020154,1.8358799626866236,-0.4809233575483339,-0.028266124659187042,1.9904310681997148,0.22399090835226423,0.05035942250960095,-0.9914911987522282,-0.580836635039575,-0.7918112314265706,-0.10996977381170799,-0.8888469268523737,-0.5517918018852408,-0.6980249586075006,-0.024005805570594684,-0.5845451820806057,-0.47293764880873007,-0.5646284437419855,-0.5288278541980638,undefined,1495192698725
903d185fccf839df,1.08794021783113,-0.4589359140066426,1.8683301107033239,1.9290709236148034,0.8315562697286462,-1.7729480902037313,1.722088255777354,-1.3212215997501715,-0.19264537070767349,1.7619707930654613,0.1335462266030087,-0.056181305734356285,-0.9784355503565063,-0.5400999866525712,-0.7844427986342916,-0.18877348507300865,-0.8705814730878695,-0.5465607904852284,-0.6663294051220559,-0.07526722973431786,-0.5802707962968867,-0.46405060043903346,-0.5492226973803941,-0.5187121872878725,undefined,1495192700223
903d185fccf839df,0.4794796207954006,-0.20828024675687912,1.920009367642471,1.8483888096262777,0.23586011935807571,-1.6188246616208923,1.7477893559294586,-1.0773703594576194,-0.4233482775163837,1.3133657381138166,0.13513970046303259,-0.004138107119797126,-0.8174158868092692,-0.5780591471763398,-0.7391795938665217,-0.16452614146769506,-0.8575775649913359,-0.5349778373740717,-0.698934543954181,-0.0781005453253739,-0.5841422126730342,-0.48040933111761236,-0.5290919967170136,-0.5338582300177891,undefined,1495192701717
903d185fccf839df,0.044271169112376496,-0.2816571215220525,1.7126554726906271,1.7227172985150072,-0.2879904265660224,-1.518001212067441,1.7336804446341714,-1.188303967373352,-0.3418749985007061,0.42418820171124955,0.17443929044880654,-0.06880605976206068,-0.9001016599821747,-0.5493583270161956,-0.751811169800551,-0.22110323886046468,-0.8899707787226148,-0.5689034177169002,-0.7227306966508061,-0.21670195363552444,-0.6261697483915512,-0.5003318917565397,-0.5451627810663902,-0.5106746981146805,undefined,1495192703201
903d185fccf839df,-0.16917515485612725,-0.3456419316852378,1.3036901612961107,1.4464547754933839,-0.6786412006392023,-1.5664354119132773,1.831117386518917,-0.7689068291122612,-0.1403646362973402,-0.35120691462917325,0.03375399601957817,-0.05165133681432691,-0.9001016599821747,-0.5558391536150356,-0.7381269637657248,-0.2594947437550845,-0.8551465348586015,-0.5570481473410691,-0.778684192473078,-0.3150672258657894,-0.6523833307619181,-0.5032845814338269,-0.5463051663279284,-0.510645883557688,undefined,1495192704729
903d185fccf839df,-0.00146726972874333,-0.4571747813283014,1.2743416639658482,1.4826834970351868,-0.5517876981775387,-1.7542373108006082,1.9354365334957204,-0.4463733966676274,-0.1613339814033852,0.15136379074008582,0.0766278545098817,0.0667596349208597,-0.9001016599821747,-0.5743558343422842,-0.7970744040172562,-0.211000141338622,-0.8200242637387352,-0.5796124265384099,-0.8255418351099311,-0.3359629153536515,-0.6825918786375806,-0.47427252388724656,-0.5807508613603438,-0.48482907311832724,undefined,1495192706235
903d185fccf839df,0.3602826151704848,-0.5176374430467737,1.3292105937572085,1.5208075788390194,-0.28297100681935616,-1.8622161836082383,1.9007967324182053,-0.7301310454347663,-0.27785893171335524,0.5918817494948797,0.10259574684438173,0.024267418229598013,-0.7390819964349377,-0.5817625118134935,-0.8528639392419294,-0.2958656743688903,-0.884892832602024,-0.5559082188024017,-0.8744425466940517,-0.36032325805556104,-0.6936553823655777,-0.4727997762465725,-0.522793504206781,-0.5181815991266348,undefined,1495192707762
903d185fccf839df,0.4392854421796022,-0.44602154020598356,1.2392506881264147,1.407205757677792,-0.01614974277918154,-1.8648854915770354,1.8602661563930571,-0.9200109047009316,-0.25155036644328127,0.554603116840945,0.11556454153922147,0.07104100467369123,-0.8870460115864528,-0.5595424923506401,-0.8865481908142331,-0.3645663729025128,-0.9148840110514574,-0.5550469380359532,-0.9025907171628941,-0.4437058383028661,-0.7147293472157663,-0.46955179418193393,-0.549196230601161,-0.5369814297171736,undefined,1495192709214
903d185fccf839df,0.42126713128115845,-0.4518917194151898,1.0937842230981571,1.2630336900332186,0.34699707490447984,-1.8869969600171548,1.7957517492102175,-1.2346389454824531,-0.2737661001074723,0.6523078980163186,0.19580688725190606,-0.015529646289746691,-0.9958430815508021,-0.6002791666391931,-0.9054955841642123,-0.2817214141530586,-0.9253361268324862,-0.5617091945907862,-0.9036052542567644,-0.38523794082215546,-0.7146059104554671,-0.45614842426858776,-0.5297308784739688,-0.5400920274134282,undefined,1495192710737
903d185fccf839df,0.4060209850007852,-0.44954365942270424,0.9840461093784871,1.2768479836633935,0.37091131711603287,-1.8927059239706268,1.805660852851323,-1.1759214167139127,-0.2735013511813611,0.7132856029019198,0.14344941464398694,0.07062126153833757,-0.9349167223707665,-0.6262024989361019,-0.8760218603573298,-0.24535048353925287,-0.9761543393395479,-0.5424190487861669,-0.8843850154819943,-0.28362359852783425,-0.6844874441159037,-0.4625655862081997,-0.5548800272629703,-0.5576225982952153,undefined,1495192711979
903d185fccf839df,0.4559174637365523,-0.4624579747673786,1.604193380594012,1.67731433061948,0.28393546105424666,-1.9030384276197834,1.8931413415385958,-0.657133177795622,-0.2818894316082265,0.6288693545454669,0.20458139070246908,-0.03109132832958361,-0.7521376448306596,-0.6687909008709426,-0.8939166088820446,-0.2150413888267755,-0.9880972995410664,-0.566249914266243,-0.8758978843657156,-0.24622077391953806,-0.6910372526383947,-0.46737273568987675,-0.5620971093378135,-0.5562972255755444,undefined,1495192713503
903d185fccf839df,0.31731613391497704,-0.5035490684778642,1.5448585021904344,1.703862923855388,0.35816733679493,-1.8864728775865935,1.893391176533968,-0.619549300083096,-0.2746317356664326,0.6389925732917638,0.15933449008563494,-0.00969401481524024,-0.7347301136363636,-0.6910109073830215,-0.927600867816582,-0.3261747973460891,-0.9780144268911299,-0.5578207669071076,-0.8621631441682528,-0.2713356360057535,-0.6903126265693147,-0.4611421503338148,-0.5900100684277021,-0.5395448749048001,undefined,1495192714982
903d185fccf839df,0.38107274563290167,-0.4571748397842861,1.4906272020051774,1.67731433061948,0.33315252198147455,-1.875995959566546,1.9175590934103535,-0.4493556322840775,-0.19095584817259964,0.6196104552313555,0.1678774027860104,-0.028202644970384688,-0.8348234180035651,-0.6623100354197791,-0.9560219247114987,-0.37466937149783014,-0.9943644176695309,-0.58278523125988,-0.8767375015363416,-0.2999459469583759,-0.7101729671913879,-0.4638610013091247,-0.6188000288282328,-0.5459313521004436,undefined,1495192716054
903d185fccf839df,0.33949220866479013,-0.5188115022710088,1.385993683051626,1.5556999833061373,0.42294665763543754,-1.8722458854559763,1.8539335645120745,-0.8427150187005423,-0.16563670878582676,0.8175614496113843,0.2022705625427784,0.03776955900967389,-0.847879066399287,-0.7039725864822505,-0.9454956016168292,-0.3544633177777524,-1.0225082144418922,-0.6051151910926873,-0.8762967018761072,-0.3026560742050478,-0.7216066400495244,-0.46485862440094533,-0.6041879809397546,-0.5540376686712197,undefined,1495192717467
903d185fccf839df,0.3713707905670303,-0.47537233395404144,1.0548654365265082,1.2338422236858828,0.545192163350702,-1.8545716196544104,1.887237435905276,-0.5485876114979011,-0.14452569890663194,0.5114860146980859,0.1989753922175952,0.010689594467448464,-0.7173225824420678,-0.691010894432247,-0.9781272451750374,-0.37466937149783014,-0.9814647164451067,-0.6140699735743262,-0.9021009404810485,-0.2781571456152827,-0.7297633719140544,-0.46203334153490555,-0.6068302822182018,-0.5514541425705608,undefined,1495192718984
903d185fccf839df,0.15515244000209508,-0.5346609072202863,1.1052686718426006,1.0963158259447594,0.3798598763602353,-1.8687077727969423,1.9041391958601503,-0.5215961083222668,-0.2081034985557649,0.13980259364137335,0.16194332016960514,0.04335429529678593,-0.8739903631907309,-0.6623100613213282,-0.9686535521811647,-0.36254574209225565,-0.9634005841358533,-0.611422803621013,-0.90937762411088,-0.2984061022925866,-0.7315600988450871,-0.44987771991498715,-0.6175993078061082,-0.5603197915842214,undefined,1495192720495
903d185fccf839df,0.00407671445330021,-0.5540324021582921,0.8685662795604943,0.847603627367566,0.2879160317316769,-1.866003525568039,1.9307554697126477,-0.40629377286113255,-0.20708373800219704,-0.13963730316901557,0.17991201355174774,-0.07732499550630433,-0.843527183600713,-0.6021308813347063,-0.9897061983705038,-0.30192749613785785,-0.927883997241551,-0.6258239171779824,-0.9158846579203367,-0.31563696370280525,-0.7414631556381227,-0.45264630413582524,-0.5916655572098979,-0.5602771300347292,undefined,1495192721997
903d185fccf839df,-0.24956399516346034,-0.5452271771864712,0.8264573118627335,0.9064302417622199,0.0567964255149131,-1.879450223869467,1.9138089962899991,-0.6140556883742894,-0.13452731681288943,-0.30500576748510844,0.132982164517131,-0.11214206295928503,-0.2864861853832442,-0.6252767128176053,-1.0212851897412139,-0.3443602767853528,-0.9674219555300066,-0.617527760329419,-0.9454951614342103,-0.3223044912407004,-0.7471960240283926,-0.43777034023645334,-0.6188377630057847,-0.5662700142400595,undefined,1495192723503
903d185fccf839df,-0.25094987044003714,-0.5464012364107064,0.8513398605807786,0.8779826143754867,-0.08641133092879315,-1.872460176366448,1.879200757567896,-0.8686956437949073,-0.2888805881688527,-0.27443323664162944,0.03430850240622993,-0.09932370354877283,-0.4823209113190731,-0.5826883497350883,-1.0297062673587571,-0.3261747973460891,-0.9444566070292836,-0.6036332807163745,-0.9771277433342632,-0.305920547170575,-0.7424678062557366,-0.44890659676997646,-0.6181579311788286,-0.5585726168355827,undefined,1495192724975
903d185fccf839df,-0.1262086045898,-0.5370089379847794,0.890258393015478,0.9170983468417531,-0.3005904070605691,-1.8538635292731989,1.8432749731689613,-1.1401575438372167,-0.182692269777641,-0.40264427798646824,0.025498900382715507,-0.03417256868991044,-0.9523242535650625,-0.5789850239502582,-1.0433905028425186,-0.39083429078864046,-0.9522208329064504,-0.6134683424466841,-1.001861470370555,-0.31576015269338037,-0.7548308236103881,-0.4630018137293603,-0.6380243622079685,-0.5255885191278828,undefined,1495192726465
903d185fccf839df,-0.12482259129158423,-0.6233002303926004,0.8781365688018807,0.8336152506926888,-0.49819922170844616,-1.8260337796509205,1.8532182710639853,-1.1031459111665598,-0.2231658275987716,-0.39132915840610677,0.04113770434399458,-0.05316614522639686,-0.9523242535650625,-0.6308317273963996,-1.034969425224975,-0.576730177213462,-0.9841932136933662,-0.6604777829321048,-1.0149245162589602,-0.4413190774412799,-0.7980858479327234,-0.4853078625184574,-0.6644677414578161,-0.5352249718447296,undefined,1495192727962
903d185fccf839df,-0.346584926038563,-0.6491289195379338,0.9291774337240764,0.9677852211946927,-0.6819737677039849,-1.8115272781618021,1.9242440690040075,-0.6723754082134222,-0.23904645444623143,-0.7010019065990816,0.07930815069436642,0.050216469970177466,-0.7651932932263815,-0.6623100354197791,-1.046548393144909,-0.4312464123611567,-1.009462510592126,-0.665075500313188,-1.0324235399617938,-0.375028770387358,-0.7989733285250041,-0.49729213791717136,-0.6578105054080752,-0.5204383783221765,undefined,1495192729467
903d185fccf839df,-0.20659744489713308,-0.6162560796431361,0.9948924202429285,0.9538950300447937,-0.6935451728212069,-1.8005006611496155,1.9476283086383137,-0.4813400920053978,-0.3681683717011849,-0.13095974143664735,0.04157997342010562,0.05175068239142411,-0.5084322081105169,-0.6669392120769785,-1.0360220626880057,-0.5383386440541206,-0.9983135441794428,-0.6515546665862393,-1.0267421293953565,-0.42973944522713997,-0.7989586231552576,-0.4977769442458503,-0.6893330610943663,-0.4955730134421135,undefined,1495192731022
903d185fccf839df,0.01655090314806145,-0.6279963796055639,0.9687338499018284,1.031092691865339,-0.45459814727915815,-1.808837008360616,1.9577583189129306,-0.3476951337485317,-0.3985970364154517,0.2576548339195201,0.0604422916071661,0.04640126033601635,-0.3909313725490196,-0.6447192314664488,-1.0149693870497314,-0.3585044804717413,-0.9539870696491722,-0.6298010048661512,-1.0063254354713096,-0.2951416350216165,-0.760457530711894,-0.4876924271711953,-0.6488489245091181,-0.4582392031819599,undefined,1495192732476
903d185fccf839df,0.30206984961296485,-0.6485419337678048,1.199694017811713,1.3169365373504975,-0.37015257166856935,-1.8601291835058584,1.9647588641133307,-0.3415523514361116,-0.34888952746967133,0.4843136042728688,0.10891810594415136,0.054013424939175575,-0.8565828319964349,-0.7076759122670806,-0.9791798605513666,-0.3382983984869421,-0.950826577080984,-0.6628589708178441,-0.9757423753740362,-0.3193017943652122,-0.773114872797822,-0.4813601479751622,-0.6280100991518301,-0.4843848301904032,undefined,1495192733976
903d185fccf839df,0.11495791633219933,-0.6438457845548413,1.1639656665031255,1.3354664613734657,-0.2681904576884293,-1.8336038065327103,1.8702594142687596,-0.9197000425447239,-0.2052540465784302,0.39288894948407016,0.19607490172879344,-0.07955480021957981,-0.865286597593583,-0.634535014328906,-0.9928640886728942,-0.3686076062583056,-0.9711119333214701,-0.630478629081109,-0.9651492034131279,-0.23929147206862905,-0.7456143813622462,-0.48375255294191893,-0.5918471682520103,-0.5034317829909298,undefined,1495192735471
903d185fccf839df,-0.12205063370597219,-0.6279963796055639,1.23031879090198,1.4602938530366127,-0.45615128373297736,-1.8598636492211496,1.8449633185153615,-1.1648480151912892,-0.2562257119213344,-0.057885531701406326,0.13340590077897382,-0.08694915637685051,-0.7826008244206774,-0.6215733222789025,-0.9486535066436873,-0.31203055126261825,-0.9169493983469448,-0.5981616176946978,-0.9263448899607549,-0.15346053764913326,-0.7043721764654008,-0.4706988695276281,-0.5095884073878358,-0.5119282792324001,undefined,1495192736986
903d185fccf839df,-0.2703541256258772,-0.5663597463468335,1.1990563882056098,1.3748694390914917,-0.5917373476515176,-1.8907703251816632,1.8554430879367956,-1.145063905797183,-0.3020968087419302,-0.2599002986208853,0.051013159745057816,-0.005829287708536612,-0.6476924576648841,-0.6104633319736377,-0.9307587433945048,-0.2211031823310216,-0.8826802766996479,-0.5860023648817987,-0.8954609668979112,-0.11220810223122009,-0.6816648224709141,-0.46022622319986894,-0.4711784901302113,-0.5455153138370724,undefined,1495192738467
903d185fccf839df,-0.30916253248132797,-0.6356276038091342,1.3834413856685666,1.4242842521173107,-0.7773118957601247,-1.9060734279945852,1.925051415001021,-0.751815049882398,-0.45515133413354114,-0.39284570755150977,-0.03528177423876346,-0.005740907891348841,-0.5519510360962567,-0.6410158797800697,-0.9360219012607227,-0.2938450718233546,-0.934836193118805,-0.634645705655413,-0.8784097385773517,-0.17216964791054754,-0.7088801977213662,-0.45961153215428713,-0.45725611505267866,-0.5776290626913444,undefined,1495192739992
903d185fccf839df,-0.26481007243301413,-0.6743705936851458,1.9027829486627552,1.8722405078418565,-0.7658844863243796,-1.9169602921559359,1.9247700296967372,-0.7583917823333787,-0.43453343147867024,-0.1381928528569168,-0.04069403448575166,0.06245539161082426,-0.49537655971479505,-0.643793393544854,-0.9391798430987497,-0.25949472962272374,-0.9485433117312712,-0.6249879664754135,-0.888191280036137,-0.20125731178937664,-0.7117190344175424,-0.45957622454331476,-0.46890199947865324,-0.564869072803399,undefined,1495192741684
903d185fccf839df,-0.2370898064686991,-0.6356276038091342,1.459364545171858,1.491471271478028,-0.7818067478765894,-1.9059476489064826,1.9826520563076737,-0.37470962166204197,-0.39073255136620505,-0.20352264095990902,-0.06467815696415227,0.1254808052320796,-0.7956564728163993,-0.5345449461722279,-0.9349693006088611,-0.17260859404691986,-0.9018366907436142,-0.6297756717958619,-0.8982177097104453,-0.13285741552841934,-0.7092723120906507,-0.41205087487156433,-0.43766309708416257,-0.5360521048947114,undefined,1495192742978
903d185fccf839df,-0.26619612023663963,-0.5957105254808952,1.7930448349430852,1.8572615889616353,-0.8142786909763965,-1.8801070693053457,1.9422450889017302,-0.6183204374292925,-0.37212589676567764,-0.25200008250473266,-0.06021256324583956,-0.04702686277020691,-0.8870460115864528,-0.6113891957967815,-0.9097060824806982,-0.21706194897522885,-0.9363350379081778,-0.6603764563537131,-0.8886880538591806,-0.16933633261566203,-0.7241709852381788,-0.4101853260222974,-0.513002992355439,-0.5547618075453852,undefined,1495192744838
903d185fccf839df,-0.2509499049454469,-0.5716429105579184,1.5550664210379241,1.6180389588201987,-0.915798520830103,-1.890674826425829,1.895079525546695,-0.9711419602155057,-0.32641421979852686,-0.40971519951541957,-0.014816494224315501,0.033800373868612135,-0.9479723707664884,-0.6058341941687618,-0.9581272069997938,-0.1928147184288014,-0.8981988745136413,-0.6676340096695876,-0.9460059286587932,-0.22631058172274623,-0.7562682013990232,-0.41954106635445393,-0.5386471657659417,-0.551872288438827,undefined,1495192746116
903d185fccf839df,-0.24540588625799362,-0.5258556530204731,1.2386130585203112,1.3295914545582617,-1.0358634618880236,-1.8901018334676976,1.9094435225403468,-0.8982704523966186,-0.25140278735893895,-0.40409535706010524,0.08188650525885498,-0.038778001002184294,-0.9784355503565063,-0.6243508748960106,-0.9739167321340839,-0.3241541948005535,-0.9180774916205563,-0.6568363412754477,-0.9646174458170858,-0.3220581166116652,-0.773046586417273,-0.4208966947806352,-0.5934841912331617,-0.5344003863909093,undefined,1495192747617
903d185fccf839df,-0.3050044925866807,-0.6626302644947257,1.2137307639392156,1.2701608832030569,-0.9480647548003938,-1.9191125076529474,1.896628480310543,-1.010844586416759,-0.2101701442464311,-0.49260534956277263,0.1358903451860859,-0.06748705032411181,-0.8348234180035651,-0.560468330272235,-0.9307587286700373,-0.10592855458827598,-0.9102223978421335,-0.624797978757515,-0.9546889714338802,-0.25264192370514243,-0.7423880097637531,-0.4036689099754384,-0.5757787031693533,-0.5090701920453988,undefined,1495192749300
903d185fccf839df,-0.3950954259815241,-0.6444327995529627,1.035725112180685,1.1229895244307144,-0.8696054578949828,-1.911067315705241,1.9829702640980573,-0.4108253947062856,-0.24658384829561003,-0.7268552925605279,0.09928875726431258,-0.07582902596941307,-0.8174158868092692,-0.5752816852146535,-0.9960220231486874,-0.0655163764863167,-0.8611543092965388,-0.6387494529479696,-0.9849221909628518,-0.21363766208973864,-0.751617116187904,-0.40908342673389203,-0.5861228179634567,-0.5216335780063146,undefined,1495192750798
903d185fccf839df,-0.18857920300950884,-0.6714355186945389,0.9578877931743366,0.9941575357996614,-0.5895773515054996,-1.9150037301854712,1.9669494951123956,-0.46438663421525983,-0.30344948460192883,-0.8644342589930311,0.09090837528966465,-0.003757462229385338,-0.8348234180035651,-0.5734300223222385,-0.9886535756319408,-0.07157822652000585,-0.8448275702891948,-0.6315552284376891,-0.9813328270871063,-0.21109692140472408,-0.7426495915747693,-0.44151321162956514,-0.6182075674356065,-0.5000546167855774,undefined,1495192752313
903d185fccf839df,-0.1664029902380568,-0.6843498632672056,0.8194395741413557,0.7819632031427346,-0.555109972093342,-1.9317998737682096,1.9601146364341406,-0.5170177468870079,-0.3196486150981315,-0.6210946601404921,0.05254746384526826,-0.03748769833396849,-0.7521376448306596,-0.5845399737751797,-0.9749693695971146,0.10017341382134477,-0.8794454665321176,-0.6277807955949866,-0.9528138259293019,-0.08664668466164557,-0.7094618790239714,-0.44637349675523547,-0.5936887685217389,-0.5007408664529617,undefined,1495192753808
903d185fccf839df,-0.33133871074737026,-0.7183967916142308,0.5744431683778674,0.4826185460025519,-0.6510343807736049,-1.9386152277604354,1.9262427437293796,-0.7994258976686706,-0.27087008710476534,-0.3880123325394623,0.13489342970215157,0.004396462131060613,-0.7782489416221035,-0.63546087815205,-0.9823377729404584,0.3628524937560959,-0.7333005841055701,-0.6917751908902925,-0.9552906967777827,0.16171484235884134,-0.6817031380765823,-0.45089866642153315,-0.6136261031243467,-0.5009962033464889,undefined,1495192755322
903d185fccf839df,-0.45330805351740516,-0.7477475561342962,0.05956806226979506,-0.037968589980183765,-0.8825345635723004,-1.9453071321796698,1.9423187464441918,-0.7603108783399228,-0.29756258868800123,-0.3843374959070991,0.11376927659957452,-0.02609497270531781,-0.8304715352049912,-0.6595325475565438,-1.0107588445598428,0.3103166862485621,-0.756031758120061,-0.7783718628346101,-0.9634209911082374,0.26460725384817935,-0.6990436406954413,-0.4532666166066899,-0.6488040032210953,-0.510665286374078,undefined,1495192756855
903d185fccf839df,-0.6168577952339126,-0.7600749003228378,-0.1726683814000938,-0.24531469185495394,-0.9931263834232932,-1.9726803509931683,1.9433943302994527,-0.8114696662095594,-0.3287153344045062,-0.6067648617322401,0.06255005177981578,-0.03741163053553964,-0.9088054255793226,-0.7123050792111991,-1.016022031874996,0.2133273966214725,-0.8256869386739336,-0.8153942523422402,-0.9904986489379446,0.2711207978201242,-0.7222586040045978,-0.4655839015493773,-0.6315124129932099,-0.49934558961925773,undefined,1495192758312
903d185fccf839df,-0.5877515159713818,-0.683175847884959,-0.013165424381283108,-0.1252294193292787,-0.8916168441538981,-1.9138810369540415,1.8920947054243484,-1.03530898939901,-0.3288485560763746,-0.7178243578068063,0.04813733248736001,-0.02740739557178196,-0.9044535427807487,-0.7400800970643785,-0.9781272525372712,0.36891434378978505,-0.7678208892463008,-0.8209229126099999,-0.9538983307893837,0.5233627325815078,-0.6711909799305584,-0.4382011442861331,-0.5066848520928829,-0.4666992440072453,undefined,1495192759822
903d185fccf839df,-0.5503291569195564,-0.4683281247485925,0.6535565090072706,0.4758222999929486,-0.847861488140041,-1.8450496884334322,1.9292144080255162,-0.6370567684305999,-0.385584567098335,-0.6197454277201356,-0.07628341935031155,0.0076933128265042495,-0.9436204879679144,-0.7354509463087281,-0.9570745695367632,0.28808995932114495,-0.7740436877091831,-0.8054325314117193,-0.9335516043318121,0.3725349592331964,-0.6807247891976033,-0.432578125480327,-0.5468972139526947,-0.5040952339367862,undefined,1495192761315
903d185fccf839df,-0.4047975535744441,-0.5047231130881031,1.2883776476825026,1.249998420732492,-0.6649612318962056,-1.8207231136271484,1.9057433895907583,-0.6979102962997649,-0.364662336123389,-0.456864605727164,-0.08198945610482954,0.02884747676639931,-0.8174158868092692,-0.6947142331678515,-0.9728640946710533,0.12846197665009035,-0.8714333459052944,-0.7885679030300045,-0.9272054968054952,0.33577887078757385,-0.6777919580272763,-0.4282859614049795,-0.6158293946212726,-0.5457348821434078,undefined,1495192762796
903d185fccf839df,-0.4020255269780126,-0.5405310572015001,1.4236361938632704,1.4552550450774746,-0.6513738243419285,-1.8635950903475869,1.9888584123847923,-0.20969894163915884,-0.2724468374648938,-0.3337288244345048,-0.05589285312715492,0.007659511875480229,-0.7651932932263815,-0.644719212040287,-0.9454956237035306,-0.15240249792975982,-0.9493228500461193,-0.7029021742491967,-0.9234901909150905,-0.03264433312940365,-0.7217616237393923,-0.4438906725111556,-0.5392668828534367,-0.5230742616023395,undefined,1495192764299
903d185fccf839df,-0.1941233252131913,-0.5411181014276139,1.4351203884707644,1.4579343154478464,-0.5663008243268047,-1.9077784299350613,1.8474090409741617,-1.1846239030637626,-0.2755233316710847,-0.3545715861478797,0.0012482134158524026,-0.02158637441231146,-0.8696384803921569,-0.6215733481804516,-0.9170745447219124,-0.09582548533115481,-0.9179827948682474,-0.6484135261291496,-0.8753451358599126,0.016738481255289497,-0.677249133676501,-0.45323439187451003,-0.5523363155868778,-0.5193637033107724,undefined,1495192765804
903d185fccf839df,-0.17194711244173927,-0.500026993103132,1.1760877448536722,1.281898684403447,-0.5197580421809407,-1.8820100559401196,1.9197155516296966,-0.6515287773215266,-0.38129794771004355,-0.25810381179039615,0.09792669628990316,0.009981850825211433,-0.7782489416221035,-0.6336092023088603,-0.9191797828368047,-0.22716503236471078,-0.9697595307766481,-0.6270968386910382,-0.8878834213607613,-0.09522361709243846,-0.6919588767607389,-0.4521335080186741,-0.45200262327367113,-0.5197217868558636,undefined,1495192767348
903d185fccf839df,-0.2731261867277184,-0.48711266314446156,1.278169728835013,1.237251124572685,-0.6449452615343235,-1.8744540037162438,1.966326233262794,-0.3679320537076212,-0.4102523646062364,-0.5074926135910268,0.03441666679825815,-0.016618618636633695,-0.7129706996434938,-0.673420051626593,-0.9349692932466273,-0.2635359629785165,-0.9786738619835974,-0.6382428193085614,-0.8919485683761206,-0.07743841151153037,-0.7007802174269211,-0.45134015730861804,-0.4690297275122436,-0.5125731833371255,undefined,1495192768805
903d185fccf839df,-0.34104083834029025,-0.5458141921845926,1.084852071736773,1.0392596206273093,-0.7892844498096045,-1.8404354641932894,1.9790308289847336,-0.29437468846827114,-0.3730492643110451,-0.2926134933389539,0.06657838325535502,0.03515389742433883,-0.673803754456328,-0.5947241650111734,-0.9349693153333286,-0.118052212258572,-0.9100193346452503,-0.6190096686516288,-0.8895276712072013,0.027763768235217572,-0.6694218370545496,-0.4525515385450841,-0.3964084018820292,-0.5080469260910571,undefined,1495192770312
903d185fccf839df,-0.3881654285012648,-0.5704688805616756,1.3968397397791177,1.3216833469091265,-0.8982408394963517,-1.8573038153782577,1.9536347986046736,-0.50631730071953,-0.30482869583120786,-0.2688592254844829,0.007336806484076861,0.08689829653307729,-0.7173225824420678,-0.6623100613213282,-0.9486535434548562,-0.21302080041360066,-0.9080457780500297,-0.6289777215901304,-0.8899894605048478,0.08199709293549118,-0.6707247335481925,-0.4482821579966877,-0.38290950563651055,-0.5124055602559148,undefined,1495192771804
903d185fccf839df,-0.3867793806976393,-0.6409107387922267,1.4351203884707644,1.407716974515279,-0.982151559149015,-1.8665811767056089,1.9089307229114363,-0.8515319765193679,-0.35745378045941223,-0.0784605165382951,0.008875702410875264,0.006359402472102328,-0.4213945521390374,-0.6771233903621977,-0.9718114277590876,-0.1524025544592029,-0.9055336771501156,-0.6417449358721159,-0.9182565757064592,0.01715423902655551,-0.6940179393622682,-0.44241982715054673,-0.3904703136382988,-0.502109189648913,undefined,1495192773309
903d185fccf839df,-0.3188645910634285,-0.5734039263242902,1.8281355566455695,1.778086870283446,-0.9164773830722667,-1.9056611524541456,1.852332036200672,-1.233121840484197,-0.31519200664793046,-0.14147109860049636,-0.029886087379719938,0.04159161760143238,-0.6389886920677362,-0.5419516495449863,-0.9718114277590876,0.04157585520664722,-0.7930914402795487,-0.6159001922319162,-0.9184594842617834,0.05971554201123207,-0.677430559937392,-0.4493372097959119,-0.5109751255069892,-0.49394529332214165,undefined,1495192774805
903d185fccf839df,-0.22045764689011008,-0.6702615179262884,1.375147626324134,1.4441246223897712,-0.9096888227468045,-1.932475354092744,1.9461345839372892,-0.6395442249231345,-0.30197866824420005,-0.3506273814036029,-0.09722245304612108,0.0403457230494442,-0.6955631684491979,-0.4975116106192796,-0.9244429480652564,0.09411166271418099,-0.7991516447352736,-0.5912143785968688,-0.915184977034532,0.15923569320740627,-0.6507740448045994,-0.4225663742777032,-0.47447581328708416,-0.4890595702332367,undefined,1495192776308
903d185fccf839df,-0.3160925989724067,-0.559902566753502,1.7273295942872837,1.5806804544907251,-0.8364340825372942,-1.9093227157308497,1.9149319317966722,-0.7901787733861444,-0.25180620228151335,-0.269568883502906,-0.05568682323567337,-0.06718331633772683,-0.7086188168449198,-0.5252866317101527,-0.896021876445872,-0.004898158796640457,-0.8695952410908537,-0.5998651798152128,-0.9174799310143161,0.12994784805692133,-0.6619492680928297,-0.43067621401432493,-0.5350471195120711,-0.5046252610101871,undefined,1495192777807
903d185fccf839df,-0.42974586195314707,-0.5575544921470204,1.4434144019521464,1.391356918310357,-0.8759517305870977,-1.9121806928604823,1.8558848896810791,-1.203642661208212,-0.3435408886664373,-0.21333075792292108,-0.060596304360025846,0.12421839208512739,-0.7086188168449198,-0.48732743233406045,-0.8412849639597617,0.0819879909115242,-0.8507880353858845,-0.5709552912967386,-0.8846578908798534,0.12104754473116909,-0.6369513361446086,-0.39551015728845224,-0.5433518090556025,-0.4898813443861089,undefined,1495192779337
903d185fccf839df,-0.3923234338905023,-0.5135283672879163,1.7790088512264308,1.6128649755391469,-0.9203756528093874,-1.8664856775049028,1.896549580445264,-0.8943322280195908,-0.3770166924953889,-0.06230097850448324,0.024769568685095077,0.18980927874795112,-0.16028158422459893,-0.44381325723149767,-0.8265481204619048,0.01732853986605519,-0.7910973517373846,-0.549986915190607,-0.8723714908152477,0.19703887220085461,-0.6073347588518148,-0.4060542875810582,-0.5525667058704652,-0.5107466316998757,undefined,1495192780803
903d185fccf839df,-0.3923234338905023,-0.3914291307666984,1.7732666268542092,1.7344619471051532,-0.9935481049619437,-1.7942466533218904,1.8911795149636073,-0.8045328474547491,-0.40920382403634736,-0.2606275209223096,-0.13304222115565914,0.10234939244883298,-0.012317569073083769,-0.41233493625734363,-0.7886533116752451,-0.05743405109833883,-0.7503756074323317,-0.45120566122769373,-0.8601060810242283,0.1577574380827746,-0.5496723480766154,-0.4283718280340476,-0.5386515939615759,-0.5433295788786813,undefined,1495192782304
903d185fccf839df,-0.22461568678475732,-0.37734068312780805,2.299625927569776,2.122842510436317,-0.805371272911929,-1.7794047401631352,1.8671299518133475,-0.8325533821351758,-0.4476284938302722,-0.5105062022260528,-0.2146527599687697,0.2029594463336992,-0.4126907865418895,-0.3077156525911424,-0.8023375397967726,0.12442071502957604,-0.7320909772460052,-0.3689407215960123,-0.8512481189926563,0.31135693328074365,-0.481341106517683,-0.39419073242022334,-0.5128517727513227,-0.4740195946400516,undefined,1495192783800
903d185fccf839df,0.14960835230382236,-0.39084214499656933,1.9767924569368882,1.9486808044636674,-0.5751670888883273,-1.852803725863526,1.9420084259691555,-0.34125887687274226,-0.47738042493046284,-1.0843933892813582,-0.22952717465818842,-0.00814429175387075,-0.7608414104278075,-0.3058639767479528,-0.8033902067087384,0.23353361992987942,-0.7255443717061096,-0.3198224104673803,-0.8133324018918431,0.5132305594896194,-0.41271862991426733,-0.38091023065279117,-0.5359189269956826,-0.4154161459093965,undefined,1495192785317
903d185fccf839df,0.049815291316058975,-0.3914291161527022,1.6692704833698115,1.6493748358136011,-0.5230803191015266,-1.8900063331706678,1.9274340373657588,-0.48802204539217403,-0.4557148616512745,-1.2947219760602848,-0.19272638670763606,-0.012635866999667051,-0.7956564728163993,-0.3003089751199331,-0.8244428749847789,0.3972027511625622,-0.7028926178237334,-0.322336588592395,-0.8139831057254512,0.6612712175373432,-0.3850482304576848,-0.4114993021325106,-0.46954236777558633,-0.356456200802465,undefined,1495192786797
903d185fccf839df,-0.07076800365035041,-0.41138762608882934,1.3611111343335809,1.4038608863077247,-0.8182078234721087,-1.8913852435940268,1.916407257824908,-0.7174904759702073,-0.40860622829421855,-1.0134692115319417,-0.13034012350657742,-0.06977701914378763,-0.8304715352049912,-0.2984572992767435,-0.8391796963959343,0.5507689403293707,-0.6882829558131984,-0.3758372945366525,-0.8044114682932303,0.7579734556939118,-0.40278087060531126,-0.40740394565170934,-0.3466089220614145,-0.3405677244143762,undefined,1495192788306
903d185fccf839df,-0.2204575778792906,-0.41784479106816463,1.2475449557447462,1.2652674356577027,-0.8474911953326473,-1.8994513991155553,1.8887364270221192,-0.9498114245561494,-0.39858963015194604,-0.6817781069232436,-0.12648640194591185,-0.02285719059515992,-0.9262129567736186,-0.36882074820400634,-0.8370744509188083,0.6901910106039553,-0.5544884324828497,-0.4637322197189056,-0.7908096683159935,0.7120398929411016,-0.4512087889543608,-0.37173486921121784,-0.3478706357955786,-0.23881773907872383,undefined,1495192789836
903d185fccf839df,-0.4962745002675032,-0.5657727459627083,1.1811920854828413,1.1896993407984058,-0.93449790703117,-1.937294549228559,1.8245665277593437,-1.4628997865288036,-0.40269816376417533,-0.49580452305780975,-0.029241778964487448,-0.02162310228742449,-0.9653799019607844,-0.49658581155000847,-0.8444428689866197,0.4941920690543734,-0.6607277915296187,-0.5789158001981038,-0.7988210165067552,0.4845740543853412,-0.5485171207001931,-0.40474175975378257,-0.371294577864633,-0.2568737013665395,undefined,1495192791306
903d185fccf839df,-0.43251788854957857,-0.683175847884959,0.9202450282257426,0.9444152733823307,-0.8771448678526248,-1.9621172517377228,1.883566225032417,-1.1148557066737588,-0.3749177145049615,-0.3395844614533631,0.05751445644356451,-0.0012073377695785623,-0.6085255124777184,-0.6252767128176053,-0.8486534041142746,0.21130686473774069,-0.7732343268821829,-0.6256782566164827,-0.8418304123539838,0.3063524400454038,-0.615944637790014,-0.42715419469475613,-0.36942172643445237,-0.28542081525100443,undefined,1495192792805
903d185fccf839df,-0.3424269206493255,-0.7248539419795698,0.9451275769437877,1.026651514422932,-0.9368842013893882,-1.9629557779802813,1.9656030252637906,-0.5952601868405639,-0.36659134260469534,-0.4814797142280789,0.14831204179344473,-0.008308463807652138,-0.6085255124777184,-0.6567550596933085,-0.827600743200468,0.207265687911391,-0.783714301131285,-0.6415549464267777,-0.840843862589259,0.23247069589972452,-0.6399600021200477,-0.42972974212798143,-0.4749832326641375,-0.3140577117266893,undefined,1495192794312
903d185fccf839df,-0.3091626014921474,-0.7107655966386527,1.0267929608193007,1.0772732478663927,-0.9835915501986983,-1.9544074703891519,1.9915960320290775,-0.4252046987728931,-0.3194749796462376,-0.5485137092412091,0.1286371951114082,-0.07071959597613493,-0.6955631684491979,-0.6947142461186261,-0.8507586643158682,0.2012038096129803,-0.8032254199839032,-0.6405860066753166,-0.838828780267675,0.25004032214047517,-0.6342889634577032,-0.44175602492003985,-0.5180525337976578,-0.33098955695717885,undefined,1495192795813
903d185fccf839df,-0.27728419211695593,-0.7236798827553347,1.0031866878612599,1.0552103944020335,-0.8571391904196648,-1.9376439362424445,1.9377060470759557,-0.7420214686398237,-0.3251422130378709,-0.34207192766236405,0.11497880869232235,0.08570191047877666,-0.847879066399287,-0.6706425378618086,-0.8528639466041632,0.09411157792001638,-0.8152353515749231,-0.626203890847583,-0.845244856422709,0.2047380949778471,-0.6340138999299867,-0.4396874529952212,-0.5086738633693006,-0.3867188196804372,undefined,1495192797296
903d185fccf839df,-0.15808694495417203,-0.632692499590535,0.9853223851384915,1.0067458524541206,-0.7862707373484924,-1.9413637313200258,1.9574111785705983,-0.578647107877994,-0.32234538286249753,-0.41681379927781137,0.12332851284577541,0.030012709463316765,-0.843527183600713,-0.7039725605807013,-0.8770744757336589,0.09815278301108761,-0.8469293043817652,-0.6215871752943308,-0.8695517765213115,0.18328806106351153,-0.6453945522567736,-0.42896546581073713,-0.4930037679326611,-0.4506887307332409,undefined,1495192798842
903d185fccf839df,0.0983257567536103,-0.6414977391763519,0.9757520958971051,1.0497604028291418,-0.6435155494739316,-1.939721617365643,1.948593440224341,-0.5856565270591778,-0.2546113419953769,-0.03838139027571266,0.12116891310088487,-0.013505519447298199,-0.8913978943850268,-0.6002791795899676,-0.8728639479682379,0.35072879368871757,-0.8850512102486933,-0.5491572994913555,-0.8683133401152829,0.45085145137292953,-0.5562613565626958,-0.41230178927028055,-0.4328174883330065,-0.3980351549865484,undefined,1495192800307
903d185fccf839df,0.20920695863250943,-0.5552064613825272,1.0880422528628848,0.9055534228819879,-0.6832286264376406,-1.9206102083227965,1.908125993100104,-0.8085199848475975,-0.2479992490474093,-0.1614861204851521,0.048249009896749975,-0.04722707935646537,-0.5475991532976827,-0.5326933221321365,-0.8707586804044105,0.6639229655265807,-0.8284146881569935,-0.5137751431602299,-0.8480995544040046,0.5650309275880984,-0.5128196295597038,-0.3973496288194364,-0.4296199763498707,-0.36799355266185574,undefined,1495192801828
903d185fccf839df,0.07614954398215827,-0.535834937216529,1.1799160638597863,1.198372681500897,-0.7998478521738995,-1.9072007777075102,1.9056986824081152,-0.8483399658249209,-0.26776581763979806,-0.19092921062582854,0.015875582185383263,-0.12681368974192136,-0.4126907865418895,-0.45677489747840305,-0.8676007827397862,0.7689945805416483,-0.769141325269128,-0.48085650152650655,-0.8456086880497157,0.5964283603570664,-0.4943145738657628,-0.3729412633200618,-0.36495323268228685,-0.3967950421990569,undefined,1495192803306
903d185fccf839df,-0.15531484934692105,-0.6080378404414444,0.8679278875435428,0.9153833859687623,-0.807952984278952,-1.8971338064059216,2.0081901128351194,-0.1806060559688659,-0.32866555415494453,-0.3579643908055649,0.12896935410111865,-0.11480396551911456,-0.6607481060606061,-0.5493583529177447,-0.9297061353804094,0.5709750505788915,-0.7024228313990992,-0.5527987418290226,-0.8512691102572068,0.32874178330527876,-0.57725766512563,-0.4215045910321854,-0.456182325700964,-0.44639776175564744,undefined,1495192804796
903d185fccf839df,-0.09571627752364369,-0.5481622521770781,0.7518101739824972,0.8010887751012877,-0.8068935588183374,-1.8785977235434324,1.9663604196602995,-0.4564360627230455,-0.36072713755173724,-0.4091249235358868,0.10281102065066242,-0.11553703408839591,-0.865286597593583,-0.55583916656581,-0.9444429936027338,0.20120378134825875,-0.7102599386137358,-0.6299593260164165,-0.8680824469773738,0.14825660569674623,-0.6519885762159346,-0.41036203843318664,-0.4404355823724718,-0.511006492563671,undefined,1495192806314
903d185fccf839df,-0.21629957249005308,-0.5822091805241033,1.3776994154332944,1.4495214483050642,-0.8067804226145976,-1.8907353887357572,1.9307423259329386,-0.7255590770662507,-0.33483573129102007,-0.3337902631868141,0.14057336422879066,0.02025061252185779,-0.7260263480392157,-0.6974917469326359,-0.9833904251279566,-0.017021830599297242,-0.8168727317068731,-0.707170574921466,-0.9230074122430657,0.03754178024548415,-0.7274312694911019,-0.46003742621908106,-0.4624183615125293,-0.5381395942471416,undefined,1495192807805
903d185fccf839df,-0.32025063886705396,-0.6215392146262286,1.1543953772617392,1.1293347626865886,-0.9719378570385261,-1.9152599473565617,1.8916791802405046,-1.065047257022885,-0.287180153402273,-0.33575204318000396,0.12388262538915618,-0.0048763160367141746,-0.7042669340463459,-0.718785941424669,-0.9676009368048355,-0.11805218399385047,-0.8899510971094462,-0.7120406094897103,-0.907404524648718,-0.09656328169818008,-0.7471759722094642,-0.4600910254230457,-0.5439097007083747,-0.5176472756482949,undefined,1495192809296
903d185fccf839df,-0.5170647342461492,-0.6080378404414444,0.9948924202429285,0.9608530450906583,-1.1258324535014086,-1.898151683404571,1.8704592761894316,-1.2203616837118416,-0.3239940103519196,-0.472852418237659,0.14648733288230206,-0.044391075580461334,-0.7129706996434938,-0.7243409106757523,-1.0181272847143557,-0.19483527857725472,-0.9152031963327776,-0.7128448929491724,-0.9420177469851544,-0.144036688685986,-0.7614129113978793,-0.48362761509687063,-0.552461576783379,-0.5378301350507128,undefined,1495192810846
903d185fccf839df,-0.4879584549836184,-0.5282037130129587,0.8698423011835492,0.8940765751470523,-1.0971045019870478,-1.8571011712867869,1.8936015749526038,-1.0092364721741498,-0.2987708726282609,-0.3384469931923586,0.18279214004547695,0.019590105788469044,-0.6172292780748664,-0.6549034097516679,-0.986548285981412,-0.2958657026336118,-0.9796750830241492,-0.6904896022496687,-0.9594957803776993,-0.22925168579919789,-0.7668338722464507,-0.49018856200083155,-0.6023591492654505,-0.5331258698890085,undefined,1495192812321
903d185fccf839df,-0.568347364301771,-0.5105933215253017,1.0644354716309452,1.1062848580871243,-1.18197178594085,-1.8152074750813396,1.9103928852570495,-0.8692439413613127,-0.29519750312466075,-0.2943889917666898,0.14884705427369355,-0.07085830815498102,-0.7477857620320856,-0.6132408457384221,-0.9991798766399089,-0.30192749613785785,-0.968503427838251,-0.6520233023698,-0.9757283810365865,-0.26154222851174874,-0.762765257694611,-0.4852828032823059,-0.5993395390320694,-0.5130567699169709,undefined,1495192813796
903d185fccf839df,-0.5946816169678703,-0.49415684312191815,1.2111784665561565,1.2377487212121732,-1.1478952729087308,-1.7695194491291248,1.9265530427302198,-0.6987888676706339,-0.3447751911357438,-0.01872920511761688,0.16759767559007446,0.007663113854151408,-0.6999150512477719,-0.6410158927308441,-0.9897062130949713,-0.28172144241778013,-0.950313421013924,-0.6858412233234394,-0.9661707374340991,-0.2998227621680415,-0.77571682513974,-0.496022297631853,-0.6471574834291605,-0.494553208466922,undefined,1495192815293
903d185fccf839df,-0.5766634095856558,-0.5135283672879163,1.20160817731477,1.2554739259273107,-1.2150505892509906,-1.7641645280399683,1.9402674861247644,-0.6186878052671054,-0.37067609080239305,0.07945087027751163,0.16369414694008946,0.05865780859404923,-0.7086188168449198,-0.5863916755199183,-0.9854956853295502,-0.3665869471833269,-0.9572307426301818,-0.671674428112257,-0.971572275443128,-0.37273440106003736,-0.7812464203980004,-0.49581935103216285,-0.6590163397881953,-0.5053208959026517,undefined,1495192816785
903d185fccf839df,-0.5655751996837005,-0.4988529046509046,1.3757855100671867,1.385677142711589,-1.1585923989230231,-1.7363510824892368,1.905277907568801,-0.7982756959621476,-0.37184222806305745,0.18752654397737986,0.17495888791514752,0.05652689991098506,-0.7042669340463459,-0.526212482582522,-1.000232536189641,-0.41306093292189305,-0.9237853438062984,-0.6274831468268992,-0.9921289065695551,-0.3610623798021591,-0.7617125192551194,-0.5061133562099392,-0.7068025296378586,-0.47166559269079134,undefined,1495192818308
903d185fccf839df,-0.6099277632482436,-0.5158763980524095,1.1256850178114788,1.1174409724041656,-1.1752655141564678,-1.769607960231182,1.8396695058114114,-1.278975242044502,-0.3754936213402899,0.07118165183241526,0.18549824647327393,0.10252350406972431,-0.7913045900178254,-0.5169541422188977,-1.000232536189641,-0.5464210683686238,-0.9243603689090456,-0.6239936947333129,-0.9900928343230574,-0.43146407254412883,-0.7728105020453262,-0.5030368868777887,-0.703342786819634,-0.47836072821985887,undefined,1495192819826
903d185fccf839df,-0.6390340425107743,-0.561076611363741,1.1441872042773,1.1571615803403932,-1.1905603438021886,-1.8230919505346215,1.8216369240820376,-1.464423735420193,-0.3593011211964048,-0.34385698773787765,0.18912905517731418,0.08721885920691518,-0.5954698640819964,-0.5854658634998727,-1.0223378198420106,-0.5848125873956045,-0.9120832305391388,-0.669913869919432,-0.9756164325641589,-0.4578262092499858,-0.7992824724641873,-0.4797070125930831,-0.7202441222108914,-0.4581039846565878,undefined,1495192821303
903d185fccf839df,-0.6930886301520082,-0.6168430946412575,0.9145033121274198,1.069188172933235,-1.1675820947677678,-1.864095878050165,1.816871717063346,-1.5458782527587798,-0.31932990632783476,-0.43974876989555256,0.19899756312014955,0.08032768624968083,-0.38657948975044565,-0.6326833773380401,-1.0033904264920313,-0.6070393143230216,-0.9380233380522496,-0.6808888613954023,-0.9558294516006616,-0.5137687622563848,-0.8087911855061635,-0.490842494821771,-0.6913618080165266,-0.47157252362219715,undefined,1495192822802
903d185fccf839df,-0.7526872364806952,-0.6121469746562864,0.9145033121274198,0.9762274274185074,-1.28273047256328,-1.9114702738176617,1.8366005215030101,-1.4955996628678159,-0.3634939264023463,-0.644782051641186,0.14091776434030023,0.024020267561607897,-0.6302849264705882,-0.6076858700119515,-1.0076009616196862,-0.6393690257133954,-0.9251687709706514,-0.655063115750198,-0.9754205216944511,-0.5495239524615013,-0.8101988895042876,-0.4757773597247732,-0.6891397392088496,-0.4888077693410591,undefined,1495192824351
903d185fccf839df,-0.7346690636038905,-0.5980586147013731,0.8921725525185351,0.9143150967375097,-1.2284528515538709,-1.8890560042891875,1.872150237197751,-1.2222830682369172,-0.34782365123007714,-0.4699477265090003,0.1407106035558945,0.09098975373916965,-0.5345435049019608,-0.5632458310862448,-1.0033904191297975,-0.6131010654301854,-0.9307640912755194,-0.6251526241128222,-0.9639597454968052,-0.5754087399298246,-0.7942553410527522,-0.4727797712728828,-0.6980745201487549,-0.4880377574403738,undefined,1495192825792
903d185fccf839df,-0.7956536832307933,-0.7031343870490785,0.7428780226211129,0.8157242739788464,-1.2828950482710821,-1.9154416261418374,1.9500819074134823,-0.7454164935760768,-0.29629299537512543,-0.42968155443462963,0.14270013784902263,-0.06833210159922741,-0.5780623328877006,-0.598427503746778,-1.0023378258401696,-0.5807714247016155,-0.9528711969258334,-0.6440057976563481,-0.9482589019017756,-0.5569614021909371,-0.8025903525017684,-0.455272926744391,-0.6630336738142979,-0.4828762909105521,undefined,1495192827337
903d185fccf839df,-0.4713261918888002,-0.7747502460478801,1.0446572635420692,1.020487768625554,-1.0435983067451302,-1.9603260671176006,1.9594308655356354,-0.6828549556034369,-0.24080524387422855,-0.2579321849445706,0.14699526501802712,0.048486943143643046,-0.5867660984848485,-0.6512000321637397,-0.9939167114114572,-0.5100501094900965,-0.9385714847128184,-0.6608197627377939,-0.9616438009620496,-0.4861901454524124,-0.8049465779763803,-0.4452658860450075,-0.6348476399111517,-0.46283410323490437,undefined,1495192828797
903d185fccf839df,-0.43944785152442817,-0.8140802947640016,0.7307559442705661,0.6675612414279374,-1.0676154102481934,-1.9834460956855728,1.979485778175053,-0.5805409454398414,-0.2067488392545082,-0.2510489398654179,0.10678323000859065,-0.1039867464332445,-0.49102467691622104,-0.6650875362337889,-0.9991798766399089,-0.48176160319079403,-0.9344161846642636,-0.6145576092630322,-0.9800664044958226,-0.48509685662000235,-0.7865967697516545,-0.4544639901068213,-0.6434769926004119,-0.49523583718382763,undefined,1495192830306
903d185fccf839df,-0.44914997911734816,-0.77533730488799,0.5604069305242636,0.563573474334026,-1.0222760547878649,-1.9717603028399011,1.9458163819082754,-0.7780137432002284,-0.2579477101939933,-0.2676325037158711,0.07925883281088007,-0.09375471346875189,-0.08194769385026737,-0.6512000580652888,-1.0002325435518746,-0.41710215214532503,-0.9333317602793405,-0.6006884628697671,-1.000434120988415,-0.3826048045776448,-0.7712869301145506,-0.434746052084471,-0.6062322910001471,-0.4561747541115459,undefined,1495192831821
903d185fccf839df,-0.6362619814089331,-0.7412903619269686,0.432166376201823,0.4701450325618789,-1.2210780086097661,-1.9801595389185846,1.8985587707181648,-1.1361137693025376,-0.3114694053067677,-0.37892524617141154,0.0515658088110744,-0.12304860066838295,-0.042780748663101595,-0.6789750662053873,-1.0076009542574524,-0.21908259391784676,-0.9567297186036857,-0.6444997670306447,-0.9820045206131802,-0.3190400212503438,-0.7783347487112044,-0.436719051142798,-0.5899295471613557,-0.45042579347527945,undefined,1495192833302
903d185fccf839df,-0.6362619641562283,-0.7025473866649532,0.38878214929185556,0.37444135298343095,-1.2266939993168022,-1.9555464687716904,1.9064797460833187,-1.0617742336895082,-0.2979499608474041,-0.3997274921296336,0.029454747205943606,-0.08194596034015673,-0.9479723707664884,-0.7280442558867443,-1.033916802486412,-0.21504133229733244,-0.9731442890977215,-0.6714591078943457,-1.0164428237910048,-0.24383401463304216,-0.7892488113992939,-0.4337189369953698,-0.6001776978804464,-0.46844906222153937,undefined,1495192834873
903d185fccf839df,-0.6778424493662252,-0.703721416661196,0.7594663037208265,0.7592928262688832,-1.2113271686015021,-1.9581319248081843,1.9086388068705582,-1.0519913491152397,-0.29042871990492114,-0.47774748742642703,0.07920889749931398,0.014095935451932244,-0.9523242535650625,-0.7289700808575645,-1.057074701515111,-0.23726808748947117,-1.0087897113806175,-0.6985387744775238,-1.0321646579838248,-0.16226845015412253,-0.7907874191611957,-0.4610151408555298,-0.6146142905590671,-0.4833658878394658,undefined,1495192836346
903d185fccf839df,-0.7249669015055608,-0.7137006277872711,0.8698423011835492,0.8071733944001652,-1.274378489234738,-1.9467559200713134,1.9090332732000184,-1.0582717152606675,-0.28510966685945255,-0.5229678360129127,0.08047215191234273,-0.016513631082885335,-0.9088054255793226,-0.6845300548826324,-1.0633905115688271,-0.2089795670578079,-0.9784030498143652,-0.6765064634404871,-1.0069621452610873,-0.12945436422739223,-0.7618442318668343,-0.46823571531305946,-0.6019424990722746,-0.495897788444187,undefined,1495192837806
903d185fccf839df,-0.7817935502486357,-0.7735762452796296,1.153757239381737,1.2024273509361956,-1.2232380070343776,-1.9697268773094099,1.9458505583543242,-0.827892747766639,-0.2481078470928489,-0.3776346238862968,0.09177931191021922,0.026044656752543426,-0.7651932932263815,-0.6576808846641288,-1.0476010085212382,-0.10794918539853314,-0.9299682171209747,-0.6889823624461927,-0.9903447194962666,-0.11878324002533705,-0.7586758668207881,-0.4557250173704463,-0.5920366443950479,-0.4903555728668714,undefined,1495192839344
903d185fccf839df,-0.6279458671142288,-0.7911866952232712,1.1307891043036984,1.2380436406895647,-1.1729718031967538,-1.981026015581449,1.9722196202060203,-0.6572813371194736,-0.25372413192500304,-0.4160242260774487,0.16478054480221355,-0.02398248888527932,-0.7826008244206774,-0.6789750532546127,-1.0539168112127206,-0.130175869928868,-0.92384703087776,-0.6728776877874547,-1.0167926644021261,-0.19817762481370185,-0.7719749129906968,-0.47265441683335113,-0.6450007361998342,-0.5056594912309865,undefined,1495192840817
903d185fccf839df,-0.6071556331355829,-0.7817944260253368,0.7396883497688999,0.7209816619601577,-1.1778163671200335,-2.003288883972734,2.0009818063521996,-0.48895513731821844,-0.27178961431737764,-0.22240868992684537,0.14544878976670134,0.06301931160349086,-0.7173225824420678,-0.6280542136316152,-1.0497062760850657,-0.178670444080609,-0.8903026069853937,-0.6409596517696693,-1.011594033602668,-0.2374898542206596,-0.7607877912551464,-0.46785832465287996,-0.631903371954085,-0.5202846318827057,undefined,1495192842295
903d185fccf839df,-0.40479751906903433,-0.7724021860553946,0.7645703902130461,0.8018686472410519,-1.1369101489837798,-1.9984091277637532,2.0097338090395622,-0.4094500035207944,-0.2806914529096133,-0.4022281175712646,0.1472223839346952,-0.04194790406715677,-0.6955631684491979,-0.5678749947926697,-1.0033904338542652,-0.2089796094548902,-0.8558769071868128,-0.6337654272649254,-0.9904916517233417,-0.2800203602067453,-0.7551348664393875,-0.481947774214432,-0.5956933720114032,-0.5408393084849047,undefined,1495192843806
903d185fccf839df,-0.11096249281483643,-0.7407033615428434,0.5597690467812109,0.5341325879443892,-0.798325572651154,-1.9965946506844046,1.9467183976874143,-0.7389819521602061,-0.22861100103175175,-0.3484529881623951,0.07568865473083758,0.013105314212847398,-0.673803754456328,-0.6187958603172163,-0.9644430244157436,-0.22716504649707153,-0.9110092324233999,-0.6353043321023784,-0.9663736443806361,-0.30662887164933583,-0.7521357821932867,-0.4934695105617332,-0.6258916223524175,-0.5409836177642459,undefined,1495192845308
903d185fccf839df,0.22445317392370218,-0.7536177207295063,0.754362217228607,0.6224164882243922,-0.2845447142871533,-1.9838676881493602,1.9300243916824067,-0.6879227460650952,-0.2177333177657216,-0.325852226838416,0.07997471108912917,-0.05509350887428177,-0.7216744652406417,-0.5706524567543559,-0.9781272378128036,-0.21302080041360066,-0.9607498565923344,-0.6278504584848112,-0.9717821790537322,-0.2685947125547667,-0.7464267968255393,-0.4799187703064923,-0.6212057463017348,-0.5142959013844264,undefined,1495192846805
903d185fccf839df,0.13713412910365136,-0.7013733274407181,0.8672902579374394,0.8560038834123594,0.07813924453512727,-1.9619402294339425,1.9480043752474634,-0.42492915144565063,-0.20863466033722053,-0.37777223642914665,0.027890537717754817,-0.0831002923975585,-0.9262129567736186,-0.5845400255782779,-0.9497061293822503,-0.25949471549036296,-0.9712906735832512,-0.6314222382648537,-0.9450053833576749,-0.2697803925983468,-0.7429991767528757,-0.47317289967096554,-0.614975539201677,-0.5212458564605696,undefined,1495192848349
903d185fccf839df,0.1676266977076758,-0.7365942419419975,1.1008022149564842,1.157320023693703,0.37561189027111563,-1.9331834420421101,1.896326049245898,-0.6527549666742354,-0.3203963584750389,-0.005094144512383503,-0.0036903692574486576,0.06782300437527804,-0.9653799019607844,-0.6382383789660598,-0.9381271909112515,-0.3100099769818042,-0.987797993875567,-0.6546008124895282,-0.9180046905393672,-0.22587942319051688,-0.7381541515211064,-0.4677494538576866,-0.6208073447492813,-0.5401907481204864,undefined,1495192849801
903d185fccf839df,0.027639078544606937,-0.6908070282465408,1.3400566504847005,1.38652817632786,0.26976177622071795,-1.9324613784735083,1.8227861586708691,-1.1498194101533319,-0.46496906728283044,0.30336725749091253,-0.021549065598394243,0.005358350629921725,-0.8609347147950089,-0.65212585713456,-0.9076008517280397,-0.3423397307692602,-0.9968557021638038,-0.6921045049747268,-0.8866589782033452,-0.22983682431640332,-0.7487183891547481,-0.44234905230604854,-0.6282950814115085,-0.4974862479733025,undefined,1495192851308
903d185fccf839df,0.236927155586005,-0.7137006862432558,1.7796464808325343,1.853818053814266,-0.07327650693556638,-1.9184929314389696,1.8159565491243235,-1.2812288810120274,-0.43937431868857574,0.5450020133857023,-0.04695303594116665,0.09831147716739567,-0.7564895276292335,-0.6586067096349489,-0.9139166396950544,-0.376689959911005,-0.9819301940316478,-0.6899006407521676,-0.9045148400377562,-0.3102321089876761,-0.7706738512457179,-0.4236855833553451,-0.6124773760345713,-0.48322241905644037,undefined,1495192852793
903d185fccf839df,0.08169359717502128,-0.6890459686381805,1.9340450972221759,1.8097003874615798,-0.48067239512320015,-1.918735172495213,1.793392820740936,-1.5273225188338164,-0.4085016920992917,0.3388106376008633,-0.09707152858597815,0.011354049479054535,-0.865286597593583,-0.7030467615114302,-0.9339166557835966,-0.3928548085400115,-0.9381393227806777,-0.6909772406125843,-0.877038363951376,-0.3125264780996,-0.7669907253049808,-0.4135451502098201,-0.5872326999517118,-0.4836017380334377,undefined,1495192854343
903d185fccf839df,-0.12759461788801574,-0.7025473428229647,1.558256602164036,1.577191333202818,-0.741445671105224,-1.9097908933586298,1.883390037104288,-1.0176614299091726,-0.2558758784233096,0.03231219652349111,-0.05051009261811313,0.029010242940739294,-0.865286597593583,-0.6993434227758255,-0.9412850959381095,-0.32617483974317146,-0.9323191466122798,-0.6934850849302017,-0.8702024795352337,-0.24659033469860103,-0.7554066185945916,-0.4133088481119956,-0.5863144400335233,-0.49958779200344616,undefined,1495192855796
903d185fccf839df,-0.28975841531712687,-0.7007862978286006,1.405771891140502,1.3406983012829723,-0.9107688097389274,-1.9364630118856,1.8968625417227432,-1.0058335842024644,-0.204795376452685,-0.12596603923747127,-0.012925227117511259,0.100176446413238,-0.8043602384135473,-0.6595325734580929,-0.8928640008679491,-0.29990690772468304,-0.9055175460816495,-0.6552404378354284,-0.8489741552008196,-0.2019810391830707,-0.7222978271805408,-0.4191004253584114,-0.5381888914588904,-0.4501854681445736,undefined,1495192857304
903d185fccf839df,-0.06245199287187537,-0.6908070282465408,1.1690694988583956,1.2667519863966614,-0.834706080633581,-1.9461852556751251,1.8409660109654888,-1.3572469556502729,-0.12128066673412796,0.06504988526362054,0.0947727474480408,-0.002490267529682425,-0.5388953877005348,-0.5771333740086176,-0.8802323733982832,-0.22716500409998924,-0.8571609196689655,-0.5806826917443194,-0.8421942453940319,-0.13127137676482342,-0.6743025478889151,-0.4231339620427298,-0.4960208802328531,-0.4497885820554396,undefined,1495192858809
903d185fccf839df,-0.18303514981664581,-0.7242669269814485,1.0299833960823621,1.0349973393939502,-0.8790682935028976,-1.9655272580604877,1.8736518680695158,-1.20019553961443,-0.13106491001822515,-0.06959204231285555,0.18761130470338203,0.0363893755764587,-0.6085255124777184,-0.5225091179453683,-0.8865481908142331,-0.1887734568082871,-0.8224795749886977,-0.5295695035843123,-0.8338470492412892,-0.06695206749707211,-0.6369747453541021,-0.4198517009964121,-0.5097031624206159,-0.4669498018756188,undefined,1495192860503
903d185fccf839df,-0.14145478537558298,-0.7559657514939995,0.9374717013424078,1.0385483549922696,-0.6994388811912827,-1.959706488623994,1.9398572299755439,-0.7099173809442266,0.010498116970289992,0.24903143022270083,0.26065444073762517,-0.027469864880822818,-0.7042669340463459,-0.44103573051593875,-0.8697060503036137,-0.06955765223919178,-0.846861031714901,-0.4923317954810141,-0.8336791262206773,-0.03623216845478584,-0.6093218331057275,-0.4296900467110557,-0.48937516353059596,-0.4795974848149018,undefined,1495192861847
903d185fccf839df,-0.47548426628885715,-0.7483345419044253,0.8398556659732845,0.9508944018707046,-0.9466144704897018,-1.9716112306438387,1.9270290329670523,-0.8767135872236895,-0.06577109152366198,-0.11823509345109054,0.2436076988619781,-0.0445913439962968,-0.9175091911764707,-0.46232991205719726,-0.8244428381736099,-0.029145460004871723,-0.8249698151224566,-0.5071952149119596,-0.8158022741126799,-0.010378181162158665,-0.6061962129531809,-0.4250801137630389,-0.4820824910416827,-0.4729846957419672,undefined,1495192863292
903d185fccf839df,-0.3881653249850356,-0.7565528103341094,1.0963362663442668,1.1226510505457643,-0.8584249007009919,-1.9385150705778105,2.0244922749814784,-0.16278529591799756,-0.06312387137670282,-0.2805466873148646,0.3751245814413311,0.04930252773868287,-0.9044535427807487,-0.5095474517969137,-0.8033901993465046,-0.13017585579650726,-0.8345778416392724,-0.5100893705545577,-0.8173835534013942,-0.07422013639979422,-0.6194892968746964,-0.4380203243228095,-0.4407715135828484,-0.4598990645812518,undefined,1495192864802
903d185fccf839df,-0.3188645910634285,-0.7506826311249032,1.3087942477883303,1.3737366779860583,-0.9235642192914169,-1.9486286276758173,1.990959624828484,-0.390545033641149,-0.17286539597940764,-0.5419651664398982,0.37958989156223755,-0.06394359425386162,-0.9262129567736186,-0.5215832800237734,-0.845495521174118,-0.14027886852418534,-0.8608719670407804,-0.5379289909991294,-0.83984331681101,-0.10848167872938966,-0.6464924043989402,-0.44173146811097774,-0.4443155162035074,-0.48301289957679355,undefined,1495192866308
903d185fccf839df,-0.34381286493672175,-0.7624229749293194,1.5448585021904344,1.5834440643126964,-0.9096682418622556,-1.948952392675952,1.9953987383127274,-0.35944142005443724,-0.17162049045262912,-0.5795226340164964,0.3888323983787496,-0.011170621942275883,-0.8870460115864528,-0.5373224987893359,-0.8939166236065121,-0.2514122629111382,-0.8936337628811855,-0.5792514486546753,-0.8472529392724946,-0.19106354312521615,-0.6828993704794932,-0.44699186429605314,-0.4788481908131172,-0.5099930196597416,undefined,1495192867806
903d185fccf839df,-0.35351499252964175,-0.7536177207295063,1.475315196665468,1.4641024038963681,-1.0323971790172863,-1.964337018398506,1.9388973506637919,-0.8018995032175847,-0.13128215955231565,-0.15858690759917524,0.42942036463720396,-0.09992807241514912,-0.5824142156862745,-0.5780591601271143,-0.8886534510158267,-0.16856744548529168,-0.8981867932238574,-0.6029366574710646,-0.8453218191891468,-0.12896161188645308,-0.6890241465202334,-0.44849978448000094,-0.45192446587653434,-0.48408884726234963,undefined,1495192869307
903d185fccf839df,-0.39370941268330834,-0.730724121188776,1.4491568804613175,1.464708137166616,-1.0739822506574277,-1.9695265627724632,1.9252486560221642,-0.9335712386281013,-0.09489969076319135,-0.06660736611356295,0.401052450382168,-0.043557795201029176,-0.7129706996434938,-0.5919466382956144,-0.8770744830958928,-0.12411403402753962,-0.8617807535181776,-0.5723295414699725,-0.8316640441315416,-0.014936124554846815,-0.6547648397079182,-0.4430324292378739,-0.4501272736892887,-0.4747704626143166,undefined,1495192870812
903d185fccf839df,-0.2772842266223656,-0.7371812715541151,1.5448585021904344,1.5174237705431324,-0.9030853937611157,-1.942362975061821,1.869465216765304,-1.225193874269365,-0.059015334884439774,0.20345277701805434,0.3788167122727882,0.038450570735215836,-0.6128773952762924,-0.563245856987794,-0.8844429158881718,-0.07157819825528432,-0.8277553943045857,-0.5636154109975645,-0.846322363083341,0.015137041434559493,-0.6461306367661982,-0.43433141051963897,-0.503580623588168,-0.5188787652167294,undefined,1495192872306
903d185fccf839df,-0.1774911656346023,-0.6608692195003616,1.4765909641515735,1.5018053405945917,-0.8172203961123001,-1.9163593485691062,1.7886407533118667,-1.7125997443014627,-0.09906164878151368,0.25476629061011463,0.316582698954828,-0.02315917398162041,-0.7608414104278075,-0.5465807743990875,-0.8739165854312685,0.03551392037879345,-0.8278224627073142,-0.521931974777274,-0.8139411225662931,0.1563099893668881,-0.5909647715878779,-0.420745453515267,-0.5488975735096192,-0.5117295174511172,undefined,1495192873844
903d185fccf839df,-0.4283597451387021,-0.7195708069964774,1.685858764469525,1.6500507547580474,-0.8226512473494451,-1.896872933325961,1.8358641791519936,-1.3827918619113184,-0.16253215190510312,0.029032669599027082,0.3522264558681579,0.014576958114331897,-0.847879066399287,-0.5317674712597671,-0.8718113252296749,0.22949241483880817,-0.8081969365092848,-0.4807108443091531,-0.7946858999695879,0.274955012190179,-0.5429228998230374,-0.4351541726970347,-0.4638848916847475,-0.5401497909042406,undefined,1495192875312
903d185fccf839df,-0.2661961547420494,-0.6373886488034984,1.7994249430583598,1.8099338748557103,-0.7745141844732205,-1.8639048814137438,1.812753443267994,-1.4796042349959841,-0.12889340503516464,0.0001288642320864529,0.5398063718284967,-0.1420087952185031,-0.9218610739750446,-0.46603325079280195,-0.8423376087850261,0.42145006650315425,-0.7069959966309498,-0.453428522227182,-0.7844705556186256,0.39825036757105725,-0.5009970203336608,-0.4511969184785182,-0.32034636675593287,-0.5060254997093844,undefined,1495192876811
903d185fccf839df,-0.3257947955761462,-0.5575545213750127,2.0916344030118283,2.144738725526101,-0.719526850798269,-1.830622381677528,1.9064560642343624,-0.8225344420271476,-0.08678302347369014,0.14610139894670024,0.7338842915243057,-0.0045036615831231235,-0.669451871657754,-0.3669690594100422,-0.8054954448236307,0.47802710736648074,-0.6355320669284779,-0.42777376529167077,-0.787178321562475,0.47444187493924267,-0.4657004561647629,-0.46658631845263465,-0.23477555620741586,-0.5594765851350613,undefined,1495192878304
903d185fccf839df,-0.10819036270217573,-0.4747853189559201,1.8319636215147341,1.845643160066792,-0.7132731446902789,-1.856798371399858,1.9232131912838675,-0.7242774431960185,-0.13133690574915666,-0.19694524243320427,0.7056301061405913,-0.14107980590011404,-0.4213945521390374,-0.37900492648922546,-0.8360218060935438,0.6315932400038462,-0.6279071513731298,-0.41448724870351583,-0.7860028575003539,0.47508860960759997,-0.4645189105552294,-0.47095058646005034,-0.18023475042784964,-0.5336785404063517,undefined,1495192879808
903d185fccf839df,-0.32579469205991696,-0.6274093938354348,1.733071564522556,1.654378944691895,-0.9200876550667725,-1.8921399173017563,1.964906132059773,-0.5437804938295433,-0.16550294982232558,-0.28611535781397435,0.5144683423433475,0.01921578181310952,-0.6433405748663101,-0.4197415878270039,-0.8781271205589234,0.5487483801809174,-0.6061899901486073,-0.4594384837893639,-0.7937483280339264,0.43668488504908426,-0.49429065670732947,-0.47997494989013517,-0.14067413150079866,-0.5078830081094223,undefined,1495192881306
903d185fccf839df,-0.14006870306654776,-0.6837628921110727,1.5576184642840338,1.462632386713486,-0.9867081163033288,-1.8749990460656103,1.9627339060186266,-0.494074807285919,-0.22696348337666788,-0.6636707187746629,0.20023579565436325,-0.06390026106287724,-0.6563962232620321,-0.3780790367645325,-0.8539165619804925,0.6053253645148009,-0.5984107903988293,-0.44440407619685524,-0.8092812480149891,0.42107086081459494,-0.4878049891757209,-0.4846284851453143,-0.2648838093390072,-0.47468100491071846,undefined,1495192882794
903d185fccf839df,-0.25787997143652563,-0.049786051124142826,1.9512717703388411,1.720764265429018,-1.0348863218156676,-1.6273566610002663,1.8906404104911687,-0.4706090369396493,-0.3323286194181515,-0.6740145814693559,-0.06599023804734976,0.03742501903506378,-0.8696384803921569,-0.32993569795554484,-0.7328637985372731,0.029452183403990438,-0.6352688052771672,-0.3553882214453837,-0.7350310918480794,0.07208049285647472,-0.46696513006363716,-0.42197060005960063,-0.5770519601799555,-0.5440473601078608,undefined,1495192884384
903d185fccf839df,-0.2592659847347414,0.025938912861508494,1.541668575201272,1.5977960862476872,-1.0441743066775184,-1.4845812850206463,1.8818279291330342,-0.27714254296965446,-0.4252811309499687,-0.604340774347592,-0.15515792281173757,0.017145694747540897,-0.9218610739750446,-0.3428973641039993,-0.7928638394406661,-0.15240248379739904,-0.6202339890425599,-0.36623655419175943,-0.733470802092787,-0.07689946612284498,-0.49729028090606114,-0.39379067835601583,-0.5941518678302041,-0.5601722210352171,undefined,1495192885788
903d185fccf839df,-0.5489430401051115,-0.3380106782536751,0.9878744283846013,1.0501835486569373,-1.1597238218622818,-1.3599134142830331,1.7906472954496722,-0.737183194448404,-0.43566176879608415,-0.28491786381240114,0.0029505472938409502,0.08467448203118112,-0.7042669340463459,-0.35122986654602883,-0.7265479590346219,-0.3362778666032103,-0.5810523882076445,-0.36918770649355387,-0.7770469391928322,-0.3083381012478431,-0.5402477706971739,-0.3680524049124116,-0.6598122827957751,-0.520824888682901,undefined,1495192887290
903d185fccf839df,-0.5531011145051685,-0.34505485823113174,0.9566117715512817,1.0404617372521956,-1.1354701495219055,-1.4276546798590277,1.7986024572123318,-0.8592536544057373,-0.46582651888542637,-0.43559184771192877,0.025942239296591774,0.03338603468925355,-0.5824142156862745,-0.43362913074937676,-0.7623375076196881,-0.4292258239479818,-0.6385908555416612,-0.40709670607852577,-0.7896551921295708,-0.441873420292663,-0.594024883293882,-0.32624811623776184,-0.6233343198762225,-0.5285125547760356,undefined,1495192888808
903d185fccf839df,-0.43390383283697487,-0.34270685669463086,0.9208831661057448,0.8912443911566801,-1.0490188680761403,-1.5887099249141534,1.8178789427889013,-1.0011404222822258,-0.49559052231344614,-0.05094530704316791,0.0011026726553464363,0.2136477664056974,-0.8783422459893049,-0.5225091308961428,-0.8486534041142746,-0.348401481876424,-0.7044075091001962,-0.49150851100907333,-0.8286554167330362,-0.33446926364137225,-0.6367017837676432,-0.28312783162917443,-0.6440140827040153,-0.48272174164125164,undefined,1495192890312
903d185fccf839df,-0.5059765588496037,-0.43134620909493737,0.777330606443595,0.766294041002078,-1.0275423323997503,-1.7747765407930252,1.8964549185195516,-0.8226616411273631,-0.4115556332799973,-0.10412944111305512,-0.038587706400561236,0.06517076304851918,-0.5214878565062389,-0.5780591860286634,-1.0023378111157022,-0.4211433855011178,-0.874385853006152,-0.5832602001587546,-0.9365532363263648,-0.3644808363605611,-0.7315051196795778,-0.3702120410150241,-0.6518279067694007,-0.4828984234979831,undefined,1495192891855
903d185fccf839df,-0.32025063886705396,-0.5499233117854385,1.1633275286231233,1.2260892025441672,-0.9153870880352846,-1.8800558241597751,1.9395048452153507,-0.6642472940274572,-0.34868326478720235,0.006733976110622911,-0.039507697951088765,0.13290568305065154,-0.3822276069518717,-0.5836141488043595,-0.9739166879606812,-0.3544633177777524,-0.8664100842438507,-0.5802583848944275,-0.9395338780962678,-0.2406619362981118,-0.7127418434767611,-0.4079132754675777,-0.6609058244144228,-0.47123301614922275,undefined,1495192893312
903d185fccf839df,-0.4560800456084269,-0.6262353199972035,1.1716215421045055,1.0602960305023537,-0.8920282709271482,-1.920531014544562,2.005715469347111,-0.28811031227022327,-0.2967174241841959,-0.2583013954888866,0.026293884592689384,0.17592771527492707,-0.19509664661319073,-0.5743558343422842,-0.9328640183205661,-0.30192751027021864,-0.8447280056024273,-0.5909737252533015,-0.9193200921464241,-0.15644783839469237,-0.7007870859232804,-0.40721394170719144,-0.6289221654076785,-0.4840604151257682,undefined,1495192894813
903d185fccf839df,-0.35351499252964175,-0.6432588133987085,1.1741735853506152,1.1934335168825516,-0.8735345879040473,-1.9415104728054409,1.9523488105694065,-0.6595262707996049,-0.24455701622284418,-0.22859305140085148,0.12034646576699827,0.10733201978081275,-0.39528325534759357,-0.5354708229461463,-0.9476008765428905,-0.23524744254685326,-0.8072382018117544,-0.5638687268898771,-0.9334536498970978,-0.008730548562928592,-0.6683350534927701,-0.4102547365016872,-0.6101474592373288,-0.4902614647785024,undefined,1495192896328
903d185fccf839df,-0.5004325056567407,-0.7101785377985428,1.3502648234691395,1.324112076269572,-0.919367660725239,-1.9860175758835663,1.9590127362126117,-0.6633265738335574,-0.21029261637691912,-0.1343705660176885,0.19346520071710008,-0.07197335442740609,-0.7260263480392157,-0.5641716560570651,-0.957074576898997,-0.18675286839511226,-0.7926950459405002,-0.597287671561341,-0.9504489032657472,-0.023898017596766807,-0.6905430322073876,-0.423160408603297,-0.6029606630823058,-0.5001918926871819,undefined,1495192897813
903d185fccf839df,-0.4740982184852317,-0.7365942565559938,1.1071825772087083,1.1058835670436127,-0.9793127037396093,-2.000642869265926,1.8979696774581982,-1.100378319383018,-0.2736218200195763,0.045287424400274445,0.163098349493078,-0.1455823554666597,-0.08629957664884134,-0.5650975069294344,-0.9328640330450336,-0.10592854045591521,-0.7654192885524057,-0.575489680165671,-0.9212232241910471,0.16242317386492805,-0.6360270099349691,-0.4153543437635427,-0.5845981501926049,-0.5113762021590179,undefined,1495192899306
903d185fccf839df,-0.4158857289709896,-0.7806204398710824,1.2073504016869918,1.1697958865468472,-0.9984955283542589,-2.0130344215914375,1.9643223088819515,-0.6773911004459335,-0.25513286371356575,-0.0021727807173511195,0.14266806572943103,-0.042394851415514995,-0.2168560606060606,-0.5845400385290525,-0.9465482758910287,-0.057433966304174223,-0.7511871184497674,-0.5998841796373082,-0.9382254750679181,0.06444286520749835,-0.6705110040641171,-0.4152587218204464,-0.552960966467572,-0.5137170100619809,undefined,1495192900801
903d185fccf839df,-0.46716818649956265,-0.7506826457388993,0.9731997985140459,0.9723736988967647,-0.9969423877073474,-1.9846340074878022,1.9768901584901082,-0.5796946510868117,-0.31383734121754736,-0.10131357839033546,0.05057827291574017,0.004978214083430434,-0.5127840909090909,-0.5891691633831537,-0.9686535448189308,-0.059454554717349076,-0.7724808353163695,-0.61287937954287,-0.9409402376452495,0.09537834317261037,-0.6743719007886138,-0.4053999745250604,-0.5498027031519872,-0.5157459059432905,undefined,1495192902305
903d185fccf839df,-0.5129066425933874,-0.7524436615052712,1.229042769278925,1.2010018932520956,-1.0648074153948055,-1.9986141003088942,1.9411195361618552,-0.8267149035481196,-0.2093880249605678,-0.3079842724368901,0.12087205174453282,0.08245733585779297,-0.6389886920677362,-0.6632358862921485,-0.9644430244157436,-0.025104240781439715,-0.8092933417527041,-0.6442211172596894,-0.8885061368192063,0.06984771950529559,-0.678702613262707,-0.3998105406778807,-0.5645197596612399,-0.48226517408729214,undefined,1495192903799
903d185fccf839df,-0.47548433529967665,-0.7412903765409649,0.9132270363674154,0.897487475031064,-0.9707858589862218,-1.9886333105380767,1.9519122621469194,-0.7190160268052421,-0.24120908629740448,-0.3634111548356516,0.14556745230330767,-0.07878914331256325,-0.847879066399287,-0.6456450434864945,-0.9412850738514081,-0.10188733536484398,-0.8823270748849046,-0.6372612122578958,-0.8865610235361825,-0.00822239888045238,-0.6851274556760352,-0.41448849915214614,-0.6252063624639987,-0.4828841966606447,undefined,1495192905351
903d185fccf839df,-0.6224018829321853,-0.7694670964507914,0.9291771795871269,0.9750766949761761,-1.0539354354696246,-1.993340703299537,1.9372537250702953,-0.833406857035123,-0.2571076639110913,-0.4016986788695587,0.13841236107495153,-0.05461334209081758,-0.6563962232620321,-0.6484225313497298,-0.9486535066436873,-0.2716184296901021,-0.9614360799296225,-0.6499904293927269,-0.9118474979527381,-0.14098779654147034,-0.7213760975589442,-0.428345097902487,-0.6522115619801422,-0.47047857878374455,undefined,1495192906798
903d185fccf839df,-0.5059765588496037,-0.7383553015503579,0.6280360765461728,0.5448292533525402,-1.020753775099076,-1.9847691035866861,1.92661089840642,-0.9081880268220042,-0.3369396326556806,-0.4462991720703438,0.06713942401360568,-0.11486721181526958,-0.5475991532976827,-0.6549033838501189,-0.9433903708641708,-0.2413092925805424,-0.9527023562204483,-0.6790649736882901,-0.9303820504360696,-0.07508244873898241,-0.7264971725537258,-0.43454971437168516,-0.6940989672559749,-0.488627001505319,undefined,1495192908311
903d185fccf839df,-0.39370944718871803,-0.653238068366772,0.6573840656025364,0.6316292074438834,-1.0585537137099676,-1.9620520340770533,1.9295641650772897,-0.8676904445113488,-0.38187726440221104,-0.2959174196245788,-0.023366350455326,-0.08939376600739132,-0.7390819964349377,-0.694714220217077,-0.9370745681726885,-0.06551640475103823,-0.9349763607739802,-0.6915598721894276,-0.9459009768137302,0.13201124486240148,-0.692575817641818,-0.4464312598635434,-0.6986200912142716,-0.5300646990633021,undefined,1495192909799
903d185fccf839df,-0.3895514072940708,-0.7031343724350823,0.21524270028249168,0.20317253735357937,-1.053534291298607,-1.9675001244667325,1.9480517033296347,-0.7667089342304452,-0.3558613517541924,-0.2500797122165565,-0.02297324723802574,0.004691805339579304,-0.9175091911764707,-0.691010894432247,-0.9918114806587988,0.029452098609825828,-0.8484474003741843,-0.7372837252744376,-0.9896170509999315,0.1670889044640922,-0.7158770626866927,-0.46286426756552845,-0.6938436446992045,-0.5435447697473381,undefined,1495192911336
903d185fccf839df,-0.6168578297393223,-0.7007863270565929,0.11635089742726296,0.08204953509806097,-1.2761373453288112,-1.9571280228407422,1.9359072541741689,-0.8841406219612938,-0.36944426778123124,-0.3145408635090599,-0.02923847340271635,-0.0019484144939098391,-0.8174158868092692,-0.7011950856682406,-1.0844431651203998,0.013287306510262416,-0.7761839814806883,-0.7587904023350607,-1.0438423355449793,0.10551052108400556,-0.7564044263992193,-0.4643102915138278,-0.6603937506056415,-0.5182903998862523,undefined,1495192912807
903d185fccf839df,-0.6362620159143428,-0.7166357466198665,0.19418847057056068,0.21320926786425087,-1.2281957097140617,-1.962566795463539,2.0022204474499032,-0.44517155021013505,-0.3701958547635501,-0.20326814574713642,0.035740887467313416,0.09606816723635977,-0.6259330436720143,-0.7243409236265269,-1.0528641884741574,0.10017345621842708,-0.7877523234707081,-0.7889478798333579,-1.0366915950064102,0.13287356113258394,-0.7659303988196734,-0.44865058596597013,-0.6114895962959138,-0.5341511238235206,undefined,1495192914305
903d185fccf839df,-0.7083347764323814,-0.6321054553644212,0.8143354876491362,0.7178447078450745,-1.2643602207133724,-1.9425120454398883,1.908257481178243,-1.047850573245389,-0.2976999156390411,-0.2406310571950149,0.0537899859259772,0.09687630717166745,-0.691211285650624,-0.7039725670560886,-1.0539168112127206,0.07592619740727811,-0.7277257197698258,-0.7700757075473866,-1.0170025689608748,0.091544135035605,-0.7622350120812511,-0.4480103403150091,-0.5794541199529625,-0.5304148016826854,undefined,1495192915801
903d185fccf839df,-0.35212901373683575,-0.6808277586644811,1.3451609911138693,1.4085163452272567,-1.0322737507368467,-1.9176590620548246,1.9055882374715336,-0.9820830786344265,-0.19716496234665135,-0.16576395043988398,0.18466128274190988,0.017016760505561425,-0.9566761363636364,-0.6984175654280689,-1.0149694164986667,-0.01904241901247209,-0.7763365348184575,-0.7526601116594255,-0.9931994180525662,0.010656099140764638,-0.7591069252563116,-0.443398038667428,-0.6245612272504012,-0.5487636111001152,undefined,1495192917335
903d185fccf839df,-0.27035419463669663,-0.6379756199596313,1.1996942719486625,1.2427794443267126,-0.8236078098181068,-1.930164747402368,1.9409696467921236,-0.7142302304179884,-0.21015715825783632,-0.1019125728355689,0.1941760884744378,-0.09417363233803284,-0.8000083556149733,-0.6900850565106521,-1.0297062452720558,-0.1463407185578745,-0.8163495160100409,-0.7566118676670082,-0.9900438565429305,-0.05119945663429989,-0.7695765660394552,-0.4436932191000768,-0.628368644351482,-0.5411972685644255,undefined,1495192918858
903d185fccf839df,-0.2842142931134444,-0.6238872453907218,0.8047651984077498,0.7800478996278503,-0.841216920399249,-1.9417760052019357,1.8950479684288923,-1.0267268643806833,-0.2018288976011229,-0.23594243015842323,0.15246388783705342,-0.18869369359674834,0.1487020944741533,-0.6817525475932353,-1.003390441216499,-0.2190826221825683,-0.8493988749836796,-0.7159353701779696,-0.9814237854755766,-0.14774771067296352,-0.7702980919935488,-0.45429665841920086,-0.6103443971841519,-0.5393184626455351,undefined,1495192920308
903d185fccf839df,-0.5309248672283068,-0.7524436761192673,0.14442337313447054,0.1692330379438932,-1.1246187301859873,-1.9897117486878129,1.9169069173404358,-1.0075493962018147,-0.2779009922292447,-0.35716581641809997,0.11420163248060501,-0.22580339290685839,0.3575924688057041,-0.653051701531542,-0.9865483227925809,-0.23928869003500677,-0.857202417826162,-0.720178441932449,-0.9900788403587487,-0.14882560118108812,-0.770506796844052,-0.4568616851788592,-0.6202512966283511,-0.5321321248651661,undefined,1495192921811
903d185fccf839df,-0.8067417896165193,-0.842844073513938,-0.04442833535155205,-0.08588049842306127,-1.313083558512235,-2.004206604719728,1.9080681389951861,-1.115625482991461,-0.23675340055314698,-0.5028912197312827,0.07933549940618456,-0.13744813062823932,-0.6476924576648841,-0.6697167258417629,-1.0097062255023967,-0.2514122911758597,-0.8382280566909104,-0.7224329701473605,-1.016596752951298,-0.24180141611853478,-0.7966482730436435,-0.4525977661752174,-0.635852937383186,-0.5294215896186292,undefined,1495192923299
903d185fccf839df,-0.9120789037971457,-0.8780650026292136,-0.05336023257598686,-0.11112351472271763,-1.4978043974296036,-2.027780834335376,1.9294931692877066,-1.0395103787476059,-0.2784788020142722,-0.7480912276503431,0.1022402851731188,-0.03165795215654808,-0.8739903631907309,-0.7178600646507506,-1.0360220590068887,-0.3221336063873787,-0.8852212344675916,-0.743382347882003,-1.0510140658127165,-0.229975412115907,-0.8188484686265386,-0.4496819924812121,-0.6200396350493608,-0.530311187140935,undefined,1495192924812
903d185fccf839df,-0.8552522895594804,-0.7847295156299399,0.37921135177657034,0.2994462778029693,-1.4046365555796565,-2.026143378811408,1.94053835012015,-0.9339352090904309,-0.2836680018052737,-0.6897049684499718,0.09586948514619777,-0.053752592655826104,-1.021954378342246,-0.7345251083871334,-1.0181272883954726,-0.3382984408840244,-0.9156124505862993,-0.7745910948446373,-1.0341377580393418,-0.2500549840085784,-0.8356268180661753,-0.4562153917028229,-0.6053016722872453,-0.5115343972293056,undefined,1495192926308
903d185fccf839df,-0.6778424493662252,-0.6773056686757527,0.7467060874902776,0.7577763598438296,-1.2288539948606634,-1.9859989411811048,1.9731479444950135,-0.6476786158271625,-0.32537997361974436,-0.6830008817683071,0.08937921138025155,-0.0016537623709323341,-1.02630626114082,-0.7298959317299338,-0.9981272575824628,-0.3968960701605258,-0.978800267691335,-0.7746924215891289,-1.0276447175457855,-0.36469641251015117,-0.8612904607973464,-0.44605172643051544,-0.5903771911881761,-0.516403024794734,undefined,1495192927805
903d185fccf839df,-0.6237879307358108,-0.6139079904226582,1.0905942961089947,1.103712538351201,-1.152420980407866,-1.9673533814659445,1.9122311246870294,-1.0083477803926337,-0.3531477977081981,-0.6329127021513572,0.025699023827431867,-0.033906480555002935,-1.0045468471479502,-0.7298959187791594,-0.9833903993601384,-0.2837420166985942,-0.8967448517477001,-0.7339589277121905,-1.008249558676493,-0.30305643490402295,-0.8275456363294216,-0.4507293442411342,-0.5745490225721145,-0.4819718612332696,undefined,1495192929300
903d185fccf839df,-0.6321040105251053,-0.6344535445848991,1.2424408692525266,1.192794395246384,-1.1392861451317005,-1.9546706741217725,1.942618535658873,-0.7916774004274798,-0.3797649017974107,-0.5961335491148516,0.031269282251384686,-0.016823112118689847,-0.9479723707664884,-0.6836042558133613,-0.9739167394963177,-0.21504141709149707,-0.7739153682958356,-0.6815601514264694,-0.9610210857360527,-0.12347976664034369,-0.7603469829947589,-0.4340962822149355,-0.5285161212188991,-0.4536239872948115,undefined,1495192930802
903d185fccf839df,-0.6944746434502239,-0.5634246713562265,1.1658793177322837,1.145552885566885,-1.2203682946158778,-1.944203073996361,1.886858758871816,-1.1525781810379931,-0.39982404782901515,-0.5354604603206623,-0.021387058658715877,-0.09433134536723743,-0.8348234180035651,-0.6974917339818614,-0.9686535521811647,-0.12007280067174685,-0.844413029970376,-0.679071305015261,-0.9481399567163441,-0.08459869296545514,-0.7477860220584919,-0.4500298002875125,-0.539510864341567,-0.4464622271724831,undefined,1495192932369
903d185fccf839df,-0.7665474039682625,-0.6285833946036853,1.2405272180233684,1.2488902269443243,-1.203108897974106,-1.9695684887227587,1.9262716574259358,-0.9090270874607969,-0.3672118873847233,-0.3966745649118449,-0.03021737826257201,-0.02552323084366102,-0.7216744652406417,-0.6873075686474168,-0.9318114176687043,-0.06551634822159516,-0.8263029570046498,-0.6646068611633345,-0.9218669317887824,-0.04330006040725345,-0.7202177367772434,-0.44350518317258714,-0.5796752124467851,-0.4396729609455702,undefined,1495192933803
903d185fccf839df,-0.7221949439199487,-0.6591082183479859,1.3738710964271803,1.3962028526774641,-1.1375992937281498,-1.983073417293835,1.9665839492883832,-0.6302329638862061,-0.3808812827665008,-0.30052430827169807,-0.09505985881242981,-0.2617037013110277,-0.19074476381461675,-0.6576808846641288,-0.892863971419014,-0.03924847273254981,-0.8337650614769273,-0.6306496176468487,-0.9258341233295271,0.039220207783572,-0.6905298096363588,-0.44609642773591046,-0.5597038186457861,-0.41996910026511836,undefined,1495192935347
903d185fccf839df,-0.6348760371215368,-0.5957105547088876,1.5314604022168328,1.5946263849798794,-1.0667411296728804,-1.959107874360192,1.918824043017912,-0.8850518680039787,-0.4454319011137969,-0.051867807633462125,-0.1507461520160921,-0.3036010652618381,0.7971326314616757,-0.6586067096349489,-0.9160218925344142,-0.0028775421187440704,-0.8366058249453019,-0.6266725296486264,-0.9426824445689742,0.07827066403527445,-0.6874114118620731,-0.443395652803689,-0.5413109086576985,-0.4168186292881301,undefined,1495192936811
903d185fccf839df,-0.5835934760767345,-0.5669467613449549,1.322192347761932,1.364151955062323,-0.9389413426835734,-1.9296220344512316,1.9354417904838432,-0.7252021965501538,-0.3868376816045023,0.051888157550914464,-0.09013569810012939,-0.28241517167829894,0.3967594139928699,-0.6058341941687618,-0.8623376322358022,0.017328568130776725,-0.8329019399401844,-0.6106058521148964,-0.9236441216597024,0.0773159642543629,-0.6714820033551411,-0.45497359502428975,-0.5407057022792032,-0.39957621922530273,undefined,1495192938325
903d185fccf839df,-0.5184507820497747,-0.5323128618417968,1.473401037162411,1.6052846822013018,-0.9541024581617664,-1.9012355964107979,1.9302663362198664,-0.7119097535970297,-0.41121511343079664,-0.05532721819563517,-0.16680481852014356,-0.1265489979500228,-0.7477857620320856,-0.5067699639336785,-0.8465481586371485,0.15877105723020693,-0.8086323865451364,-0.5567251676730655,-0.9019819947756668,0.17541945719055926,-0.6236110834179355,-0.44051148722844463,-0.5186748437051039,-0.39939511621864077,undefined,1495192939802
903d185fccf839df,-0.3923234338905023,-0.52292056341587,1.581224991379024,1.5632965378100085,-0.7994878594472903,-1.9028055029813098,1.8473091073950214,-1.201687724854918,-0.4203800504738739,0.0016136315183942584,-0.20304170703173002,-0.006997815255785031,-0.9479723707664884,-0.4215932507194189,-0.8412849639597617,0.1729153457107601,-0.7543299109089374,-0.4721740363593721,-0.87109107485301,0.2903842508925345,-0.5498241864577947,-0.38546683460418923,-0.4585485641623126,-0.4205202756647054,undefined,1495192941296
903d185fccf839df,-0.38816539399585503,-0.6274093646074425,1.666080556380649,1.576113934877987,-0.9016145431076625,-1.9306003157273066,1.8996475009719396,-0.9201715738462779,-0.36924828786733804,-0.4621046497351484,-0.21708435359790773,0.04446680090827331,-0.9175091911764707,-0.2799406833033676,-0.8823376556865782,0.34062579509340024,-0.6927769154137278,-0.4065014100926175,-0.839696383703078,0.3863935582232065,-0.48747216578748037,-0.40806851217817197,-0.4326688756990306,-0.4421166957752785,undefined,1495192942794
903d185fccf839df,-0.35905901121709505,-0.7019603716668319,1.5186996777123851,1.5278393860589274,-0.876784868980415,-1.9521807170766863,1.8662042494714046,-1.1771268987129004,-0.3529567046851794,-0.333391274465252,-0.19557792419485417,0.05778084091086285,-1.021954378342246,-0.2021706087079936,-0.8739166001557361,0.3244608899349507,-0.6615913755375228,-0.3526017274011044,-0.8319579113995403,0.4690832101620666,-0.4445462352423401,-0.39283945924448277,-0.4387891442853949,-0.4309921756726024,undefined,1495192944303
903d185fccf839df,-0.3160925989724067,-0.7254409862056835,1.5053015777387835,1.5278393860589274,-0.8664271725888141,-1.9404483413548044,1.9161837140552802,-0.8520559674139869,-0.4324838878171853,-0.1810731097183058,-0.1282592116142473,0.07364261633049074,-0.12546652183600712,-0.18920890370721555,-0.8844429085259381,0.4659035486227101,-0.6827487945964597,-0.3538809817526409,-0.8458046000449626,0.5297068911360914,-0.4304601740245651,-0.39530418993150573,-0.49546471977226425,-0.4385916228793821,undefined,1495192945852
903d185fccf839df,-0.2717401044186832,-0.6579341445097546,1.3126220585205455,1.3422340332142007,-0.8019564233356369,-1.9267989993188903,1.905356799053906,-0.888901032080943,-0.4278403877243215,-0.29364775694938866,-0.14118574798012815,0.03286302157429279,-0.2516711229946524,-0.17161807385233618,-0.8623376248735684,0.5426865866766714,-0.6887858706774278,-0.3318106733248365,-0.8431947895329084,0.5951656831725118,-0.4056338731300997,-0.39133795464257765,-0.48342768770105093,-0.46746097298981504,undefined,1495192947360
903d185fccf839df,-0.14284079867379873,-0.6033416912284809,1.2768934530750087,1.3022545472031888,-0.8029129938864036,-1.9059173688025401,1.880996906000913,-1.0307622581434293,-0.42549906628562556,-0.10592036147461491,-0.16718626409040369,0.021957094259423666,-0.45620961452762926,-0.10866140600247903,-0.8781271279211571,0.4881302190206842,-0.6894136055471661,-0.3422663631368907,-0.847343898584641,0.6445484950666777,-0.4025909979370789,-0.3941624916823015,-0.45093230466696504,-0.45799728591871325,undefined,1495192948830
903d185fccf839df,-0.14284079867379873,-0.5534453871601707,1.0478471905312317,1.0260590956825724,-0.8179918255327434,-1.8925172554250014,1.8421388917875354,-1.2717645455422077,-0.4516277428705213,-0.25296387855763525,-0.12136658705576145,-0.082831173351434,-0.7347301136363636,-0.20957727322842837,-0.9012850416743237,0.6113871862837685,-0.6852597624169049,-0.39940851300230173,-0.8619672331395016,0.7481338429418461,-0.4032628809957827,-0.40350040293604245,-0.5022905912681915,-0.49549413432779593,undefined,1495192950290
903d185fccf839df,-0.23431781437767732,-0.5035490830918604,0.9878741742476518,1.0119962086645924,-0.9007813999010917,-1.8861118450869643,1.8536811091409342,-1.2085281507679546,-0.38111195764744893,-0.34556512277113943,-0.06747331452386818,-0.009177228193985662,-0.9088054255793226,-0.30864147756196264,-0.9170745373596786,0.5891605441505159,-0.6682348660629618,-0.43724152025294444,-0.9203416267056966,0.6740057252979659,-0.45300917503303834,-0.44527213239771807,-0.5951989329793164,-0.4551101028559358,undefined,1495192951832
903d185fccf839df,-0.19966734390064458,-0.4982659481087679,1.019775223097923,1.0205305426221924,-0.8844888557601491,-1.8879333099061648,1.8708142938956536,-1.0891389924054466,-0.37127679997684465,-0.31237493248481996,-0.09863097479862294,0.05836555601449797,-0.8957497771836007,-0.31789988267945973,-0.9044429393389479,0.57097502231417,-0.6757781790661953,-0.44833050447149453,-0.9226925550562701,0.6627494607209065,-0.45982748883715224,-0.44126445276729986,-0.6058165413478581,-0.45111631103092753,undefined,1495192953326
903d185fccf839df,-0.4089555589636816,-0.4589359140066426,1.289016039699454,1.3125557512311166,-1.0719148248685173,-1.8597541740523775,1.7938162107184088,-1.5968141147209207,-0.36075872711726753,-0.35957921252245295,-0.12272669244873798,-0.015986372726519548,-0.9610280191622104,-0.5188057792097636,-0.9128640095942576,0.5932018057710302,-0.7673188275425746,-0.5353704816870231,-0.9282970009722146,0.5931946816842063,-0.5171444622735992,-0.4624558304279327,-0.5808806708732714,-0.4868644805286921,undefined,1495192954798
903d185fccf839df,-0.5378550199829099,-0.42723701642411066,1.7177593050458972,1.703147993823958,-1.2398082619005526,-1.8225259447301259,1.8874925263174887,-0.9664228221827411,-0.32296002080068553,-0.2940114000895315,-0.0968438358867601,-0.11970810051779882,-0.6999150512477719,-0.5882433384123334,-0.9402324658373127,0.2941518093548341,-0.8185711436624091,-0.5388662652404602,-0.926141983014218,0.5113827414184927,-0.5413391704672462,-0.5003261011061931,-0.5684836664829793,-0.5073040119584801,undefined,1495192956303
903d185fccf839df,-0.35351499252964175,-0.4618709597692572,1.876624124184706,1.8611343345165048,-1.0725319747749311,-1.7950572274951264,1.8666513192027891,-1.0088612621184152,-0.3736365740367892,-0.21436652936762063,-0.19997203535725572,-0.12278701189082822,-0.0950033422459893,-0.5891691633831537,-0.8939166162442783,0.393161602600934,-0.7682819358670171,-0.5215836630964842,-0.887323676386637,0.5678026457086968,-0.5204820063255555,-0.45208235498395477,-0.5410351006870919,-0.43030530012474055,undefined,1495192957809
903d185fccf839df,-0.2731261522223087,-0.4113876699308179,1.8517415754666608,1.8703625723726407,-0.9541847461206947,-1.7576729385966632,1.8593562339194176,-0.9664217304600976,-0.3951949562720774,-0.17656081902848875,-0.1633181182946996,-0.13395430036495204,-0.39528325534759357,-0.5752816852146535,-0.8718113252296749,0.5346040917003643,-0.7323596091565399,-0.49742348280113385,-0.8702794454091386,0.5717908449505459,-0.5036724363956032,-0.45487183631840944,-0.5496399415678974,-0.4298833105253052,undefined,1495192959302
903d185fccf839df,-0.3285668221725777,-0.41549677491766757,1.5703789346515322,1.4936725922584957,-0.842410076987809,-1.7560075319864406,1.849226224692323,-1.0263388428614704,-0.41363111186774953,-0.12744369036875275,-0.18974060218720462,-0.08972641225197447,-0.9262129567736186,-0.5752816852146535,-0.837074458281042,0.22949241483880817,-0.8007049823283845,-0.49017859523419743,-0.8480785644852077,0.45012772314457233,-0.5280835587078321,-0.4527445678590211,-0.457591086733928,-0.39510462113156974,undefined,1495192960852
903d185fccf839df,-0.3687612078208345,-0.38614590809962884,1.4466045830782583,1.3575895702288356,-0.8189586857795902,-1.7637545817600389,1.8924865429978661,-0.7524869760101356,-0.4995453104946269,0.09014986447444047,-0.20933933845463223,-0.0976689534318855,-0.7347301136363636,-0.5132507905325184,-0.8076007271119257,0.3082961261001088,-0.7552197053260836,-0.46519513207253954,-0.830565546989343,0.49710837991848417,-0.5026546360924081,-0.44475647851789013,-0.42731178662648217,-0.37803099949515284,undefined,1495192962300
903d185fccf839df,-0.4879584549836184,-0.38790698232198534,1.5001977453835131,1.6121261327322898,-0.9012236853358662,-1.7566806808206687,1.9129359062539169,-0.6044062012599168,-0.54751758164396,0.1165348043776159,-0.23322653797295714,-0.001928739861189929,-0.7782489416221035,-0.44381325723149767,-0.804442844171769,0.22140994812722262,-0.7652268155133644,-0.4289960264555003,-0.810610642301772,0.5077487077681392,-0.4799017904623485,-0.42563704892866683,-0.41062272991027743,-0.3407965984324906,undefined,1495192964947
903d185fccf839df,-0.5032045667585819,-0.44543448136587366,1.3770615316902417,1.567472571597671,-0.9227619346023328,-1.7571837972781799,1.9233762385748523,-0.5556884111946512,-0.5620557154022608,0.19478546569694222,-0.21716802238229072,-0.0032880296756777113,-0.7869527072192514,-0.4327032798770074,-0.8244428455358437,0.17897719574444926,-0.7520950181566525,-0.41595649580578026,-0.8090713437865619,0.5273971238075806,-0.4716600934301149,-0.42370888729563777,-0.39973776556036617,-0.34749603197217144,undefined,1495192965324
903d185fccf839df,-0.44637798702632636,-0.44778257058635157,1.3094323856683325,1.449945043664005,-0.9275550618802948,-1.8117648589583104,1.9587839396449482,-0.3984816971883584,-0.5596602467413606,0.1404204135981302,-0.23127935713632852,-0.003809313386206127,-0.8174158868092692,-0.34567486491800914,-0.8054954448236307,0.36083184881347796,-0.6580277570346157,-0.39365186886055226,-0.7967009816611146,0.6314906172861456,-0.43739479873376635,-0.381504374516154,-0.3434027009041789,-0.304890371991452,undefined,1495192966816
903d185fccf839df,-0.4838003805835614,-0.4078654922581125,1.276893707211958,1.390423867163162,-0.9267733492014484,-1.8223838597357196,2.0103176138857517,-0.0759940108406384,-0.49878383796520354,-0.03714208778887512,-0.18000077397285144,0.03486293667454109,-0.847879066399287,-0.34011986328998944,-0.8139165003544727,0.2779870172552707,-0.7338794882058961,-0.4022140084521629,-0.7961202463461162,0.5196209104053716,-0.45662229427623635,-0.3829220662501207,-0.3778556889157117,-0.3246569201187776,undefined,1495192968304
903d185fccf839df,-0.4990465268639347,-0.4935698281237968,1.3406947883647025,1.510283343477005,-0.9248293515509407,-1.8739648651775302,1.961397961145247,-0.4760052346446667,-0.47563804055481773,-0.011327060884246063,-0.15073703025887752,0.0060602623888055054,-0.8043602384135473,-0.37252404808728734,-0.8223375706097825,0.16887414061968886,-0.7942787847718914,-0.4445307368144529,-0.8209309366749131,0.4332664290695614,-0.4990188145105297,-0.4386011001823525,-0.42560230197185656,-0.33452284802886223,undefined,1495192969811
903d185fccf839df,-0.22045761238470035,-0.5375959968248893,1.4542607128165879,1.6207042664016458,-0.8625186043693248,-1.8991602450627476,1.8801921829984725,-1.0325825812671803,-0.41706206836550475,0.027004715616148648,-0.15981429571355865,0.035926813989943227,-0.847879066399287,-0.2993831890014365,-0.8791797580219539,0.22545115321829387,-0.753956378806694,-0.4040505611718367,-0.8282146165161492,0.5028520035970739,-0.46823928628126277,-0.41586597204787223,-0.4643259012145996,-0.3239739123672131,undefined,1495192971308
903d185fccf839df,-0.20243940500248583,-0.5223335484177486,1.3489888018460847,1.3336703245947898,-0.8805082951933525,-1.885543512232274,1.9340243201318077,-0.6780113914275524,-0.42542417757677903,-0.057932329765118355,-0.08674819673051552,0.05139131845096457,-0.8043602384135473,-0.3336390237403749,-0.8644429071618633,0.24363661852519675,-0.7511323670010922,-0.39879421765937806,-0.8188528835142187,0.47889202490586796,-0.46637442199331686,-0.4237012028894304,-0.42657415294446166,-0.32071549942999344,undefined,1495192972799
903d185fccf839df,-0.39093742059228653,-0.5645987013524694,1.2552013396200248,1.2233282986219864,-0.9805778403742729,-1.8991835374109824,1.9025481799537107,-0.9279242109769423,-0.3601132714493446,-0.163270266598529,-0.15714183753688765,0.016364924995712824,-0.8348234180035651,-0.35678485522327397,-0.8749692155320653,0.2860694557021347,-0.7400417953677006,-0.4195282750709127,-0.8241004917695995,0.4629854297771055,-0.4820455538169078,-0.428211075649879,-0.4727280257632323,-0.3096113673049065,undefined,1495192974305
903d185fccf839df,-0.44499193922270086,-0.5804480916877507,0.9923406311337681,1.0953090363300237,-1.0323354647190255,-1.9033039618206822,1.8950269352387916,-0.9957245382096871,-0.3963220529079554,-0.18622258073193126,-0.10515395737299009,0.024286030583302774,-0.8348234180035651,-0.3317873608479599,-0.9023376717751205,0.21332750968035863,-0.7162702035038006,-0.4067230631379362,-0.8553902297593005,0.4223027350367554,-0.4893931006703974,-0.4544343740840476,-0.5278680335444359,-0.31958904070920585,undefined,1495192975878
903d185fccf839df,-0.4186577555674211,-0.5516843275518103,1.1499294286495216,1.1177786064522992,-1.1053741976387348,-1.9224083818243973,1.8973753471130232,-1.0147842465352952,-0.40354385182498187,-0.24352369126367737,-0.1343882618877222,-0.023740493387371345,-0.8348234180035651,-0.43177740310308893,-0.8770744830958928,0.21736871477142986,-0.765671330323448,-0.43946438106972274,-0.8637094380812985,0.422302733232806,-0.510658762279168,-0.4334100408955269,-0.5225438998736917,-0.30479265496076374,undefined,1495192977296
