UUID,iqrAccX,iqrAccY,iqrAccZ,iqrAccXYZ,meanAccX,meanAccY,meanAccZ,meanAccXYZ, covarianceAccXY, covarianceAccXZ, covarianceAccYZ,pressureDerivative, pressureIQR, iqrGyroX, iqrGyroY, iqrGyroZ, iqrGyroMagnitude, meanGyroX, meanGyroY, meanGyroZ, meanGyroMagnitude, covarianceGyroXY, covarianceGyroXZ, covarianceGyroYZ, class, timestamp 
903d185fccf839df,-0.30639045412678184,-0.5666532611528923,1.37514724511871,1.1789251922273822,-1.2305110617196293,-1.948840508088963,1.943020143883559,-0.757906820849061,-0.37557568727323554,-0.7655655323136881,-0.23577239897927219,-1.1172898627487364,1.291071329099822,-0.49843746149164897,-1.1307590183945513,-0.35850452286882367,-0.7589596611136229,-0.3885814296153835,-1.1329557496557434,-0.42427945303240905,-0.6813813332753503,-0.46532827893391004,-0.6834855294620819,-0.42734428564643945,undefined,1498539593292
903d185fccf839df,-0.27243316282590563,-0.3697095466082147,0.8755843984872962,0.6451085746639614,-1.0011264155801878,-1.6620430554601768,1.9539347325926069,-0.17005840486599447,-0.33139608884757366,-0.33209347787885707,-0.288876786928612,-0.5469151602800503,0.3293052306149733,-0.4826982815784101,-0.8939166162442783,-0.5868332182058615,-0.8010655052638196,-0.3041040450158482,-0.9541782015009687,-0.43244187038025117,-0.6015179139538016,-0.30452101018574185,-0.654205963763946,-0.4900251484781399,undefined,1498539594713
903d185fccf839df,-0.4546940668156209,-0.26786232752218464,0.47204198838805095,0.4051739406071308,-1.020162350943756,-1.6217915282112285,1.9099819801680775,-0.41510104320615254,-0.3283184953597455,-0.47596496250682707,-0.2296850672904172,-0.1947252849900746,-0.13634622883244207,-0.5891691892847027,-0.8949692316206076,-0.5565240528315804,-0.8491071791301403,-0.41971545089151757,-0.9293395232583371,-0.4597356160500439,-0.6664477448309032,-0.34782011536854696,-0.635675599594655,-0.47179432586803755,undefined,1498539596219
903d185fccf839df,-0.361831106824346,-0.3691225316100933,0.24459119761275414,0.30088054401859154,-0.8911745656389258,-1.5430312170133216,1.8771521370033895,-0.4949661069257199,-0.40714081334562163,-0.4346172591371956,-0.17213846651294323,-0.0884292548319041,-0.08194769385026737,-0.5428774745158065,-0.8697060503036137,-0.36254575622461643,-0.8144653086461425,-0.5033271806383488,-0.868153695041077,-0.29303897674756263,-0.6592736206040519,-0.36662886225436575,-0.6221223548096165,-0.40497399665781775,undefined,1498539597711
903d185fccf839df,0.23554121129860872,-0.25817652159719706,-0.08462263527235696,0.048766314788529316,-0.42227019946272415,-1.626327141695665,1.85548778464422,-0.6597281905266285,-0.5659848358364534,-0.4703269697407898,-0.04980016100011073,0.12190086457969969,-0.6302849264705882,-0.5752816852146535,-0.8318112856903566,-0.3463808793308884,-0.7713817924756249,-0.6119992512657076,-0.8053942000789224,-0.22837305842789674,-0.6640752259544432,-0.42349169614172333,-0.6597167941047622,-0.3805280596129957,undefined,1498539599223
903d185fccf839df,0.6125371734673907,-0.4248890148876098,0.023201064807306552,0.14137375483278092,0.4080221220974496,-1.6783437115627635,1.8838239436768107,-0.23335017501509941,-0.5911460182610092,0.45096677751394876,-0.05606908856828962,0.024182067343617757,-0.8739903631907309,-0.6243508684206233,-0.7665480353851092,-0.34638090759560997,-0.745598614952851,-0.6595341762620065,-0.7605974373661826,-0.2644525299219771,-0.6790776782232638,-0.42225583689868423,-0.5995687480700389,-0.3565616414850061,undefined,1498539600758
903d185fccf839df,0.7372785083284473,-0.40082134150864823,0.054463975777575495,0.10352652095871373,0.31361999575266475,-1.7144049917047999,1.8511038975564746,-0.502211782966619,-0.5256667367136164,0.5999792340813264,-0.061335307452738706,-0.04150247510350299,-0.8609347147950089,-0.7030467291344938,-0.7539164226399109,-0.356483920323288,-0.8480653675789344,-0.7528247695072274,-0.7541673682439209,-0.28431652496501836,-0.7285927894826889,-0.43885738101610633,-0.5769771066027435,-0.3390169970982296,undefined,1498539602214
903d185fccf839df,0.7012421625748377,0.16036546434327556,0.1437854893914178,0.2575969860796592,-0.06827765631638656,-1.3865226414552054,1.835595934484854,0.08870656074266385,-0.8980305418579627,0.8028942903623048,-0.16571019987474836,-0.06780019894736579,-0.6433405748663101,-0.7410059414613606,-0.7854954213728546,-0.3322366473797783,-0.8784919107257932,-0.8119871290811999,-0.7317845698579387,-0.331528160022639,-0.7541983331526665,-0.4179422037157985,-0.5798272273359661,-0.3435505556340795,undefined,1498539603734
903d185fccf839df,-0.3729191787046623,0.06761703618411168,0.1718579650986254,0.16665307019716238,-0.9547298821922042,-1.2353270672736705,1.7413778835623501,-0.5148409958280316,-0.18529878342496514,-0.19437398416367502,-0.1703698570919647,-0.0724059070199245,-0.499728442513369,-0.7373026092011432,-0.7844427986342916,-0.3544633460424739,-0.9629805331891158,-0.792798308731029,-0.7814269428199833,-0.3341920903848065,-0.75254257020121,-0.45347550844176204,-0.640290413312414,-0.4162631717191349,undefined,1498539605208
903d185fccf839df,-0.5433990904284777,0.31064159614227416,0.5080897898420637,0.2652152734048344,-1.0661239796164275,-1.351698187751465,1.825263442437559,-0.21100176842835158,-0.1998893761825302,-0.3406905421955983,-0.35562610764953007,-0.1894723869751692,-0.3038937165775401,-0.7086017307625135,-0.8707586877666442,-0.45549372770174873,-0.9669943626400404,-0.7303618164453451,-0.8583009039281526,-0.4612292655186051,-0.7829432740376966,-0.4589619152405043,-0.6386957832824752,-0.4904836617590402,undefined,1498539606707
903d185fccf839df,-0.5766633405748363,-0.25289338661410454,0.620379692670894,0.5534572097787928,-1.132446153672356,-1.745090387635978,1.9019617384951657,-0.712622875562413,-0.4419684477989213,-0.7107820684362285,-0.04607532569217421,-0.19054378316117582,-0.5388953877005348,-0.6428675491478719,-0.9349693079710949,-0.35042212681904195,-0.9674528632539067,-0.7105587015218471,-0.8978538757956576,-0.33588591856269717,-0.767051131460926,-0.46721105632977067,-0.6710880019185863,-0.49713975209518446,undefined,1498539608212
903d185fccf839df,-0.2578800059419354,-0.7043083878173289,1.4906272020051774,1.4184919007392698,-0.7943655760364957,-1.9315483161854698,1.969371550911305,-0.5016873912150899,-0.41926894715096896,-0.7609755000980417,0.00127960292946325,-0.024385955006528494,-0.45620961452762926,-0.5808366544657368,-0.9402324437506113,-0.2473710860847885,-0.8600020056617955,-0.6757148447721198,-0.9132468599262105,-0.040559129700081985,-0.6985553792177475,-0.4679806490176387,-0.658142173988347,-0.5138477985444793,undefined,1498539609725
903d185fccf839df,-0.02502949579841112,-0.7712281560591517,1.6705465049928663,1.6332424222386188,-0.517700899548407,-1.9574750785976305,1.8946087912504634,-0.9762425218803025,-0.3939377986811118,-0.36604417992575117,0.021883610445316042,0.042292390380876545,-0.45620961452762926,-0.5104733156200577,-0.9991799134510778,0.015307894923437267,-0.744302563151927,-0.5782001795059283,-0.9566480784548816,0.2435575875524462,-0.6150300978003612,-0.46855674735269076,-0.6529211378376587,-0.5167306862190898,undefined,1498539611242
903d185fccf839df,0.01655090314806145,-0.6855238932634483,1.59589936711263,1.6477210547979262,-0.4245742001745326,-1.9405554849009872,1.8936936144075056,-0.9369302662887732,-0.4493738053678765,-0.4093856636739361,0.07235712058108451,0.1253480422045725,-0.29954183377896615,-0.5206574939052768,-0.9391798357365159,0.09209101777156306,-0.7166198091043888,-0.5526657505377806,-0.9359305223543656,0.15874294899770205,-0.610386629159054,-0.48769168694519566,-0.6127321555064829,-0.5121952247467159,undefined,1498539612706
903d185fccf839df,0.1967327699377482,-0.6549991133611361,1.3694054019519122,1.3341387589381222,-0.4786872531721445,-1.9240598134224394,1.7580824140188211,-1.7547241810612302,-0.329856510969618,-0.7218012520299514,0.020887460875247905,0.012776423210765442,-0.843527183600713,-0.4502941226826613,-0.7433901216319426,0.5689544056362736,-0.5474204298543728,-0.47950125212213796,-0.5775888515680979,0.9072921817654318,-0.29621500403724615,-0.4101405710384337,-0.47826775506391633,1.5148114124930017,undefined,1498539614178
903d185fccf839df,2.501675093216767,1.0843280359100866,2.630115782077942,1.5149050389396563,2.3192177518044166,-1.2110004938753927,1.0330475276938338,0.25442077571615757,3.7842089228417475,-3.555766714527791,-3.0102028888688785,-0.00440984147187363,-0.8739903631907309,-0.35863651811568903,0.01976874814674322,0.9771172221586085,0.03413601148362248,-0.37103692703287894,-0.027422613156791013,1.6290019252107308,0.09792264516325815,-0.07278522395517029,0.06934117859905159,3.9228261309257495,undefined,1498539615704
903d185fccf839df,3.348530115567245,2.935775064436491,2.198820155814202,1.4549439323123974,2.734667343679928,-0.4560894000752365,0.2729441674302602,0.6320592995255813,-0.08872379266370696,1.6187177194788134,-3.2997381714670406,0.06284742237231851,-0.843527183600713,-0.10773556808088423,0.3471374972535688,1.5893615034715538,0.3766076877623032,-0.14819963714225798,0.15610373684803072,1.9600377010666727,0.3288004109211089,-0.38261813383344156,0.30724130281866346,3.5285562289498835,undefined,1498539617308
903d185fccf839df,3.6077146023335906,0.7092251306026043,0.13230104064697437,1.0881615542643188,2.7467941715599573,0.3779599232290303,-0.5273294775981319,1.2300036030085053,-1.8788579518438966,2.2331745682373136,-0.4069426451473144,0.10448414008935791,-0.42574643493761144,-0.03737220980904324,0.5039798755419584,2.153111041044429,0.520534019980204,-0.04789214118961677,0.3497964538457653,2.3533755910350482,0.5014807775822553,-0.3697212185696584,0.6904322490240643,3.2253484472488525,undefined,1498539618706
903d185fccf839df,1.8058956583934456,0.5389905473234632,-0.16373616650447223,0.7157542993102728,1.2657258240085538,0.6610975847557026,-0.6544963739174613,1.238645336892195,1.3952169370824357,1.1189457758614878,0.26517124283061266,0.24175574486661233,0.6622242647058824,0.013548694567827018,0.6860853173516014,2.6057272548921553,0.5788267976119209,0.1343826429247255,0.5434751749461999,3.156204335317748,0.77197355733913,-0.6638315431452342,1.016421505757911,2.421701307745234,undefined,1498539620212
903d185fccf839df,1.9569715219638792,0.5272502473610354,-0.29452857347031053,0.77001811469791,1.3232640091726873,0.7591049807953718,-0.7139536577031506,1.8677262877297478,1.6251413708733478,1.4278445629730916,0.4580927387003532,0.3017522777167824,0.4359263591800357,0.14686868183720153,0.44397973156729237,2.7491901628164315,0.5542952724539825,0.35887282362403655,0.2348178601404424,3.1467188852223944,0.7353092111630432,-0.7093547954657927,1.9353815857746541,0.8892476550007655,undefined,1498539621690
903d185fccf839df,1.7892634988148564,0.69924599254651,-0.34556943839250615,0.8360071907817761,1.1320426167208282,0.7973836984522972,-0.7061378748263981,2.0808805350698596,2.4557502730426144,2.1606940123448872,0.7379780960036733,-0.03659613453772909,-0.14287405303030304,0.30703798178359976,0.0881898593054459,2.7289843917435688,0.6443300987732394,0.5616663486083484,-0.031921564795455944,3.385918335721487,0.7432561889406484,-0.40133086548756386,2.060936378794938,0.15807765621633174,undefined,1498539623231
903d185fccf839df,2.059536506031845,0.8207577464217292,-0.10248717624851551,0.8525747485500398,1.4026798737761221,0.8378239520604686,-0.650236091197455,2.628725324236266,1.2213202309853404,1.7168319196919095,0.6106694989835781,-0.050862659624917164,-0.1994485294117647,0.2912988795750082,-0.06233667948029253,2.728984335214126,0.6623329410842198,0.4430313133765016,-0.07680611041085472,2.894954304598825,0.5911383263124922,-0.5307269852629639,2.0098386055303883,0.09477480799753978,undefined,1498539624695
903d185fccf839df,2.651364943488985,1.27569518834959,0.9451277675464997,0.7845699785003084,2.5025500156580387,0.19070073564563142,-0.22838627744025244,1.3610759218327833,-0.44912871131319615,-1.976722587560925,-1.2531054825384007,-0.29066501692625096,0.33583305481283426,0.3301838391680479,-0.05496824668801344,3.5776395524579225,0.8516105281008715,0.3132249670812219,0.15119896763993804,3.719156112673742,0.8261572695105813,-0.9915168707260607,0.38064849316663363,4.219780360192093,undefined,1498539626220
903d185fccf839df,2.490586986831041,1.6208603579808738,2.8093971377883404,0.4933723569980107,1.620973207133662,-0.5959392538098072,0.5736125201476907,0.09036086169836942,3.004425701783034,-8.033519012015493,-3.0321523077075296,-0.17648779571714426,0.22703598484848486,0.1107612748612699,-0.1507577846408361,2.120781400315859,0.8994600776310038,0.062491064881585345,-0.05252717493153934,2.879109317400735,0.4940200860123693,-0.5130631453993739,0.2893826903916207,4.7716399468488655,undefined,1498539627733
903d185fccf839df,0.31731613391497704,-0.24056618856552478,0.5348864980631658,0.623881052897721,0.6178194621752541,-1.3086491914599014,1.415016329336538,-0.7102680008106759,2.613080677194342,-8.096196173574354,-0.5177998595595088,-0.02101786284811375,0.04425690730837791,-0.20217064756031727,-0.2181263025099109,0.7184795593003401,0.027707339270272358,-0.18364512083944448,-0.2659998730906515,1.9095770039954565,0.14385112841722053,-0.3956820977609379,-0.09116492661654968,5.320926295391924,undefined,1498539629210
903d185fccf839df,-0.18164920552924954,-0.41667080491391034,0.7715883820713733,0.791727640633812,-0.6773143497482889,-1.5172931235481677,1.8497548172835592,-0.5622070180702977,-0.4438322984805045,-0.5371614528361155,-0.15014228297059665,0.06910855656285889,0.04425690730837791,-0.3688207611547809,-0.5465477847888064,0.2719251106921385,-0.36910674500459145,-0.40279030714069547,-0.489946797382949,1.475233046345501,-0.1110939778317427,-0.3854094388590515,-0.5354821212651092,5.553582182334578,undefined,1498539630700
903d185fccf839df,-0.11650651150228972,-0.44895662981058665,0.9317292228332367,0.8546700718835362,-0.5260837417325241,-1.516244965375527,1.8157777240600785,-0.7419505557592756,-0.44070399810424893,-0.47592182681044254,-0.15666522113754672,0.24965812047699046,-0.499728442513369,-0.4206674127978241,-0.7486532868603943,0.013287306510262416,-0.517057709509425,-0.49692951482761366,-0.6122720410896247,1.261425631175727,-0.22444679279807475,-0.39495456051088207,-0.8320536038819987,5.786430738608157,undefined,1498539632209
903d185fccf839df,-0.34797093933677875,-0.38086283157252104,1.2730656423427933,1.247047393567823,-0.22053682756831364,-1.5208149310311767,1.8947429023231739,-0.09498611858573303,-0.46245250350822653,-0.17290814008225638,-0.1980031281100721,0.06531768178494307,-0.865286597593583,-0.45584908545835734,-0.9676009368048355,-0.23322688239839992,-0.7500393785161217,-0.5275872948265949,-0.9733704562910965,-0.20267397171868073,-0.6729088909292876,-0.40618405197898,-0.5850661021899517,-0.5723239427430177,undefined,1498539633707
903d185fccf839df,-0.4172716042475664,-0.38555895155749215,1.6092977212231812,1.4800534571416186,-0.16310149033621094,-1.5471167004314488,1.9002260561626587,-0.03285673444181456,-0.7145353215147406,0.40079113517273074,-0.3025573288518604,-0.008174513516604616,-0.865286597593583,-0.2669790171549131,-1.0433904991614016,-0.12411401989517885,-0.5917583443745023,-0.40886359965669783,-1.0111672281881272,-0.1338891126926269,-0.605269449802431,-0.3940054860843818,-0.6000136589241004,-0.5733335307502383,undefined,1498539635209
903d185fccf839df,-0.5614171252836435,-0.4084525949402109,1.8204791727702907,1.8066458351460122,-0.13590610402963077,-1.620704355180324,1.8433933216574778,-0.47440346540610756,-0.713620553189437,0.3455568017865242,-0.2920180716296772,-0.022649723772788087,-0.7564895276292335,-0.13551057622098273,-1.0602326139042029,0.12644134583983319,-0.5217251900533553,-0.29457296403115524,-1.0031628765452085,0.01536801874898217,-0.5158004337084712,-0.4003552827581629,-0.6191914561954609,-0.5876176347683185,undefined,1498539636745
903d185fccf839df,0.038727184930332954,-0.409626566480469,2.7647361903787075,2.68735512466703,0.2461355437849139,-1.671411893858245,1.8948007799973319,-0.09777751969375251,-0.5408598493646944,0.5592936233784823,0.0925115181327645,-0.042927986561718465,-0.9566761363636364,-0.14106559079977696,-1.0286536298957267,0.12644137410455472,-0.46434519005117225,-0.21904627948416502,-0.9754904892465653,-0.0019244351506397884,-0.4723526388149903,-0.42557941336652527,-0.6596920432936072,-0.5747867984532136,undefined,1498539638223
903d185fccf839df,0.0775356262911935,-0.2370439816648271,2.36853109521474,2.3237007595913677,0.2669640773810557,-1.5095996446370774,1.8188730142595293,-0.308727757737819,-0.5907955119770417,1.2981257035793572,0.45193908706301816,-0.04307263831386933,-0.9958430815508021,-0.16235975939026095,-1.0076009616196862,0.12240012661640119,-0.5304906480395484,-0.1711185610692628,-0.9689554679366853,0.0664754612584028,-0.43685922541476124,-0.42337902425763185,-0.7048598225421079,-0.5952267451499053,undefined,1498539639713
903d185fccf839df,0.0040766454424807416,-0.3245093332968832,1.630351950935112,1.786602547237572,0.011035349894292876,-1.3571439504444813,1.7116663388895554,-0.8352272500100952,-0.4627350229887911,1.1734014377170696,0.2611301864301973,-0.033325690072083095,-0.8043602384135473,-0.15958227152702564,-1.036022047963538,0.10219412942576654,-0.52147093455815,-0.21144041414976386,-0.9915061892515236,0.09309937378505247,-0.46840187676345363,-0.4140242883897334,-0.6373585321517639,-0.5524437073360053,undefined,1498539641212
903d185fccf839df,-0.16363110166326422,-0.3567951581935595,1.1237708583084218,0.9971352335267276,-0.0504525479899295,-1.2920719925256021,1.6692028562711057,-1.0238863969753693,-0.43616018411703417,0.2679492701524706,0.108700894724948,0.037998257764403603,-0.6825075200534759,-0.14291725369219202,-1.0339167877619444,-0.08370187005794111,-0.5019397554853977,-0.32711162959236495,-1.0121677715440198,-0.059052668039071325,-0.5621153501835737,-0.39155021470005946,-0.5607908299638624,-0.5309624107027313,undefined,1498539642694
903d185fccf839df,0.2674195861683905,-0.29750664338329935,1.239250942263364,1.325472506175279,0.07566037855547189,-1.390235450761788,1.6838035439566603,-1.072899814067981,-0.5085003739371305,0.0037138692202996937,-0.09570093812334392,0.030578270010103676,-0.517135973707665,-0.21050309819924862,-1.0254957175066348,-0.17058801976610577,-0.5375951302440021,-0.3769582288065005,-1.0037506077535243,-0.10798892812508848,-0.5907669373948513,-0.3363362164342458,-0.6039847741602209,-0.5370975386916794,undefined,1498539644201
903d185fccf839df,0.20366276741800748,-0.10203035672895397,1.239250942263364,1.3215021467203125,-0.018237743088983217,-1.4024220314876243,1.7088945218487857,-0.8872262818334955,-0.700941260389353,0.1676073926752759,-0.06516159928128247,0.08576489428755522,-0.7477857620320856,-0.34289733820245016,-0.9960219863375185,-0.2615153604329809,-0.6229208774702546,-0.3836711483183294,-0.9800943904363952,-0.2109275365527801,-0.6108543534939643,-0.2678434375252773,-0.6430512905741821,-0.5789425654969517,undefined,1498539645701
903d185fccf839df,0.49749800070466377,-0.17716845185644559,2.3493907708689163,2.2135496372162007,0.49262197822032777,-1.4823195961796531,1.7279211703349389,-0.679017874716953,-0.9179511353439306,1.351657933081465,0.02151282731806718,0.012727517050839457,-0.9044535427807487,-0.36882069640090814,-0.8791797653841877,-0.10188736362956552,-0.6137832836641494,-0.43215616389991246,-0.8984136204211093,-0.09309863582109154,-0.5912508182975225,-0.2653282767904271,-0.5930663507280602,-0.4525771847714176,undefined,1498539647210
903d185fccf839df,1.021411579516774,-0.12668516201800625,2.2690014086164583,2.094273909789715,0.41794782608322395,-1.5224617058478196,1.7545690023527605,-0.6273979108084213,-0.8644144758512672,2.03846986918661,0.1890253167413467,-0.011750405021075811,-0.9566761363636364,-0.26975649206737384,-0.765495383197611,0.12644135997219397,-0.589492645487443,-0.3106713065490322,-0.8548444788962944,0.15698751558160098,-0.4758327997092268,-0.2806378596995034,-0.6947863631631522,-0.5032444985464198,undefined,1498539648713
903d185fccf839df,0.8980562579539331,-0.13959943352069212,2.4789070926774626,2.6175785066240125,0.4000918579449428,-1.5819551319072067,1.7641467549475331,-0.7599409879177901,-0.3494215770091802,1.9886327943657127,0.4365880536826934,-0.03145697640072522,-1.017602495543672,-0.33363903669114947,-0.7833901758957286,0.30829606957066574,-0.7239976905051465,-0.26515010684780893,-0.8051181439039938,0.5085648246363653,-0.37826580823997935,-0.3526334971858659,-0.837370268822697,-0.517609845404254,undefined,1498539650198
903d185fccf839df,0.8107374201663406,-0.0063469120351678145,2.3819297034622404,2.3876803895307908,0.4447112093492078,-1.4294784729873828,1.7954861458692812,-0.20653442459234483,-0.3808700454551784,0.41064148442465587,0.6762797478644876,0.012650740098869129,-1.035010026737968,-0.3753015489012972,-0.7781270180295107,0.32850212329074346,-0.7190900954204037,-0.3607332251671892,-0.7919291566615719,0.5281516493980112,-0.4185614968178994,-0.43769172037587123,-0.7217577270472613,-0.4528409197128025,undefined,1498539651724
903d185fccf839df,0.6388713571226705,-0.13549038698982707,2.61671768210434,2.642569065179457,0.45911117068728274,-1.3311449809619438,1.8050901985937342,0.09628901894503794,-0.356240669592798,0.6286512909508812,0.8232236911888277,-0.08524844150148012,-0.847879066399287,-0.2188356135920527,-0.7760217357412157,0.490150750904416,-0.7024290938213952,-0.2486844524339433,-0.7897111677971771,0.6468582683186045,-0.3378427027815061,-0.4594694828517602,-0.796666339272504,-0.4055569498834476,undefined,1498539653222
903d185fccf839df,0.4586894903329838,-0.1278590751022797,2.8240715770561837,2.6677680539460704,0.5241579128130094,-1.2093630357438045,1.7304194825778805,0.04806076935199701,-0.30861222501761554,0.3992085181987362,0.9184316190955013,-0.021480741144360934,-0.499728442513369,-0.26605319218409285,-0.7770743658420125,0.5164186546581829,-0.7361903875383017,-0.25703760567040645,-0.7688956560813538,0.6052516742018984,-0.33832275172796933,-0.49717891873236203,-0.7723478396948207,-0.49155157540290395,undefined,1498539654715
903d185fccf839df,0.641643383719102,-0.11553176014173056,2.7277315633101153,2.817352423042798,0.751420399354701,-1.222341557845392,1.6986303902881206,-0.13613435542071783,-0.3973213671564615,1.6985430457233608,1.0900087838106844,-0.06584190785181925,-0.7390819964349377,-0.2355006184761118,-0.770758570512764,0.4012439562536334,-0.7363558878632569,-0.24137623489317636,-0.753607624884701,0.5555146951007597,-0.33457638644390475,-0.525502180472049,-0.7733196926204746,-0.4580940836641639,undefined,1498539656200
903d185fccf839df,0.8440017393235186,-0.3826238181109005,2.6939171173676355,2.7854880489149694,0.7069347648346712,-1.332533209317087,1.7569042576151404,-0.051781620285944754,-0.3856488845676786,1.3808516906011414,0.8306384565069098,-0.02801137964465579,-0.8565828319964349,-0.16421143523345055,-0.6739163435612742,0.29617236950328746,-0.7008672340764832,-0.17831278255098706,-0.7424407153433473,0.4988638151250726,-0.31250332765021216,-0.4943735963730021,-0.7134826147279095,-0.5108164397683743,undefined,1498539657706
903d185fccf839df,0.7649988433035818,-0.1759944218602028,2.2511371058936898,2.4715513134402047,0.46441859520039375,-1.6210863511477676,1.7802595631262155,-0.6737255488081196,-0.35139464699862655,1.2989608497075904,0.5187861314544678,0.010016309062409717,-0.9218610739750446,-0.1836539668330686,-0.7486532868603943,0.46388287541537065,-0.5973391455648344,-0.04991868396366216,-0.7481711020750071,0.7765285808546722,-0.214307971231276,-0.5127093922145094,-0.5804103632990599,-0.5609964759775281,undefined,1498539659202
903d185fccf839df,1.057447856259564,-0.30161571914215674,2.671586357758751,2.5638376818534097,0.6725908136029278,-1.6861652956213815,1.8603292601534447,-0.10102509237829174,-0.5639636032796229,0.5756597357585945,0.09147867831945362,-0.020004690559124665,-0.9088054255793226,-0.18828311758871893,-0.7802322635066368,0.7002940091992726,-0.5261215655665679,-0.03714513629506586,-0.7702390439348366,0.8958049362929752,-0.18948562777508735,-0.5156717940502329,-0.6170929581576833,-0.5943851631205476,undefined,1498539660704
903d185fccf839df,0.7137162822587796,-0.08618106869164585,2.04761152994796,1.9642566466580123,0.10220777356461205,-1.4781362809578813,1.7807618516595654,-0.33606248098837294,-1.1692565620659114,0.2923140052809187,-0.06903000611895913,-0.049652144960810725,-0.9436204879679144,-0.08551556156880545,-0.8212849625956871,0.5063156843275871,-0.49387071619850625,-0.14344359621353328,-0.8365128358491438,0.7964849613335527,-0.2807422947220625,-0.41482653119173224,-0.507681308976785,-0.5586841521103856,undefined,1498539662217
903d185fccf839df,0.22583911821109845,-0.2769611184490508,1.6845827428464701,1.4964726984360415,-0.2418487913338909,-1.2401648992162546,1.7307587204157993,-0.2694056368956194,-0.9830745845899367,-0.3531787525708772,-0.07534758818985526,0.032205414101962135,-0.8957497771836007,-0.10218056645286454,-0.9276008751788157,0.5851193955888877,-0.35130770595581673,-0.25986209976858987,-0.9005336555970713,0.7657034703942047,-0.3599320918150019,-0.36167175061689066,-0.42955200590172216,-0.5054105266087409,undefined,1498539663697
903d185fccf839df,0.02486705194817543,-0.23410890667422016,1.725415688921176,1.5482170101527177,-0.4121079298724786,-1.2749986726077096,1.7156057870969015,-0.5872266155521725,-0.770773074036894,-0.39253826512443124,0.020439055361653854,0.01923689878671624,-0.843527183600713,-0.15310145787896023,-0.9549693240596371,0.5709751353730561,-0.3768851388435919,-0.2816474270375646,-0.9328029476233402,0.768906343344897,-0.37966375575769046,-0.38311003080897754,-0.40327526555752574,-0.4910152632681763,undefined,1498539665199
903d185fccf839df,-0.013941389412685102,-0.36149139509049993,2.0380412407065736,1.9682810104221504,-0.2982452717027274,-1.327963242008797,1.7601573347130082,-0.3469954563284508,-0.6956310041446866,-0.17512040006226337,0.11290564178510948,-0.10493986228929399,-0.7086188168449198,-0.3178998567779106,-0.9033903386870862,0.45580038043906357,-0.6377744439894645,-0.38265154412050933,-0.9151150092805548,0.5894066684258212,-0.4502442565317603,-0.38236465072170733,-0.6201100106295644,-0.569894171269743,undefined,1498539666704
903d185fccf839df,-0.0943302297200182,-0.2887013014995092,2.166919678772067,1.8711921985110145,-0.11893471433887244,-1.278068609230898,1.8178789553591626,0.15727211551298298,-0.6025461665979143,-0.43690584267775706,0.24386701908007427,-0.06987316946244257,-0.42574643493761144,-0.372524086939611,-0.8739166001557361,0.1850390175134169,-0.694894014125265,-0.46796896050629727,-0.8747224197714102,0.4999571006457545,-0.5036884457898665,-0.391835621447694,-0.6191599161525784,-0.5517620609174987,undefined,1498539668234
903d185fccf839df,0.27296370837207296,-0.17188519996138374,1.8377058458869557,1.8233733510957635,-0.06414280538073307,-1.2169167620831232,1.6848896601197985,-0.49050671340743135,-0.7499865982698544,-0.8802900621229742,0.4187115811618478,-0.05855269400495171,-0.8174158868092692,-0.3790048746861273,-0.8381270736573713,0.43155314989263616,-0.773183264025289,-0.41096613378508234,-0.8410537656309764,0.7505206038572817,-0.4249793540080867,-0.4190139621190001,-0.6199379430167901,-0.5619586953317574,undefined,1498539669715
903d185fccf839df,0.5765008967246006,-0.10379157709127215,2.0941864462579383,1.944420300357706,0.06364670377958455,-1.2187382258440542,1.6712777806316184,-0.5645353382621748,-0.6507669044879364,-0.004714573557044707,0.568280777382227,-0.002924773283817808,-0.9349167223707665,-0.40770573369859514,-0.7486532868603943,0.35072882195343913,-0.873526953278631,-0.3744947115234753,-0.791257462230173,0.7458702705054183,-0.39104329033689633,-0.4537930017484306,-0.6567259138902417,-0.6347478863150318,undefined,1498539671205
903d185fccf839df,0.28127965013972855,-0.011042856652184884,1.7573162294975484,1.9406461501953154,-0.02021258988253607,-1.2050586039995705,1.6226263615592744,-0.8929480951285443,-0.5000996656715899,0.19277423571968147,0.5958545304713603,-0.04670428537002439,-0.8870460115864528,-0.4234448747595103,-0.7581269651297995,0.3567907567812929,-0.8258468627591851,-0.4471019115875907,-0.7838198517727832,0.73931053152023,-0.4260829890754508,-0.4388129237720803,-0.6085771816801343,-0.5686603717789276,undefined,1498539672704
903d185fccf839df,0.08862366366610004,-0.26756876156713927,1.9608418054432781,1.9720654515046563,-0.2163299780537296,-1.2296344051229893,1.712131804151164,-0.4716479466868373,-0.5412973984995395,0.5647253154476339,0.3411603927082359,-0.03890641343278731,-0.5824142156862745,-0.429925766112223,-0.7812849009696673,0.11835894979005149,-0.7907519787437456,-0.48332634940012614,-0.8108415357761195,0.4982632637308248,-0.49443973364470933,-0.42555532455032286,-0.583583229187865,-0.49408947550495863,undefined,1498539674209
903d185fccf839df,-0.07076800365035041,-0.3162912402351531,1.7815606403355913,1.885289643488415,-0.24924421152159598,-1.1987952763237597,1.7797257022859974,-0.039740459406321926,-0.502271028613986,0.42390375347566533,0.2968027812304251,-0.02051698843429008,-0.7042669340463459,-0.48917913407879915,-0.7465480192965669,0.13654441509695436,-0.8668177673321306,-0.5196141170979053,-0.8270531475010567,0.4462935091514624,-0.5248770787849796,-0.40591456121308017,-0.5708708609560086,-0.4656283626493983,undefined,1498539675706
903d185fccf839df,0.17732865277354712,-0.41843184990827453,1.8479137647344455,1.9972447005072878,-0.17608205048548967,-1.1990351877298902,1.7035375964805117,-0.43086539434307053,-0.509722519383974,0.8529869264190686,0.33272967797459146,0.006205702926159228,-0.8913978943850268,-0.5308416592397214,-0.6718110759974468,0.3648730256398277,-0.8640687750047767,-0.5108366567125701,-0.7476393442893361,0.5838478187825524,-0.469110810130064,-0.38277613791307497,-0.6084878040685792,-0.2864146259576699,undefined,1498539677200
903d185fccf839df,0.5959050828996212,-0.24056607165355542,1.7132936105706293,1.9558646545751186,-0.05718967637529938,-1.183389687229886,1.7269928423796195,-0.16078475887490062,-0.541511163672618,0.2842877909024338,0.32833947991064694,0.10633256354483213,-0.8739903631907309,-0.6169442233263503,-0.6686531709705887,0.9003341841046473,-0.5519858110784179,-0.5218179799418347,-0.6984937446242678,1.2210047045422665,-0.32284167857244894,-0.38438527373662407,-0.7013494659797136,0.02718643869551256,undefined,1498539678720
903d185fccf839df,0.25217330186637826,-0.23469592167234155,1.7649726133728272,1.996221440723729,-0.21049799542889633,-1.2165487395132741,1.7563362208526343,-0.14098872227916193,-0.5532257858574562,0.1195100498696133,0.35449620668421,-0.04042968155934551,-0.7173225824420678,-0.5873175134415132,-0.6433899896535948,0.8680043737877482,-0.6177841285546103,-0.5002163072256142,-0.6874037997089387,1.2704183169082992,-0.2987004134454211,-0.37711094584108323,-0.7611952548634964,-0.0939128776086868,undefined,1498539680198
903d185fccf839df,0.085851706080488,-0.1507526600290138,1.6820306996003604,1.879399825424071,-0.22914596146893915,-1.2107279708016228,1.7866447314354377,0.0009614657963926364,-0.6407263263829573,-0.07970734520054436,0.49778067589283465,0.014922592009939976,-0.5911179812834225,-0.6132408457384221,-0.6486531254331114,1.0054057991197147,-0.638562061799771,-0.4935097211280793,-0.6724726053592802,1.4804377166253313,-0.2521766986666855,-0.3980301736916103,-0.7603215991261498,-0.18544857837802747,undefined,1498539681696
903d185fccf839df,0.3242462004060558,-0.21297648365381958,2.0182627784807483,2.175935679276084,-0.0731942199348878,-1.234889172734371,1.7657403990861535,-0.13104512602245588,-0.45734769292713134,0.15151595049699823,0.5923850999855421,-0.13757423599363972,-0.5563029188948306,-0.5863916755199183,-0.6328636665589252,1.0256117963103495,-0.6017551663557419,-0.43859043509692924,-0.6604730737392831,1.5203658881042303,-0.21921603372177906,-0.3821232388507097,-0.8011227433655511,-0.22733017765971764,undefined,1498539683210
903d185fccf839df,0.5612546814334078,-0.26815577656526063,1.8619500025880493,2.059371188391198,0.02077590875270281,-1.2374373574967543,1.66771964188,-0.6709601683879131,-0.48940803612851774,0.5830821556050196,0.4056104312983921,-0.167252426836772,-0.11676275623885918,-0.5336191082506331,-0.7065479650327811,0.8659839549629025,-0.6497513457667252,-0.4551257513597263,-0.7277684011977099,1.2598549889190052,-0.3009418018860878,-0.40844184867754946,-0.7496763875323822,-0.25909414762290833,undefined,1498539684727
903d185fccf839df,0.15653845330031085,-0.2523063716159832,1.9480818433496785,2.15033001326557,-0.04906397459061661,-1.1842165713350186,1.5809176451051528,-1.1025341069675585,-0.2880720570520362,0.8942652539509203,0.4985856409151162,-0.13770336259841234,0.061664438502673814,-0.4956599606776391,-0.7223374680803698,0.5527896418014318,-0.7111833382026737,-0.3628420974437172,-0.750885864915372,0.964158638146493,-0.3494251944908508,-0.3415129855324388,-0.4962599886580913,-0.5880178502299535,undefined,1498539686217
903d185fccf839df,0.41988104897212325,-0.3063118683551202,2.1643676355259576,2.3246144704744003,0.027379325039083722,-1.0866191177517355,1.5221914460828965,-1.1265780067618971,-0.30392319274895097,0.3606658137846013,0.7787842298352731,-0.17279628179883955,-0.5998217468805704,-0.4789949298920309,-0.6486531548820464,0.6214903262026935,-0.7057933897081591,-0.35206976169907994,-0.7169023540224544,1.0536851997154189,-0.31919447426561526,-0.3397068073267552,-0.40859266439349484,-0.5394209864677512,undefined,1498539687707
903d185fccf839df,0.026252996235571716,-0.2922235084002069,2.2983496518097715,2.484614753367875,-0.03827427518242574,-1.0601007304582983,1.574529840445456,-0.7285212972233412,-0.42554773127788714,0.04818399035823519,0.9800905906407777,0.016598173802274303,-0.8739903631907309,-0.4743658050379297,-0.62970580570547,0.7730358704268842,-0.6713184265779987,-0.30766316052247406,-0.7066100453268522,1.0767058746210196,-0.2935869219729226,-0.34047823789779613,-0.38317659597033155,-0.519382177459478,undefined,1498539689203
903d185fccf839df,1.0006211730110792,-0.23763087975097913,2.357685038487248,2.412588848379628,0.34056851584185016,-1.147337729261773,1.5890200724573307,-0.7710276261872218,-0.3626838519489021,0.921256507623911,0.8043909522586395,0.00546374753967713,-0.6476924576648841,-0.47251412919474006,-0.6423373301038628,0.8013244473879905,-0.6623462007450159,-0.30654222824028915,-0.7087440723139175,1.0920273295228633,-0.292540803906612,-0.37414944872438627,-0.3196726411419645,-0.4688320184722535,undefined,1498539690705
903d185fccf839df,0.9299344948020759,-0.21180233674560744,2.1318289570695828,2.349261120434384,0.24534352995900494,-1.1592564472741471,1.6654685382334136,-0.39496461604691335,-0.36416344361722863,1.065420208520224,0.781528299157488,0.11019241383054254,-0.7564895276292335,-0.4169640611114449,-0.6444426197543917,0.9084166508162328,-0.6619474446272238,-0.3115325881736641,-0.7064421203365467,1.1787821738462412,-0.27634426871739537,-0.38210788394376927,-0.3067365421483738,-0.4734590588244372,undefined,1498539692199
903d185fccf839df,0.36582659935252837,-0.21943341480921613,2.2256164192956427,2.150223099907758,0.1733025012678432,-1.2630846152727615,1.8185442846364865,0.2685691249867372,-0.2924014248628724,0.45705610928441776,0.3488928921181129,0.04044925635254167,-0.8783422459893049,-0.3919665537853563,-0.7391795644175865,0.9851997453996371,-0.46674157817447665,-0.26388351832272383,-0.7518234351199052,1.2342319702037619,-0.2578241256806866,-0.4196904606074765,-0.2697247454433287,-0.4765673490596273,undefined,1498539693708
903d185fccf839df,0.11772987391781137,-0.42019289490263867,2.1650055192690103,2.250622484358997,0.11957002064306677,-1.3652101063234474,1.777582423200224,-0.21837513764109628,-0.3738497576464977,0.22261279762972258,0.0654995035083002,0.01366720981143694,-0.7434338792335116,-0.30123482599230245,-0.7718112079757946,0.7972831575027546,-0.47587183822496715,-0.26597972142865406,-0.7596458715273828,1.1476157144607018,-0.2709954733314249,-0.42155447515749883,-0.35386653879640706,-0.5026805918984331,undefined,1498539695204
903d185fccf839df,0.08169373519666022,-0.3914291599946907,2.235186708537029,2.1414785687177216,-0.026456017633399782,-1.3399588211488995,1.7401997318725175,-0.381730706197812,-0.5695620540199108,0.08604535317902987,0.0020730588278252983,0.06487082017684725,-0.8217677696078431,-0.23457479350529153,-0.7886533043130113,0.710397064324033,-0.5255071759335511,-0.2654667528966619,-0.760765360949564,1.0651108468019803,-0.28899082698177475,-0.4263835865320728,-0.2974041028190535,-0.5122013479740286,undefined,1498539696724
903d185fccf839df,0.3602824771488459,-0.32333542021260975,2.0635619273046206,2.031781018294164,-0.05003083437334237,-1.2014529409251644,1.570863894155253,-1.1091196165339066,-0.5261091766016327,0.2425162104840227,0.35596371367632035,-0.09390147905214163,-0.8304715352049912,-0.25957228788060566,-0.7233900908189328,0.6901909540745123,-0.5594276086705603,-0.25359881673313617,-0.7233254251899488,1.080848054911367,-0.2733301367031313,-0.4212151675067427,-0.29829406255686836,-0.4978407973680244,undefined,1498539698202
903d185fccf839df,0.08169373519666022,-0.39084214499656933,1.9321314459930177,1.7958824812243708,-0.06429709093433585,-1.0990921969422527,1.559513655859146,-1.0077436411771954,-0.30177450072930345,0.5908042236948897,0.7112670826360884,-0.03160716954364264,-0.9001016599821747,-0.2956797984627337,-0.6444426344788592,0.7245412962751431,-0.6181019727084209,-0.22225707865643315,-0.7144394756029001,1.0200087946779588,-0.2685188609912348,-0.39767376773483903,-0.36480897408913227,-0.4734008027341289,undefined,1498539699747
903d185fccf839df,0.45314550615094024,-0.38614590809962884,2.083340135393497,2.151732124374472,0.07498153564234289,-1.0936254754947088,1.5288185610246217,-1.1096095420027416,-0.26802769536674986,0.5653546745307961,0.7601465814479904,-0.0019038725034658268,-0.8348234180035651,-0.3947440545993661,-0.6054951955914025,0.7063558874976833,-0.6812378327723999,-0.27314861483416153,-0.6695549337250257,0.9892735006231154,-0.2833705557080375,-0.36560700412343555,-0.4607418280039915,-0.46474921973612204,undefined,1498539701212
903d185fccf839df,0.38245882794193686,-0.358556320099893,2.1496932597923513,2.224726639603583,0.0028993717089929377,-1.1257177316869598,1.687677248648698,-0.28251005082863023,-0.3069995362179238,0.6444671638841196,0.7806465499257137,-0.021681376532415128,-0.7738970588235294,-0.5197316689344565,-0.6170741782358041,0.613407859491108,-0.7172337188735892,-0.32945481698126683,-0.6800991276733589,0.9641278422114243,-0.32155528572387315,-0.39160094775767645,-0.4593191713368397,-0.48221953426594233,undefined,1498539702735
903d185fccf839df,0.4365134155831707,-0.33155351327433985,2.022091097486862,1.9773591460705138,-0.023987434848131203,-1.1486584087015144,1.7167681586565504,-0.14578555380114042,-0.3689370345396956,0.6600142916589107,0.5512924602241434,0.015236011845576582,-0.843527183600713,-0.5873175134415132,-0.6202320906248959,0.7225206513325252,-0.7429777883472192,-0.3167509321083719,-0.7183716839884694,0.9683778128045794,-0.3260741712605546,-0.371753954743644,-0.45976224301375285,-0.44296396501729013,undefined,1498539704203
903d185fccf839df,0.5972910961978369,-0.3468159032254959,2.0546295218062873,1.8682029635387007,-0.0007109035963753078,-1.1997549244997272,1.7758414878078013,0.10715440071022128,-0.5205007087548189,0.8818854499795885,0.4506530750390003,0.003202422123257839,-0.9088054255793226,-0.5919466900987126,-0.583389978199137,0.5871399840020626,-0.7575218008468753,-0.3354711148478824,-0.7087720600957256,0.8243715519063447,-0.3479694714324992,-0.40994916110282825,-0.5196477411213466,-0.5037810809584685,undefined,1498539705698
903d185fccf839df,0.6929259447639043,-0.24819726662913347,1.8447235836083336,2.0714254249287825,0.03557703309069998,-1.246027591496642,1.7389295281575214,-0.29196125765809705,-0.39148132817605774,1.147404342281639,0.3246523041357032,0.01480757269283585,-0.8391753008021391,-0.5058441389628583,-0.693916374374284,0.35679064372240676,-0.759194402469816,-0.36184782493755663,-0.7946509175056405,0.7791155217089948,-0.39296711152681774,-0.39481908618102335,-0.4901276734200315,-0.5341842651423107,undefined,1498539707213
903d185fccf839df,0.7677707318783744,-0.3609042631804092,2.4042599547972263,2.4136283351604155,0.13540999892356956,-1.3076196646604314,1.7124184558712667,-0.6013137796023862,-0.20530968914212966,1.195729998063753,0.5393163220036791,-0.057259894103837916,-0.8913978943850268,-0.4354807159371445,-0.7191795851402132,0.3305228247628045,-0.7135253814055518,-0.3473707133545655,-0.7992478229611966,0.7692759150688177,-0.38135820391205355,-0.46202284923477827,-0.5464924051539791,-0.5626167038162676,undefined,1498539708709
903d185fccf839df,0.5127440779742176,-0.45482677979180053,2.56184875231298,2.6589514428590126,0.19982932847984342,-1.2989479092227947,1.6692449273651542,-0.7515878125558211,-0.26346982023036924,0.9945171882108996,0.577195154248784,-0.033699799507692536,-0.8957497771836007,-0.309567328434332,-0.7465480340210345,0.49621257267338365,-0.6651282096631885,-0.2899689106058617,-0.8103797482034842,0.8131152883254962,-0.349328666294597,-0.4557984344923825,-0.5103990043365633,-0.5451876782386035,undefined,1498539710207
903d185fccf839df,0.7857891117876377,-0.39729930997590457,2.4750787736713487,2.643052713677866,0.1684373886644027,-1.29109371340412,1.6664441903426974,-0.7895718813485191,-0.20017584168202543,1.0377226237130353,0.5953753673647367,0.057417569226911734,-0.8609347147950089,-0.32530646949524716,-0.7907586160502414,0.562892583867306,-0.641211674936089,-0.34772535715406955,-0.8458675724806262,0.6508926642295613,-0.415144079688569,-0.4367268874048099,-0.536025709446572,-0.4883215493353284,undefined,1498539711709
903d185fccf839df,0.6541177104355022,-0.3139430633306982,2.1930779949762176,2.3237092309265974,0.20263733369993123,-1.3120289177503017,1.6605113484911034,-0.9139137473896701,-0.28169992635408425,1.4417920263713366,0.46634536880894756,-0.014452520926722775,-0.6825075200534759,-0.29938317605066195,-0.8107586174143161,0.5770369288773022,-0.6158365279205475,-0.36383003244398743,-0.8241704623190738,0.7004910551542515,-0.4082630831846063,-0.43204595914540794,-0.5087840884191523,-0.5190990257170379,undefined,1498539713208
903d185fccf839df,1.0144813059932367,-0.3380106782536751,2.0042265406271444,1.9453617670797034,0.41816382176200056,-1.338190934109467,1.733864529305344,-0.47156564456698274,-0.2011358549854911,1.777749139531153,0.3445771357118317,-0.02298101237035798,-0.6825075200534759,-0.3577106672433197,-0.8286533953879661,0.48206839725171663,-0.6183815876697114,-0.3832025077898461,-0.8055589457051997,0.7412969351426545,-0.4089067989762815,-0.41765007250697017,-0.5298038391301484,-0.4856006595291564,undefined,1498539714708
903d185fccf839df,1.1059583216971154,-0.4043434899533612,1.8900227324322063,2.176543640497887,0.4566117599764953,-1.2986684046156343,1.605585219925783,-1.0795648259088477,-0.318304208262468,1.7460572831507761,0.4085346431871591,-0.015394870278059416,-0.6302849264705882,-0.4364065797602884,-0.7760217431034495,0.482068312457552,-0.7093546367588859,-0.41973092829967273,-0.7803074556488806,0.6269326778917632,-0.4410122380760124,-0.43031520091616127,-0.49957236141604433,-0.4973230566685871,undefined,1498539716205
903d185fccf839df,0.8190532239123572,-0.40786557994208955,1.9716881163077193,2.090517273644282,0.6239806260674667,-1.2892862275003754,1.6296426813903688,-0.8471219856315412,-0.2835116923449133,2.178897158756644,0.44345524421230886,-0.052713586260520556,-0.7826008244206774,-0.4938083107359986,-0.7707585778749978,0.39518216274938733,-0.794161012380323,-0.4885890264985153,-0.77213518077737,0.6044201525609405,-0.4714956335507801,-0.4169647893462314,-0.5490858579712368,-0.5526105367944106,undefined,1498539717752
903d185fccf839df,0.8731080185860495,-0.4354551679418254,2.210942297698986,2.4343329260825213,0.73984899888669,-1.3096857056078084,1.6947566742042832,-0.41791626041451757,-0.4053613919772147,2.445528592337013,0.40025663143989726,0.050385288794695955,-0.7390819964349377,-0.5086215879737699,-0.7307585088867443,0.3305227682333614,-0.7698598052471659,-0.5054853189452906,-0.7497733723652382,0.6847076444658035,-0.45249897699033953,-0.4060272083723318,-0.5927981474252785,-0.6306452438857086,undefined,1498539719213
903d185fccf839df,0.6901539871782923,-0.4084525949402109,2.424676046629155,2.486801606137362,0.5577304462633413,-1.377720452473905,1.724326217346455,-0.49498809243813274,-0.37390397167734235,2.3808082641921375,0.38608651341740396,0.07775032160049315,-0.40398702094474154,-0.41140903358187614,-0.7107585148849035,0.3305227682333614,-0.7811973644106701,-0.444271086998473,-0.7230035733026627,0.7901408020385423,-0.39950834679127095,-0.41918222147650963,-0.5234161245888097,-0.6224093748407701,undefined,1498539720703
903d185fccf839df,0.5695705541902439,-0.5205725764933653,2.243480722018411,2.2833534783252856,0.5625647199784081,-1.3718088444488954,1.6830303800361255,-0.6957510713890633,-0.48758590208664004,1.5609183454905382,0.12177193341138115,0.018338760227504643,-0.5867660984848485,-0.4530716234966711,-0.7191795851402132,0.31435794786907645,-0.772481478955521,-0.43241581738670176,-0.714537431597465,0.8111134850460173,-0.39051653014247695,-0.4261366775159279,-0.480637811723645,-0.5989509517617488,undefined,1498539722216
903d185fccf839df,0.27296370837207296,-0.5176375015027583,2.225616673432592,1.8913064533066175,0.3477582215626491,-1.3069651487287914,1.7228745748693974,-0.3887453246055178,-0.5299922793358272,0.5702374780661998,0.0959869499106938,-0.057090454530291955,-0.5867660984848485,-0.31419647918998234,-0.7318111610742425,0.46186214567858813,-0.7232825699541723,-0.38697694619136114,-0.7282371862235132,0.803568247127357,-0.37634052890887,-0.43910213230226036,-0.3813544697079463,-0.6344383080442983,undefined,1498539723702
903d185fccf839df,0.6083791335727434,-0.44132543483500863,1.624609472425941,1.823265187308664,0.27339263204253894,-1.24739485474764,1.6911932953558313,-0.5069469425006,-0.5675572393526818,1.0334986097905372,0.16168578149330792,-0.0012941531202111032,-0.5606548016934046,-0.2697564402642757,-0.7476006346728962,0.4335737948352541,-0.6485857222158524,-0.35828237917530464,-0.7634241478715232,0.7873998780490632,-0.38645963958314083,-0.4105020279858034,-0.32734604071490103,-0.5404259847755419,undefined,1498539725208
903d185fccf839df,0.4129509824810445,-0.3532731851168005,1.7196734645489544,1.8896976468865745,0.22847499498204332,-1.2605201163417787,1.7382668182084435,-0.3151665046758221,-0.3630041219803768,1.5168879823062784,0.3414114559548607,0.02480503511865877,-0.6955631684491979,-0.2901248356870376,-0.7633901377204849,0.2779869607258276,-0.6877822622493768,-0.38250588886313563,-0.7531458341801303,0.7303178409008396,-0.4083191416307722,-0.4119714130268128,-0.2911584633075059,-0.5299762314511345,undefined,1498539726717
903d185fccf839df,0.5889750164085423,-0.3092468264337578,1.6928770104648017,1.8467360131151656,0.23263041909023702,-1.2460695184576398,1.7694905066817266,-0.06930458086923129,-0.349266091639926,1.4674486770110438,0.36797837584360765,-0.02393060606300487,-0.7303782308377896,-0.37807904971530704,-0.823390208072813,0.3224402732570543,-0.6030548178161714,-0.41005419135168103,-0.7747170022780867,0.6626878658621365,-0.44305538146689405,-0.3964608656849201,-0.3164474478708915,-0.49155105286174117,undefined,1498539728216
903d185fccf839df,0.435127264263316,-0.24291413164604098,1.9697739568046622,1.9725764460701636,-0.04522740190326426,-1.188250813680282,1.7532724872472254,-0.07278711117451704,-0.19828374829768058,1.2929584211729719,0.4027514018731061,-0.14661379974100658,-0.3430606617647059,-0.3651173835668526,-0.8391797111204019,0.30425486447959454,-0.5968699702930321,-0.385336711536567,-0.809253261224145,0.5602266092298175,-0.4596115352305867,-0.39132796511302664,-0.38013530827356434,-0.49049604489082194,undefined,1498539729704
903d185fccf839df,0.2494014823024052,-0.3180522852295173,1.84919004049445,1.7663219068326521,-0.13907410901616177,-1.200339564134609,1.623559937598782,-0.9106546870284853,-0.3419501871804296,0.36573702786457346,0.3715935427673682,-0.0015151958969006913,-0.4300983177361854,-0.5262124696317474,-0.8644428924373958,0.1769566073312744,-0.7472835084269016,-0.48206609234596526,-0.8329094787431369,0.5411017399855295,-0.5133810039240759,-0.3906028125536647,-0.4935160194864464,-0.47480391907243935,undefined,1498539731207
903d185fccf839df,0.24247134680050694,-0.34329393014873694,1.7113794510675724,1.763144293428051,-0.08860219563091265,-1.1899441696407627,1.6620813364450522,-0.6362511172157518,-0.3621279454574686,0.1151910903694738,0.3414203448012369,-0.021026110873636907,-0.39528325534759357,-0.557690803556676,-0.8876007988283285,0.3244609464643938,-0.8082388435147279,-0.5222486184619708,-0.8392206015421937,0.5088727919702007,-0.5358423139209115,-0.40034643184067753,-0.544782982988247,-0.4707032860787512,undefined,1498539732726
903d185fccf839df,0.10941379412851686,-0.3632524400848641,1.4115138613757743,1.4061426325040676,-0.15586037170427636,-1.2975899597882896,1.6762112997858318,-0.8710845309906577,-0.416469655304007,0.0781604475111648,0.215960472799757,0.06448310947269352,-0.5345435049019608,-0.5576908553597743,-0.8760218309083946,0.31435780654546874,-0.8074321000393293,-0.5253770938622057,-0.869369858325213,0.4535153810619817,-0.5520331766336752,-0.3781910619926114,-0.5807532529985834,-0.46808642822957763,undefined,1498539734233
903d185fccf839df,0.2383133069058597,-0.4648061516718335,1.5193378155923871,1.42830056366581,-0.12769812756747884,-1.339921555541696,1.777038058858978,-0.39275406155425213,-0.17607671002754777,0.2726551418211104,0.17451314272090393,0.01640751320620811,-0.8826941287878788,-0.6354608652012754,-0.9170745520841462,0.1143176316400941,-0.881357678788264,-0.5678268160183104,-0.9040110695322942,0.3030109731429322,-0.6069058346963581,-0.4214969551792173,-0.6187675299774757,-0.500637591087017,undefined,1498539735711
903d185fccf839df,0.22306702260384748,-0.4219538229850335,1.567826637268473,1.515045661686154,-0.2902841389921184,-1.3138876495344256,1.8258761819307403,-0.117494322651794,-0.060409096007516365,0.41789983352099436,0.27622425399276757,-0.03746802793976824,-0.9262129567736186,-0.6965658831094921,-0.9286535126418464,0.12037945340906173,-0.9222416637561468,-0.6324481740609412,-0.8966924056244405,0.34383225066134443,-0.6200921966356597,-0.4232087872288662,-0.6815871520318496,-0.5671731009973529,undefined,1498539737204
903d185fccf839df,0.15238020637320518,-0.5270297414727005,2.0265567919621303,1.8660689454537478,-0.21992996675182225,-1.291757547443319,1.7945236194699552,-0.2145112781587251,-0.058557592141708685,0.023910813751481925,0.28828871829751596,-0.006258077208659314,-0.9610280191622104,-0.6567550596933085,-0.9181271969094106,0.3002136028590802,-0.8108467706694458,-0.5846471156490667,-0.861596402187506,0.3483901903384353,-0.5902550722991963,-0.37850055129629434,-0.6249317177019222,-0.5486767916424369,undefined,1498539738712
903d185fccf839df,0.1939607433413167,-0.4841775296978699,2.0731317082721086,2.123979194539626,0.04467987280718114,-1.263357133038874,1.6845056841973438,-0.6048863500067966,-0.041495228654780884,0.34538626628715374,0.24859872093626428,-0.05200286490283575,-0.9088054255793226,-0.6039825053747977,-0.8960218690836382,0.16685349567707095,-0.8567769399835957,-0.5825889099505142,-0.8651577783731992,0.40470230732792684,-0.5708583618207174,-0.3997769693726865,-0.6874320681307821,-0.6227681622475651,undefined,1498539740204
903d185fccf839df,0.14822223548937738,-0.3843848631052647,2.6199076090935027,2.6073861001564547,0.06084899032811664,-1.2925634620952529,1.68035059262974,-0.6474652581219364,-0.13206894100967836,0.6797225802225202,0.30516788939347583,0.13441731898229425,-0.5737104500891266,-0.5771333481070686,-0.8602323499475072,0.36689375537661023,-0.8078476308784408,-0.5406014928157389,-0.8405360017423266,0.5939800010288112,-0.5137187810087311,-0.3951447026234614,-0.6305813892853265,-0.6449836197054141,undefined,1498539741709
903d185fccf839df,0.7400506039356983,-0.39377721998717624,2.6096994361090635,2.745885828906625,0.18078021162705302,-1.2584214741373092,1.6807634796299458,-0.4975999449185517,-0.0491079431059779,1.0459358099380818,0.30264164590553605,0.19492172017194423,0.5186121323529412,-0.5512100158101597,-0.8107586100520823,0.41538821646946505,-0.8200074721887781,-0.5111343061561308,-0.7922580059714408,0.7076513283557804,-0.4626663738663419,-0.3715066336005924,-0.6122691920501003,-0.6161943534969143,undefined,1498539743198
903d185fccf839df,0.5806588676084284,-0.3456418732292531,2.458490492571635,2.416055118900184,0.06418154890268789,-1.2030880674500184,1.6645165423088015,-0.5821875291911768,-0.15932393390430616,1.0313561766441182,0.53370055719067,0.17292260643658017,0.3488887032085562,-0.4910308099219888,-0.7486532500492253,0.4901507791691376,-0.7758980429528636,-0.4664047243149214,-0.751725479492364,0.8994851652392809,-0.398205467718077,-0.3708703180274004,-0.5424492145926662,-0.5754041333325478,undefined,1498539744708
903d185fccf839df,0.669363787705056,-0.4970919765685098,2.3015398329358834,2.1906744469010118,0.29377887382224405,-1.1926810260755598,1.6788437283390931,-0.4077332023360923,-0.16459358937213495,0.8291268222761145,0.4722444206322359,0.16016824320084794,-0.8391753008021391,-0.49751162357005413,-0.7391795717798202,0.5002537777644549,-0.7811510236230569,-0.4870184562007622,-0.7653622643803728,0.8311314686495258,-0.4236249839270485,-0.38579223585060707,-0.5287171902465223,-0.547220020750069,undefined,1498539746197
903d185fccf839df,0.69708419169101,-0.5123542496076965,2.3174902302925444,2.217369998423448,0.2225092805670926,-1.1734345244348174,1.6663968564991565,-0.46314690042001855,-0.3421522614791712,0.9380405602632814,0.6070528747747472,0.006500620315683625,-0.9088054255793226,-0.4752916300087499,-0.7497059169611912,0.5123774213023902,-0.7058547738732144,-0.4642325237753927,-0.7556227044169049,0.8214458464907364,-0.4165732777717611,-0.40512914319769283,-0.5087550432079477,-0.5151967796678248,undefined,1498539747710
903d185fccf839df,0.5626405567099847,-0.5381829095250376,2.1841458436148335,2.4276208590290924,0.2405092487719925,-1.1624707951967075,1.7301696517725949,-0.06122359409385129,-0.3663891988754393,1.0703835571991132,0.6700176242486521,-0.001311999086854056,-0.7216744652406417,-0.5317674971613162,-0.741284861430349,0.6659435539397556,-0.6713639406290379,-0.44088929349679595,-0.74460972469037,0.9080313036735775,-0.3900652652381885,-0.42853720027247605,-0.45006470689111444,-0.5067716624598126,undefined,1498539749247
903d185fccf839df,0.6929261517963627,-0.5516843713937988,2.533776022468823,2.6140166212959732,0.27687947732501356,-1.174065748112905,1.6554489762998241,-0.47326897920058375,-0.4679185644336869,0.8846098805050003,0.6827203039906338,-0.033927450907555605,-0.7347301136363636,-0.5002891373348386,-0.7433901216319426,0.6517993785180886,-0.7029700049588822,-0.41948394367896447,-0.7377528509365513,0.8908774353656405,-0.3820095475158627,-0.4314785739007504,-0.44722670558739835,-0.5015956522886579,undefined,1498539750703
903d185fccf839df,0.4143371338008992,-0.5751650882306236,2.3162142086694892,2.371288964847732,0.23936754775968117,-1.1991516530567692,1.6305210477937275,-0.6913226501282812,-0.5206765981062035,0.5616310875275425,0.5771808497403962,0.03680007670126827,-0.7651932932263815,-0.4558490725075828,-0.7781270033050431,0.7124177092666509,-0.6827669729049418,-0.34618645374507656,-0.7334778008917087,1.0220259898198145,-0.3235318341622467,-0.4803637268275389,-0.4384889101959726,-0.5656585634693518,undefined,1498539752180
903d185fccf839df,0.7677708699000134,-0.6391497230258549,2.2709155681195154,2.3756416238187965,0.5236539297683205,-1.1289460554951356,1.5971619557653989,-0.5676344782750478,-0.30617348911143216,1.2965584743899872,0.5991919319344168,0.03339155759196177,-0.8739903631907309,-0.38548572718651636,-0.6886532165080662,0.6841291888349876,-0.6563816236790215,-0.36545760210283007,-0.6381532475626331,0.9145448424356085,-0.32523017711977525,-0.5326098447643565,-0.34029974341107994,-0.4615561048920152,undefined,1498539753679
903d185fccf839df,0.9340925346967232,-0.5957104962529028,2.3506667924919715,2.3664629420169767,0.5414893301974846,-1.0967955674512684,1.5729388164207225,-0.5994256443371512,-0.26100915098079064,1.3280541951498774,0.7139924108200401,-0.026034427630860616,-0.8304715352049912,-0.3771531988429377,-0.6602320933530452,0.6800878989497519,-0.6758866263108654,-0.3015645344711025,-0.608997536511061,0.9147912195147843,-0.2809175248743348,-0.539061588091109,-0.3864217754581016,-0.6249200876561376,undefined,1498539755202
903d185fccf839df,0.8010352580680109,-0.4424994648312514,2.13119107332653,2.1351883827426335,0.43081523129588384,-1.059686127208511,1.5617910701106312,-0.632302993044792,-0.30254155199668537,1.0108155583836647,0.7959167066162511,0.0757218100126393,-0.7826008244206774,-0.41233489740502,-0.6939164185476868,0.3931616591303771,-0.7705091209034944,-0.4103075104718698,-0.6409519723353811,0.6975653503848339,-0.38428318897720515,-0.5213905963994767,-0.42588720878149233,-0.5281706013717229,undefined,1498539756731
903d185fccf839df,0.4725496923259608,-0.2487843985392242,1.7975107835553026,1.823965936179304,0.039063889286016715,-1.2492698942637641,1.7347770771304794,-0.2270851221231904,-0.24760643621203635,0.4246520427140079,0.2817928640677894,0.03744907369821341,-0.8913978943850268,-0.5262124696317474,-0.7002321844280001,0.35072885021816064,-0.7864824799208436,-0.4145822466679029,-0.6417356150740473,0.5401162421425044,-0.41737363993757637,-0.4505738742370654,-0.4268671453319306,-0.5043246468911734,undefined,1498539758215
903d185fccf839df,0.04011306020690977,-0.33566261826118954,2.1713856273842844,2.0554012989977752,-0.24910019798346836,-1.4262408323763647,1.804077715356295,-0.35375627056353326,-0.27607242490813855,0.15786533574427833,0.23729778534277482,0.02645095555524526,-1.0045468471479502,-0.46881072570526267,-0.6749689589376034,0.42953244842057514,-0.7881201143890444,-0.3448058732193249,-0.6807288417716821,0.574485572163219,-0.3901822110521283,-0.4783183673638726,-0.4232661366442544,-0.5827182515348801,undefined,1498539759695
903d185fccf839df,-0.12759468689883519,-0.5182245165008798,2.3519428141150263,2.2548818890752322,-0.30007611817959623,-1.5354774962335431,1.7811037250623178,-0.8050819312205356,-0.3583824335841231,0.6218748568013599,0.11432280231452444,0.001768305113795006,-0.9871393159536542,-0.4993632864624692,-0.6802321462527565,0.35072885021816064,-0.8845729268478386,-0.3999974765428327,-0.7112839144541713,0.4951219844542191,-0.4412710851235625,-0.4745960497334937,-0.49174375869706166,-0.4781719680044298,undefined,1498539761263
903d185fccf839df,0.11772987391781137,-0.47654633472229185,2.5095318657677295,2.6614336688193347,-0.07195993289738771,-1.4323224791639513,1.745130606034201,-0.6838910970577929,-0.35029265466164844,0.37949559526569554,0.21690307755388022,0.0233239854190321,-0.9610280191622104,-0.3910407029129869,-0.7033900526436891,0.4416562615468396,-0.711374130119038,-0.362557112630688,-0.754685132444541,0.6743444925247891,-0.40101247670847223,-0.43807402435980003,-0.3804433893976853,-0.49262971239828995,undefined,1498539762709
903d185fccf839df,0.030410967119399505,-0.4941569015779029,2.5191019008721662,2.5005409476662495,-0.06523309087923088,-1.3384937339855232,1.6901361057213908,-0.8189737032272636,-0.3118428511661408,0.21891778527212133,0.39089913098453555,-0.0646103841502059,-0.9262129567736186,-0.41233496215889276,-0.653916327472732,0.6861497207187195,-0.727739600105886,-0.2725406509123321,-0.7338416330814851,0.9206888271631937,-0.31315241961410484,-0.43937382590632634,-0.3862993553924281,-0.4791279446051726,undefined,1498539764206
903d185fccf839df,0.3547384929668024,-0.4941567846659335,2.4342465900074908,2.416555584307394,-0.043777126340850896,-1.3485211083449906,1.831096344948643,0.0277318904262611,-0.3366460763285548,0.3104496309042608,0.5036529129066298,-0.02521361165868099,-0.9131573083778967,-0.3604881939588786,-0.6686531856950564,0.5871399840020626,-0.6987209395740894,-0.23728515432954758,-0.710367331385172,1.0565339142365642,-0.2629335652674009,-0.45331540559793915,-0.4249882826115873,-0.49261653761283364,undefined,1498539765724
903d185fccf839df,0.47670780123142753,-0.5381829095250376,2.486563222415792,2.4700100256243736,0.08905237126750874,-1.3473029169548154,1.8575206324111952,0.24863110319792156,-0.3719223076402541,0.20538359996188876,0.4447298487295964,0.011936346983524191,-0.7956564728163993,-0.3401198891915385,-0.6791795087897259,0.8033450358011653,-0.5897394189563487,-0.25290219382002604,-0.6775382965930381,1.2014486860547426,-0.23778984718557863,-0.3756968060660182,-0.314238755614914,-0.36850305219223184,undefined,1498539767213
903d185fccf839df,0.5834308942048599,-0.5440530595062514,2.5911972496432423,2.531098866370793,0.1629345336809812,-1.3516026916168415,1.779523223917765,-0.18857538885352967,-0.4235618599784654,0.041845885304558024,0.3713018026783809,-0.007320667736167997,-0.8957497771836007,-0.3428973123009011,-0.6497058217940123,0.7225206513325252,-0.6179194853604182,-0.228552026028244,-0.6419455190272069,1.2085011751461265,-0.21504665947383023,-0.40987011499181214,-0.3768811462949094,-0.4375409161759447,undefined,1498539768700
903d185fccf839df,-0.03888962878056864,-0.5886664331874156,2.524843871107439,2.4469183104355543,0.2057333235292133,-1.2774373821895424,1.6933523684514522,-0.5010145770883371,-0.4172980585342101,-0.25465507766129,0.39035400421852917,-0.06140389426520928,-0.9131573083778967,-0.3077156784926915,-0.6149688885852753,0.7467679949378387,-0.5874596415343806,-0.21546183059996482,-0.5856002002971611,1.2620723622227228,-0.18539446725316264,-0.40382939921185396,-0.3072472076354905,-0.41357450847254296,undefined,1498539770208
903d185fccf839df,0.14683636021280058,-0.5998196012397526,2.272829473485623,2.269874544060154,0.118387179405269,-1.1963495758997504,1.7194269025285576,-0.20341589381736735,-0.520909815405169,0.1544201104623629,0.5156558683919479,-0.06804521644473212,-0.7913045900178254,-0.33919406422071824,-0.5476004001651357,0.9306432364200423,-0.5686786592982143,-0.3119505592783257,-0.6004054521305612,1.1943807937791793,-0.23756704248125246,-0.41649830198597826,-0.23587290705636224,-0.40138545308777934,undefined,1498539771702
903d185fccf839df,0.2868236343217721,-0.5546193294724364,2.164367381389008,2.216052024092921,0.2093744569959758,-1.1978728991863286,1.7404443111891696,-0.08036200121257456,-0.44249828836473176,0.9648048600401539,0.474187698009807,0.060878352559475934,-0.8043602384135473,-0.38455991516647064,-0.5391793740832287,0.6315933247980108,-0.6676096077666025,-0.3812139649478981,-0.6169109287256089,1.0366391137406017,-0.2958554071471575,-0.42938405812124997,-0.3188409543621691,-0.4508061125331194,undefined,1498539773207
903d185fccf839df,0.8301415373305417,-0.5663598632588028,2.364065146602522,2.3981376651414896,0.41184840307619763,-1.1769819571847593,1.6789673301494061,-0.15559976438480813,-0.6157303739202256,1.1773879656088713,0.38722115785613015,0.05005994575196945,-0.6215811608734403,-0.4364065797602884,-0.5949688651344992,0.449738615199539,-0.6931249623097087,-0.35101215640646266,-0.615910384250294,0.9413381289905053,-0.3047069302710122,-0.43835416585325804,-0.34933948334467785,-0.42850187188483574,undefined,1498539774708
903d185fccf839df,0.5335344154690929,-0.5264427264745791,2.410639808775551,2.7052684515512038,0.3465959415922904,-1.1886957023452933,1.6283225279080324,-0.5630294452438623,-0.5771002166971057,1.6757368371686612,0.5310402229367293,-0.02124996079033133,-0.7738970588235294,-0.4447390951530925,-0.6097056939078884,0.5265217097829433,-0.7401194391970258,-0.3718602093842766,-0.6701216754488561,0.8135772301651476,-0.3522693303697739,-0.43179230185480916,-0.401101554342226,-0.4021830523503623,undefined,1498539776253
903d185fccf839df,0.3491943707631199,-0.3656003831653803,2.746871887655939,2.749346097238933,0.12050602834998356,-1.20726439719254,1.6537843046840859,-0.5355978672136454,-0.5778773580769669,0.8361734657735519,0.796266142926586,0.04276911987327963,-0.8783422459893049,-0.41788991198381426,-0.5854951795028603,0.43963550354533554,-0.7650083613927452,-0.3702263109453293,-0.6707513891189849,0.8244639270435171,-0.3474855957152784,-0.46238086898849096,-0.4686056734533869,-0.4607988231511133,undefined,1498539777698
903d185fccf839df,0.2244531049128827,-0.3791017281221722,2.580350684641852,2.4972120082347784,0.13239630017602913,-1.1939527940907384,1.669008250291035,-0.44224450930233455,-0.5151518669075508,0.5617901304697527,0.7664818452947663,-0.026015151531715505,-0.8957497771836007,-0.3993732312565656,-0.653916327472732,0.5548102302146065,-0.6520939040734233,-0.35571120409765034,-0.697906011226044,0.9805733715282305,-0.31719004266696843,-0.4350010586898256,-0.4731088615109303,-0.5569281202001408,undefined,1498539779220
903d185fccf839df,0.7248044576553251,-0.39729919306393524,2.4163817790108233,2.285665641018322,0.24903611087389865,-1.1889099905212976,1.582513926118009,-0.8472593617122856,-0.45162671532231957,0.5288953997704532,0.5822630214935455,0.0006361395203041465,-0.8174158868092692,-0.3901148779421667,-0.6791794940652582,0.6235109146158684,-0.6393906096563197,-0.39569740881570337,-0.6943796191069683,0.9943857774301073,-0.33270502902306004,-0.45279162560739056,-0.46115503830397475,-0.5041513849738436,undefined,1498539780698
903d185fccf839df,0.34087835998464483,-0.3485770651318294,2.1822316841117764,2.248535581019093,0.23429670585947157,-1.1029261265332282,1.6716880184492076,-0.026632541804911463,-0.46411551002941376,-0.2527912696190064,0.47564759881672186,-0.04262485327862515,-0.6302849264705882,-0.33363903669114947,-0.5812846222885041,0.9003341841046473,-0.5008004721868937,-0.391517666248848,-0.648424565201665,1.2600089645691175,-0.2646914358801347,-0.46318528331680253,-0.4316597405627573,-0.40741503919411054,undefined,1498539782204
903d185fccf839df,0.9327065904093268,-0.2816572384340219,2.8298135472914563,2.541669777375053,0.6910536440620922,-1.0505927782587838,1.5890621485271075,-0.10876781399507211,-0.20279614022138842,1.1073589024510486,0.788432734023504,-0.015124569738561982,-0.7216744652406417,-0.32530652129834536,-0.5697057132664405,1.0397561413203458,-0.5198322428326103,-0.39159366028847015,-0.545935278238334,1.2863095107645304,-0.22604330771098544,-0.47349342699340546,-0.36147118988111376,-0.4674606554000283,undefined,1498539783702
903d185fccf839df,1.0893263691509847,-0.26052446467771323,2.9242391473975182,2.914031916228609,1.0158656696255748,-1.0228468791481184,1.6684428490933623,0.5312612901404896,-0.3289594824243531,2.0492018145268305,1.07266025772441,-0.04142253652044621,-0.8696384803921569,-0.35493316642930983,-0.5549688476818823,0.9286226480068674,-0.5496922309012935,-0.35717411084264156,-0.49147210315726264,1.2743757186534517,-0.20402217863594369,-0.4621196256065242,-0.4012297603143842,-0.48269681800778536,undefined,1498539785216
903d185fccf839df,1.1225906883081627,-0.1930177398937537,2.815777055300903,2.8709887896304562,0.9874154339657826,-1.099383350401596,1.622321311690144,-0.07657894673954442,-0.4636987218142974,2.539970429083195,1.1656223411416604,-0.02985385679562305,-0.8565828319964349,-0.43733244358343226,-0.522337277746012,0.7326236499278426,-0.6164311351582403,-0.2830090074200943,-0.4942218503578641,1.316167098490764,-0.17622111399691343,-0.4783737328412678,-0.4700972626486471,-0.39784771791253554,undefined,1498539786709
903d185fccf839df,0.8398435614072325,-0.3761666531315653,2.3538569736180834,2.4827447097414588,0.8638122101998661,-1.1567478574524144,1.700515966704207,0.22281431892927925,-0.6149164425794451,1.1704454028997213,0.5953437903315368,-0.010801441916681174,-0.7782489416221035,-0.4252965894550236,-0.45602133844209747,0.7366648267541922,-0.6338354409669121,-0.3164532835506779,-0.4789478117552981,1.2065917590660495,-0.1927741573607262,-0.515567969606028,-0.4444587018565867,-0.5086716551990595,undefined,1498539788223
903d185fccf839df,0.8301413302980832,-0.5381830264370069,2.4316940384874823,2.438004422192767,0.8811230321079917,-1.1348669816277037,1.7356685841709818,0.5328985531745584,-0.628920259894449,1.0908906910444902,0.35448054761096476,0.03402552061535016,-0.8391753008021391,-0.3299356850047703,-0.5265477687002641,0.6356345016243605,-0.5811142497774597,-0.2925147552763631,-0.5105314156427758,1.1974604805259947,-0.19996225025070297,-0.4642398116411185,-0.3848532276204274,-0.4948209971995419,undefined,1498539789719
903d185fccf839df,1.1073444040061506,-0.5757519863167757,2.6396863254562777,2.5194332084940414,0.9592943360660374,-1.1351814286163218,1.778644875584157,0.8868270897839258,-0.4926492434018191,0.5030458441085851,0.35269242992293726,-0.08067732305387186,-0.8174158868092692,-0.29938317605066195,-0.5212846108340463,0.7205000629193503,-0.5592247268678374,-0.2269814551491408,-0.5063473237784234,1.241823401439415,-0.15942287177248182,-0.469458884211529,-0.3594350605691021,-0.44813383658476635,undefined,1498539791199
903d185fccf839df,0.8315276196395769,-0.6133210631085139,2.5516405793285406,2.5320706873560974,0.8714339087025896,-1.2146434236859438,1.6544128339970279,-0.27658550648071323,-0.1465148606098594,1.4253837716777842,0.5826382115223375,-0.09354645197035738,-0.6955631684491979,-0.17902473837277094,-0.6528637194586365,0.5911811608284123,-0.512676230726008,-0.18491804353181,-0.5589773347462437,1.23661872582851,-0.1588727669903314,-0.4861103771177144,-0.21141369399022747,-0.5088559168898688,undefined,1498539792751
903d185fccf839df,0.9715149627593679,-0.7072434628079358,2.524205987364386,2.4358584030049912,0.7906603386317806,-1.2464375412594384,1.663651344040034,-0.36281950246217515,-0.1975562439226321,1.1615985618386995,0.49592814292689297,-0.18548876653479315,-0.15157781862745098,-0.14291725369219202,-0.5570741078834759,0.6780672540071339,-0.5144493564874485,-0.16948465987305592,-0.558627494214644,1.3066662566003453,-0.14062013953490066,-0.4758943962869769,-0.22456061185811496,-0.48415638119055726,undefined,1498539794226
903d185fccf839df,0.485023881020722,-0.6661524129394387,1.9825344271721606,2.099677458376416,0.6519577104850985,-1.2500944460586128,1.618281924142288,-0.7780297902753506,-0.42481715620426286,1.2968110417593242,0.40210821455058887,-0.19106033009766527,0.2705548128342246,-0.15032387936030311,-0.6486531548820464,0.579057460761034,-0.6003052406615168,-0.1543932560753574,-0.577784761997377,1.1749017550258638,-0.1709546374362064,-0.4654512087786705,-0.17390877653777043,-0.4883329867242492,undefined,1498539795710
903d185fccf839df,0.4725497613367802,-0.7453995545977954,2.3091959626742127,2.2651363943223903,0.742523264064511,-1.1675974508325473,1.6443038563887509,-0.21402497341567314,-0.5620597136641328,-0.212960626880176,0.4118473020882281,-0.18817019194026702,-0.7826008244206774,-0.13180725043615263,-0.616021555497241,0.5709750505788915,-0.579766263715573,-0.20507580345626863,-0.5495176457130458,1.2162773769303625,-0.17382169793906296,-0.48006475698877066,-0.19318438147756703,-0.40693169321174716,undefined,1498539797211
903d185fccf839df,0.9687430051737559,-0.5663597463468335,2.2364629842970336,2.2628335041888086,0.8208488524638691,-1.1570762754557082,1.7062620919861216,0.3343131594157815,-0.5466751690844126,-0.5456181679226481,0.5219961636347329,0.04621474944236181,-0.8739903631907309,-0.25772066384051423,-0.5823372892004699,0.6235108015569822,-0.680565590296072,-0.31310948879071504,-0.5290659680282345,1.3472873526990166,-0.18584251616392594,-0.44332023289784495,-0.3710230761600028,-0.4563368573951325,undefined,1498539798703
903d185fccf839df,0.7802451276055941,-0.38966811500032655,2.4074498817863885,2.5877950679009807,0.9264315367148297,-1.1243621109095336,1.6810843329366203,0.24148326650982654,-0.4289153141069422,0.881183956375636,0.6433528324264325,0.027634045022755526,-0.691211285650624,-0.3419715650347281,-0.681284783715787,0.6174490363174576,-0.6452984318313821,-0.3295054800766794,-0.5543454450956119,1.2097946340360888,-0.23003206607649118,-0.37786786197777894,-0.40439868227077586,-0.4101230807522384,undefined,1498539800212
903d185fccf839df,1.4926565149750466,-0.38497199501535545,2.9861260690472053,2.9479633324092998,1.1838928223835437,-1.0964415206510598,1.5999416695492124,0.00912097216093522,-0.2636197165931833,3.036384710520596,0.6981987425429423,0.039299564791290334,-0.691211285650624,-0.3225289557304628,-0.6465478652315176,0.3668936423177241,-0.6739882681719209,-0.25925413512699375,-0.5610903706216851,1.1593031340428652,-0.20496815671437102,-0.40715656640764725,-0.4971123936384817,-0.46804135991370105,undefined,1498539801708
903d185fccf839df,1.1516969675706936,-0.610972886204059,2.808120925562574,2.6937134827286675,1.273254951179916,-1.0521207586275703,1.650473387622845,0.3619092289933467,-0.18436946966491674,3.0247346294764905,0.6833212827690222,0.04561338813040289,-0.8565828319964349,-0.3521556656153,-0.6223372919286192,0.3527493538371709,-0.7174396027061158,-0.23980566396424322,-0.566177051388865,1.0412740509759983,-0.2202612010893232,-0.38025037450724447,-0.46727624679767094,-0.5563258183870574,undefined,1498539803199
903d185fccf839df,1.1905052018990958,-0.5722298963280473,2.8968045554333632,2.8670101655445994,1.358245673692835,-1.0749636069942619,1.5632348245194345,-0.07769954047525252,-0.3212470282805497,1.779935800132434,0.9095870279103305,-0.1263609904220627,-0.7260263480392157,-0.2660531662825438,-0.6160214965993708,0.2901106042637629,-0.6951109603719849,-0.13608471398833075,-0.5778057498424902,0.9902589994623511,-0.19371529657763406,-0.41816719448383993,-0.351424940660185,-0.48391164273318127,undefined,1498539804707
903d185fccf839df,0.8897400401429996,-0.5129413815177872,2.244118859898413,2.192730718184778,1.2416572887414448,-1.0357089381263467,1.4991254123076054,-0.48776401934133057,-0.33895464229924555,1.6015908430176304,0.8966991777182634,-0.04442806137216122,-0.4605614973262032,-0.13088139956378328,-0.5497056603667293,0.2395953286399609,-0.6688103807880244,-0.1881858422368044,-0.588217004322996,1.0562259424063176,-0.19975967682681323,-0.48316682700440866,-0.31034719463722005,-0.5479530610322593,undefined,1498539806223
903d185fccf839df,1.0408157656917945,-0.355033996287226,1.9563758568310605,2.2993159500351243,1.204063066776027,-1.0739690235112964,1.4905259502349002,-0.6779013652919369,-0.39623566030267304,2.0459238313037997,0.8362744835934643,-0.11670138316376658,-0.7869527072192514,-0.25864647586055994,-0.5086530201755493,0.42145015129731883,-0.6075607415134042,-0.2678859389704488,-0.5679682346001537,1.123455557109528,-0.21758187227146908,-0.46236133846719324,-0.29980851846855733,-0.5251029855416562,undefined,1498539807758
903d185fccf839df,1.065764143081317,-0.3004417183739063,1.7241396672981213,1.940381773283349,0.9666383262401521,-1.1030192934598928,1.5172316328222533,-0.7607787210526595,-0.2369157455698622,1.6277211744622586,0.5751993452021097,-0.06938286440917481,-0.7173225824420678,-0.29290233650104747,-0.604442558128372,0.4659035486227101,-0.6062222883883648,-0.3056239505599574,-0.6246913816741926,1.0920735273631914,-0.2610265253914728,-0.4011668159964926,-0.33802601637027785,-0.5141491073474674,undefined,1498539809206
903d185fccf839df,1.1295206167776026,-0.18714758991253982,2.0476112758110108,2.2588565353357835,0.7901974797744008,-1.1134845620469775,1.6862361058754016,0.013420534432424493,0.022583911466305957,2.2943644135329984,0.7085518916082251,-0.0036160887764483136,-0.6172292780748664,-0.42899991523985365,-0.6539163421971995,0.3365846465317721,-0.6293537095997348,-0.44161758271731594,-0.66049406355409,0.9173165685662809,-0.36619217397175563,-0.4452370989541152,-0.38560981374935893,-0.4776136531493954,undefined,1498539810710
903d185fccf839df,1.2057514171902886,-0.22823875669300628,1.9857246082982725,2.266344167901093,0.6532537126330714,-0.9914696963808591,1.6353861789638637,0.10545642631383219,0.14998127329099215,1.5529480133025535,0.8001066896669503,-0.03187534740960919,-0.8130640040106952,-0.4280741161705825,-0.6665479475801641,0.5628926686614706,-0.6461136260291334,-0.4867841361995122,-0.652671630101153,0.8514574143231067,-0.3890186892265307,-0.4681023444131041,-0.42089141978049194,-0.4599941834730205,undefined,1498539812213
903d185fccf839df,1.0366577257971472,-0.28517932842275023,2.327060265396981,2.4177618526270237,0.7216433094351175,-0.9232951950656495,1.5958891308889942,0.22946760982473782,0.09742534448126054,0.6676492194304335,0.7813758245223823,0.017141548467501547,-0.7913045900178254,-0.3808565505293169,-0.6907584914341274,0.9043753891957185,-0.5060220346879992,-0.421884129498796,-0.6320170438304322,1.0222569677938904,-0.32673112376424573,-0.4717037556158042,-0.2077781458683752,-0.42525349010720415,undefined,1498539813742
903d185fccf839df,0.8828099736519208,-0.32157425830627623,2.346838473485857,2.2933509513050967,0.5574630194886925,-0.8636853031285036,1.5289027170923826,0.12439645775027877,-0.2830214447380096,-0.41105376659157394,0.6382153540754686,0.002426661725310706,-0.8000083556149733,-0.27160816791056347,-0.5970741400605605,0.9508494597284493,-0.4652571395994705,-0.43244114647059173,-0.5769311506850476,1.0456318101622475,-0.30265821724354064,-0.5003135928108108,-0.07805570566547393,-0.4976920383737639,undefined,1498539815206
903d185fccf839df,1.0103232660985895,-0.2693298065615034,1.8313252294977826,2.1400208764414295,0.4146152666284234,-0.9181801802797346,1.531219575515137,-0.21826975493819487,-0.3014051416247221,0.406633014830644,0.6256945965371454,-0.046502920653686865,-0.7608414104278075,-0.29290236240259654,-0.5791793620869105,0.7811182806090265,-0.5159509083727508,-0.38861717599049933,-0.5604116804009588,1.0242279704803416,-0.27808519936269105,-0.5383108369374145,-0.11675877686507002,-0.4755089290024104,undefined,1498539816707
903d185fccf839df,1.520376711928542,-0.38908110000220514,1.803253262064474,2.1369911354139752,0.7510192699155203,-1.0223134811025498,1.4295801935539407,-1.0628224721237949,-0.18116668952206355,1.7876821050917415,0.6013856526148422,0.057661738400875295,-0.8826941287878788,-0.2743856816753479,-0.5444425172249789,0.8316335562328285,-0.5614205932731666,-0.33579409309849967,-0.5117908408665304,1.1007274449131166,-0.22855668944154445,-0.5406328516125138,-0.18170062079551785,-0.49771582975926365,undefined,1498539818196
903d185fccf839df,1.6922426369505732,-0.5188114145870317,2.1516074192954084,2.351892678987568,1.0670061622546516,-1.170574216469955,1.6058140096845548,-0.35142735735395847,-0.1972140821381421,2.637663357223397,0.4114058080161113,-0.03683399927891005,-0.9175091911764707,-0.3049381647279071,-0.512863525854269,0.5689544621657167,-0.6388833835120867,-0.302406813156496,-0.5350202531911958,1.04350681938651,-0.2359817059749673,-0.5419795454689152,-0.24763322841370314,-0.5478076144368105,undefined,1498539819702
903d185fccf839df,1.4025656505910227,-0.6168430361852728,2.135656767801798,2.2551664841950276,1.112798074291002,-1.18332214260555,1.7006342984323755,0.16642320353403348,-0.20573114126648182,2.4239280886167465,0.48536866310865817,-0.007902181681948358,-0.9218610739750446,-0.404002407913765,-0.48338982413408776,0.3931615743362125,-0.632820337055081,-0.33378654818656994,-0.5590263122205175,0.8335028239979533,-0.3015682871645326,-0.4886105725950969,-0.31843906573558217,-0.4294143336209882,undefined,1498539821217
903d185fccf839df,0.853703832411029,-0.5117672346095751,2.1018420677223686,2.1097966165583966,0.8474373797304203,-1.1623752965976204,1.6349680375943392,-0.22650603472825265,-0.45827703724249047,1.0988647587080536,0.27517861470415006,-0.10696101220438742,-0.8000083556149733,-0.4336291177986022,-0.48338979468515264,0.6012841594237296,-0.5877081345658701,-0.25783555506778477,-0.5346004467835567,0.9577836791738915,-0.24270515871902323,-0.45631171498455025,-0.30338845405642095,-0.3904342076079899,undefined,1498539822748
903d185fccf839df,0.7885612073948886,-0.5998196012397526,1.8568459160958297,1.87073156165029,0.7416695663802693,-1.101735884594789,1.706072740113489,0.28130362456899194,-0.41146782908985385,0.8245413906897988,0.26300077875496564,-0.11477303846758295,-0.43880208333333337,-0.3771532247444868,-0.46338981540777935,0.5750162839346843,-0.5774061284520428,-0.303369422328436,-0.5367274774919296,1.0378248004211008,-0.24993252469924374,-0.4255541174227602,-0.290893949456075,-0.3710499775165265,undefined,1498539824191
903d185fccf839df,1.0033934066399692,-0.4712633166511687,1.9410638514913514,2.0022073191190373,0.6403245995118146,-1.076198106754298,1.7010366594098347,0.27147398624444746,-0.33890745574849673,0.9302377180716928,0.4776396863087615,0.009278442134173002,-0.4649133801247772,-0.44751660891787687,-0.5981267627991235,0.4780271356312023,-0.6527075079559879,-0.3567814699790331,-0.5840958875246431,1.0353302608208312,-0.29106489148099907,-0.36971169233604756,-0.2959346773443396,-0.34950021320820723,undefined,1498539825709
903d185fccf839df,0.9659709095665049,-0.4471955848162225,2.256241446522859,2.2528343703015983,0.7681963864364054,-1.0366336463563264,1.5375021720615805,-0.5122831367139464,-0.32363691816524603,0.6439085835935927,0.7647270472941182,0.05628515698644362,-0.36917195855614976,-0.38363403839255217,-0.5897057367172165,0.6235109146158684,-0.520274671186108,-0.3427983311643148,-0.5474745805705905,1.129784321890087,-0.2515659537202596,-0.4005759236957358,-0.2947798611149857,-0.35344917737850606,undefined,1498539827202
903d185fccf839df,0.7954911358643284,-0.18714758991253982,2.611613341475171,2.489266496547992,0.8220008634615452,-0.996757065191346,1.6327668892145826,0.2960417087748031,-0.2879356514545094,-0.1395084017196646,0.8977889494891683,0.14937371326168208,-0.39528325534759357,-0.3030864888847175,-0.6118110203695862,0.6558406684033244,-0.41312716561427504,-0.31559200434003243,-0.5192354518723213,1.1742396344454709,-0.21999689335567818,-0.41365359226934817,-0.22794780732578482,-0.46402788399248124,undefined,1498539828699
903d185fccf839df,0.6652056097887699,-0.40551740303763467,2.414468127781665,2.1479301908632995,0.9148807085551339,-0.9961537923566908,1.569882965416813,-0.05271096625758511,-0.20322079151651756,-0.305949534028895,0.6503098352465786,0.08731573434644634,-0.7695451760249554,-0.44103578231903695,-0.5444424877760438,0.7063558309682403,-0.6179559014249749,-0.39340488309929084,-0.5305073136930493,1.0019772162046536,-0.2858438681122903,-0.4030139038889507,-0.2779589682690627,-0.4925114322402487,undefined,1498539830213
903d185fccf839df,0.5182882001779001,-0.5064840996264827,2.122258921965146,1.8972960722605494,0.7072947620244434,-1.068835372742214,1.6409561092468767,-0.06193903482418604,-0.10591918532998897,0.6099192509231742,0.5143880895070233,-0.00332839848886282,-0.8696384803921569,-0.3956699054717355,-0.5402319820973241,0.9286226480068674,-0.5274783659824404,-0.4288630359172449,-0.5159539473387115,1.1184664548076657,-0.2723496169839282,-0.4302475723440205,-0.2526912642407815,-0.46208785714622386,undefined,1498539831718
903d185fccf839df,1.1794172335350086,-0.5035490246358757,1.8300497161486264,1.8748882096531716,0.683452515180984,-1.0994182866363917,1.6480723671090791,-0.05047514718696891,-0.25491235254494865,0.7607732032916612,0.48896134758043597,-0.1216869086192165,-0.8043602384135473,-0.21605811277804285,-0.42865291164797753,0.89023118550933,-0.44919894803472843,-0.34271600301277877,-0.5137149671791809,1.161874675899787,-0.21829851552682875,-0.45487612024618146,-0.18587035522230644,-0.5914772611075572,undefined,1498539833208
903d185fccf839df,1.214067496979583,-0.4471955848162225,1.8453619756252853,1.8355417404415904,0.727084445038955,-1.0755761953850311,1.6817365145060275,0.15340507026221223,-0.12762676805797807,1.6066456410050345,0.6273426149128439,-0.1324540417068705,-0.06454016265597147,-0.29845735107984167,-0.5086529760021465,0.8457777881839387,-0.523502412507023,-0.3689343908614647,-0.6120481452519573,1.0532078424139617,-0.291311078838164,-0.4004466229354011,-0.17844927980197023,-0.5265754205674091,undefined,1498539834698
903d185fccf839df,1.184961217717052,-0.39436423498529766,1.9614799433232801,1.839881350999319,0.7017096311032243,-1.041103458795144,1.6951169697181243,0.3365068877135252,-0.14597900193044802,1.8973251680725203,0.7202177385752626,-0.13773337554265186,-0.45185773172905525,-0.2642014645378051,-0.5528636169292238,0.7568711065920423,-0.5885616627740858,-0.37443138536994425,-0.6014199902520978,1.0090297033709275,-0.2944071038094438,-0.4367992712169638,-0.24582322271062565,-0.5648536086751035,undefined,1498539836198
903d185fccf839df,0.8093511998356665,-0.488873649682841,2.362788870842518,2.3833229427680913,0.2921846073956089,-1.0509701165007217,1.612909234880418,-0.3707451482203971,0.09147913882344809,1.758726365308047,0.631682095806525,-0.08102703664481342,-0.9653799019607844,-0.28827319869617163,-0.5718109292946314,0.7023145410830044,-0.5551799331159272,-0.3903777367523374,-0.6536511818560571,0.9104796545205778,-0.33939990462748915,-0.37061906658646343,-0.23630132185110536,-0.5102689231101671,undefined,1498539837744
903d185fccf839df,1.06853596264529,-0.36031724818228783,2.7187996660856806,2.5644028191957173,0.40077069876952776,-1.0583980612611987,1.6784860769012002,0.14660537337489032,-0.2585379108503895,1.813430176371669,0.6290242979016122,-0.007330560984191377,-0.9523242535650625,-0.3132707189730348,-0.5507582536563571,0.49823327414544466,-0.6094730177806135,-0.4113207821467992,-0.6675118643128617,0.7677668589876757,-0.3823115113210997,-0.365369959292137,-0.22130758308475812,-0.5575447437648514,undefined,1498539839212
903d185fccf839df,1.252875869329624,-0.29339753839644966,2.607785530742956,2.5025871018137584,0.9433412201734279,-1.0915175125732488,1.6374663621456622,0.05575845419048944,-0.4532076160852802,1.5162687276013886,0.6385226505667265,-0.04235380925726771,-0.7521376448306596,-0.4030765311398466,-0.5602320202725678,0.6053253362500793,-0.6462212347734636,-0.4988863923919714,-0.6117962594119883,0.7833500856716193,-0.39738062105037325,-0.32187353217804937,-0.34504178263670526,-0.48177250124025794,undefined,1498539840701
903d185fccf839df,1.1461527763561916,-0.30044160146193694,2.483373295426629,2.3809384188434746,1.2567052600298176,-1.1105054726234307,1.632372425242047,0.11720187936047348,-0.663935132392489,1.103748028211396,0.5953281266873176,0.01478812269940362,-0.8304715352049912,-0.4632557499787921,-0.5928636343818408,0.5426865866766714,-0.7359734189402602,-0.5029838079866006,-0.6148118847652608,0.8605424928150144,-0.3867841532969397,-0.3623579675876258,-0.4047503046840299,-0.45956877907850674,undefined,1498539842207
903d185fccf839df,1.0837821779364827,-0.39142904308272136,2.3991558683050065,2.4036314753267174,0.912977845300594,-1.1230950092545435,1.631935877867082,-0.08979817032770292,-0.43451828664544007,0.940570953286943,0.6282367901816507,-0.17295228494631773,-0.6389886920677362,-0.49288248576517835,-0.5612845988377281,0.6639230785854668,-0.6687752558646026,-0.5051813391270656,-0.6354034981231873,0.9384894281874533,-0.3728792720096842,-0.34911664034703976,-0.4426032233202752,-0.4966031709753546,undefined,1498539843707
903d185fccf839df,0.7525245855980012,-0.43839024293243234,2.366617189848632,2.205151932525194,0.36413304937540314,-1.0712438139571114,1.5300361464105061,-0.8331762402562755,-0.35847370386344846,0.2903217830904021,0.5718164036583957,-0.10063690581506632,-0.1820409982174688,-0.5345449591230024,-0.5991794444355568,0.5952222811253189,-0.654557793584316,-0.547092759880209,-0.637607492882581,0.9821748147145382,-0.3813562176853498,-0.3878347848415023,-0.4439673099253278,-0.5105654141624306,undefined,1498539845204
903d185fccf839df,0.40186294510613796,-0.27167786655398896,1.8536559891066673,1.8346590905093705,0.2149493016740138,-0.9860355810033603,1.5294891446712635,-0.7002609246598288,-0.18234363084855595,0.6402848110695748,0.6563660897137689,-0.15361711962537364,-0.3778757241532977,-0.5502841778885649,-0.6318110143714271,0.4861096023427878,-0.678313342766784,-0.6023666920971661,-0.6494460973263472,0.9616024879500137,-0.40663431450644655,-0.37912810959308885,-0.4913610208337998,-0.49751579701133763,undefined,1498539846706
903d185fccf839df,0.6333273039298075,-0.2746129415445959,1.5799492238929187,1.8092019743475896,0.49973966752755083,-0.9498228969874026,1.561249304670956,-0.2864107707544128,-0.1535451806827098,0.6360130878473003,0.7016770565156848,-0.010897293315085415,-0.852230949197861,-0.6058341682672128,-0.7223374386314346,0.6194696529953541,-0.6659225744232636,-0.6175847549788057,-0.7227516852850201,0.7764361820238351,-0.4740147612928811,-0.3869115112395604,-0.5249429567210616,-0.529978355821356,undefined,1498539848210
903d185fccf839df,1.1198185236900924,-0.203584126771908,1.8140993187919656,1.946655333308065,0.6312525957949551,-0.9108570599962114,1.60621374059667,0.1791644142922203,0.1844868706266714,1.2732949618540366,0.9632471902416005,-0.04446740356802674,-0.8130640040106952,-0.4780691178719852,-0.6928637369112535,0.5608719671894096,-0.6106985513806422,-0.6001881581045867,-0.6865291969363129,0.6933615679929938,-0.4728385924387889,-0.37432851898932984,-0.5161803236962417,-0.513270166122636,undefined,1498539849716
903d185fccf839df,0.8897403161862775,-0.13959937506470743,1.7183974429258995,1.918064038068839,0.6190537655930207,-0.9411208686598148,1.5992552748704936,0.0845670954732213,-0.0158980075307071,0.7368789683676368,0.8411962000936014,0.13261134418162626,-0.673803754456328,-0.4660333025959001,-0.6991795322405019,0.6033046913074614,-0.6093447532793493,-0.5698090282419807,-0.6816804082099538,0.7886163566528622,-0.44643535775201876,-0.39120990040088466,-0.3975011060543217,-0.5102962298866678,undefined,1498539851210
903d185fccf839df,0.8897403161862775,-0.06974459028826234,2.0380412407065736,1.9995703153586475,0.6617908423112963,-0.9454229734865917,1.545323212538192,-0.1717148508767554,-0.3593009521357404,0.7600743876544072,0.7732128191635195,0.14401965181990564,0.2618510472370767,-0.4678849395867661,-0.6465478946804528,0.7002940091992726,-0.5803922366648516,-0.5293098536575991,-0.6161272883297774,0.8947732414308223,-0.3917384406688002,-0.4079917404149924,-0.4085990745952465,-0.5029001859958304,undefined,1498539852757
903d185fccf839df,0.44898739724547354,-0.1836254999238115,1.9908281865165933,1.71063908469078,0.47802657348857547,-0.9699731495242879,1.5843810952192525,-0.17112618899248322,-0.42895716638702946,0.5677643692068984,0.6840390746118826,0.08716725511791396,0.07907196969696971,-0.5595424793998656,-0.661284760265011,0.643716968335946,-0.5969011975941759,-0.554730290364857,-0.6214378681521991,0.8355508201097815,-0.4193816592757854,-0.3932287778974325,-0.3873106045349427,-0.4905062508816551,undefined,1498539854206
903d185fccf839df,0.2840517457469795,-0.28694025650514504,2.2058382112067667,1.8641493211835718,0.010798784982002116,-1.0292709183749296,1.65232213474394,-0.11417601040931052,-0.5065710614425896,0.31108621109257506,0.528411308768935,0.2300217775937884,-0.7913045900178254,-0.5752816593131045,-0.5886531139786535,0.3870996960378018,-0.6427115878790839,-0.5975916539707257,-0.6257898839547227,0.8086805349465186,-0.44234731512090814,-0.3963806077930491,-0.3589037017978319,-0.5040167054830348,undefined,1498539855699
903d185fccf839df,0.07060535276765632,-0.4518917048011936,2.270915313982566,2.1464156862985884,0.09744549611387368,-1.097755212379943,1.5762181800304864,-0.7202510593911124,-0.6292580616035244,0.05885352242051469,0.522491603438964,0.04041383968393014,-0.5258397393048129,-0.6252766998668308,-0.6318110290958947,0.6073460377221404,-0.6353570925194904,-0.6219418232407977,-0.6378663792709509,0.7758048512396971,-0.45967155305511204,-0.39770791746686607,-0.3949677284594356,-0.4668139129105582,undefined,1498539857213
903d185fccf839df,0.5778869100228163,-0.4436736117394635,2.265811481627296,2.399181736266858,0.4004724199390751,-1.2067682664743162,1.559997533935087,-1.0464929551391833,-0.5745906328159908,0.8027040045129809,0.4290679297489786,0.06779482716052071,-0.5954698640819964,-0.6234250369744158,-0.6486531548820464,0.5042949263260831,-0.6789652484372546,-0.6438728057892928,-0.6581011558185852,0.6101329753368695,-0.5034356524650435,-0.405415659857393,-0.462133403715752,-0.4942311325140837,undefined,1498539858704
903d185fccf839df,0.4836380057441452,-0.3591433350980144,2.1235346894512515,2.2991671267364504,0.7275472992751312,-1.2899663650384956,1.6046332326432258,-0.8813915977576537,-0.3536006835291121,1.0949061338286616,0.33713818023705466,0.14020242330935234,-0.9871393159536542,-0.6456450434864945,-0.6949690044750808,0.2416160301120219,-0.698125841099202,-0.6244180028400281,-0.7117666938418923,0.5755018687280108,-0.5166882414560738,-0.4033884969510611,-0.45798042212895873,-0.5509686441446536,undefined,1498539860220
903d185fccf839df,0.26464762858277846,-0.2552415635185595,2.505703800898565,2.344283942318282,0.5524847276383013,-1.3372173109756815,1.7115269577346994,-0.4817118303416406,-0.1733474889228414,0.7889971382372963,0.2700623014028536,0.046452380866253105,-0.6999150512477719,-0.6169441715232522,-0.7286532339606832,0.5285423547255612,-0.642605405191379,-0.6009544461941643,-0.7115987695489316,0.8201985651264775,-0.4594577375636201,-0.4143391779164444,-0.39344549030695436,-0.5281917795726541,undefined,1498539861717
903d185fccf839df,0.2743495836486498,-0.31629112332318376,2.269001662753408,2.2283949166464323,0.30351941882104416,-1.3477128647460408,1.6800429297174948,-0.7798329403181442,-0.18836327228747743,0.07650239883408223,0.2040346480804233,-0.026035280569031594,-0.678155637254902,-0.47251415509628913,-0.7591796320417652,0.6720054887676093,-0.5052045522078391,-0.533179281607769,-0.7130541072817663,0.9282032596827821,-0.40798898865042404,-0.3939733317096256,-0.37392378660926284,-0.553146876641099,undefined,1498539863210
903d185fccf839df,0.23692729360764395,-0.37557963813344386,2.3257844979108757,2.2745516776408676,0.24240181021529636,-1.2942614816905151,1.6576396080845301,-0.8125073337053423,-0.37311145453132016,0.608203581632803,0.43660894072029693,0.010141656689192731,-0.7782489416221035,-0.40122490709975517,-0.7949691143667273,0.3810379873277203,-0.598138246390918,-0.5168592858673998,-0.7549020315325025,0.9187794116754586,-0.4154331717663692,-0.3882070142457866,-0.3602851404948352,-0.6045624638879175,undefined,1498539864735
903d185fccf839df,0.20504898774868163,-0.3708835181484728,1.8243074917764048,1.7892569450967832,0.3875535734158822,-1.1923479470469158,1.73859291619486,0.0279559462831276,-0.31730041826329586,0.428386218413886,0.4394135368425989,-0.02154482316072024,-0.673803754456328,-0.3993731924042419,-0.8139164856300052,0.44367682169529293,-0.6621603427731912,-0.5205957231464344,-0.7657051083885976,0.8847488481815268,-0.4256457834463538,-0.4122817487941608,-0.34883979826105477,-0.5885810975658566,undefined,1498539866203
903d185fccf839df,0.46284753022763103,-0.3855590100134768,1.7247778051781233,1.6877723045262571,0.2555983747216121,-1.1059308410424977,1.707200911395968,0.016762657715419592,-0.1350423905618138,0.1872725643914128,0.5082896729781787,0.10089166494703221,-0.5737104500891266,-0.38178238845091167,-0.7854954508217897,0.4780271921606454,-0.7205323231016243,-0.4969485121858927,-0.7199529618457914,0.8015048544817308,-0.41692537210824177,-0.40804899956501284,-0.3583802156877024,-0.6018795646667391,undefined,1498539867710
903d185fccf839df,0.7317343861247648,-0.5258557114764578,1.8160132241580733,1.5138241554401828,0.4542563275266469,-1.0378821199144324,1.6314677655179002,-0.09200572366874267,-0.009264169867007541,0.03141733095477126,0.32108681951634027,0.009121058784284555,-0.7260263480392157,-0.4558490984091319,-0.6949689971128471,0.44367676516584986,-0.722364849651211,-0.5384546248537363,-0.6720178115634593,0.5835860535700599,-0.4541955743635065,-0.36834425225580886,-0.46759895267222334,-0.5859406064851118,undefined,1498539869242
903d185fccf839df,0.9063723377432276,-0.4929828715816601,1.9104388242641352,1.6590216911614935,0.38439587167296013,-1.0365474673724697,1.6639826916819205,0.06019194942256859,0.09065292248343096,0.2818124856703014,0.3578325546555262,0.020606344707275896,-0.7913045900178254,-0.48825329615720436,-0.7002321697035325,0.4093263947004974,-0.7529904084246989,-0.5404305030042493,-0.65216785839063,0.667461384071646,-0.4357293232344327,-0.4351886456850378,-0.4973020694363693,-0.6115696582530299,undefined,1498539870704
903d185fccf839df,0.9950771198182162,-0.44602143790801035,2.2677253869934035,2.1515997684166046,0.6813542263994212,-1.11212429021803,1.724465605703023,0.4736209871758883,-0.03566248372225194,-0.26930020975384206,0.32639708031749043,-0.10515296860931034,-0.7260263480392157,-0.4947341486575934,-0.6265478565052093,0.43357368177636796,-0.7213588591633797,-0.5373020290490844,-0.6164911203605102,1.0146809305880466,-0.3609854860617288,-0.4365681213669236,-0.423605883066852,-0.5986875271233068,undefined,1498539872208
903d185fccf839df,0.9812171938685171,-0.5346609364482786,2.5599348469468723,2.5743985989481306,0.8324305576878825,-1.2226164074578891,1.6356070837642118,-0.36032531841766385,0.20754499252494255,1.1307153968484633,0.5111652191696884,-0.07478276377420816,-0.6476924576648841,-0.45121997355503063,-0.617074148786869,0.6477581451622958,-0.6854348030964651,-0.48278805084854753,-0.598873149159996,1.0934593775585597,-0.31953507394610947,-0.4527710774474231,-0.4245768083242756,-0.6231354031023772,undefined,1498539873740
903d185fccf839df,1.2681220156099973,-0.5364218645306734,2.369807370974744,2.681795345527783,0.8032294529988584,-1.1834083242568265,1.540237162082445,-0.8081222323959363,0.03878267388832455,2.6634429160134077,0.520464879121659,-0.08042916469400693,-0.6607481060606061,-0.41418661210053326,-0.6676005555942595,0.6336139132111857,-0.6585183645819712,-0.4244996358244454,-0.5937234962385374,1.1132771769421665,-0.29420262022300286,-0.4695616801022313,-0.41253137876839324,-0.5610997273785641,undefined,1498539875208
903d185fccf839df,1.294456337286916,-0.563424788268196,2.293245565317552,2.4459036420873645,0.6213680494171946,-1.1578821916733009,1.5644971220800585,-0.6172033897260586,-0.021048686846221545,1.7802460908121744,0.5056002437373044,-0.06131195737764664,-0.7390819964349377,-0.29753147430592325,-0.6412846779163647,0.7568710500625991,-0.6423562176947494,-0.31036099218703345,-0.6037709154523847,1.2958873456091453,-0.221312096186871,-0.5190839600629674,-0.3173647059259597,-0.5460549430045005,undefined,1498539876709
903d185fccf839df,1.1808033848548634,-0.3996472530564208,2.2900556383283894,2.469129267041346,0.7502889700517849,-1.2421517381919618,1.7092127207352341,0.06079737252278625,-0.5009427084708425,1.37103508965215,0.1313243989565223,-0.0009799017472687246,-0.5475991532976827,-0.2716081420090144,-0.588653099254186,0.726561884688318,-0.5221641901915777,-0.2113454176636668,-0.5728869921020392,1.328793823325925,-0.16854025539990597,-0.44055915237247556,-0.17720574384568064,-0.4301408714584113,undefined,1498539878206
903d185fccf839df,0.34642227515586893,-0.5094191746170895,2.6537220550359826,2.5479302489314875,0.6996216311015029,-1.3433897943512199,1.7271953314849497,-0.18236631812818802,-0.5256310073313332,0.5698371625034953,0.23469094462314533,0.0010395498906870988,-0.6085255124777184,-0.25401726035103683,-0.6318109996469595,0.7427268181114891,-0.4403701467323116,-0.1359897210678465,-0.5737615933148144,1.375266327213331,-0.13033552700995182,-0.4633755425894949,-0.11762408576506372,-0.4065256374419081,undefined,1498539879711
903d185fccf839df,0.4323552376668845,-0.5411181014276139,2.5963010819985124,2.532571099642335,0.6437702818068741,-1.311779690672082,1.7301775335884533,-0.1149186654784438,-0.6305929896242634,0.7628627676623476,0.22163636957566354,-0.003604540418040109,-0.5214878565062389,-0.24661060878137664,-0.5770741607831872,0.9104371261705215,-0.37264282075007693,-0.21691840916281152,-0.5669187122896583,1.3478108927899397,-0.16569745825712706,-0.401788207831311,-0.04696370418604214,-0.38007450778545104,undefined,1498539881199
903d185fccf839df,0.4850237429990831,-0.4882866346847196,2.2651733437472936,2.3034041848900313,0.3793044462115045,-1.1879154062265087,1.6613897015385588,-0.3771309839347417,-0.3277342233642493,1.0953046294671525,0.5210790310951825,-0.043331928147656795,-0.5214878565062389,-0.3021606768646718,-0.5802320142744086,0.902354659458936,-0.35029505694019664,-0.2593427999483834,-0.573782583105153,1.333474942691135,-0.18975819233007038,-0.3666118383981272,-0.07581217380211915,-0.34157112126341066,undefined,1498539882710
903d185fccf839df,0.46007550363119953,-0.5493363114013132,2.166281540892065,1.9960481983183362,0.3532816357569743,-1.170485707205373,1.7259067335491332,-0.022712115512569433,-0.15164171152287143,1.3869390028972295,0.4706853984893303,-0.03559940764058845,-0.7216744652406417,-0.33919406422071824,-0.6170741782358041,0.9488287582563882,-0.45403477357438893,-0.300348610796553,-0.5739924890096552,1.196336383965533,-0.22791873285397593,-0.3714292814813215,-0.20282448600075176,-0.39572383355192225,undefined,1498539884211
903d185fccf839df,0.4739356366133571,-0.5857312412848393,2.6071473928629536,2.2759535094714956,0.44938091340804837,-1.2429786177740785,1.7785396677327843,0.2643145380854027,-0.07488327570384808,0.6561509199554741,0.3995222173197005,0.01621734849051929,-0.673803754456328,-0.31327070602226026,-0.6244426257525507,0.9973233324081293,-0.4728191122032866,-0.34349495700078425,-0.5579418055681368,1.2593006316494881,-0.22228465561092625,-0.45955560861434874,-0.2649142661286638,-0.4416150806226373,undefined,1498539885766
903d185fccf839df,0.8051930909301998,-0.5957104962529028,2.8438495310081104,2.5001083448948855,0.7637118069015633,-1.2686375184875562,1.7435343268545072,0.2638028955708524,-0.1886644664558341,-1.2554354377337076,0.20068952891695022,0.030214972929986445,-0.8348234180035651,-0.3216032084642898,-0.5181266689960192,1.0862300140000256,-0.4625964540477548,-0.33303293313771953,-0.5106923415221897,1.4739703587680433,-0.15474361626790692,-0.47667263897678175,-0.24704833739578774,-0.4385871712928393,undefined,1498539887202
903d185fccf839df,1.2334718901870618,-0.5405310864294924,2.8923383526841966,2.458897622504468,1.0311296428223473,-1.2101829299345586,1.627520432352131,-0.0005714901066827914,-0.06934866240684606,-1.1101279889117224,0.20345180516145517,-0.027732798503787202,-0.8739903631907309,-0.2716082067628871,-0.5633898884882568,0.902354715988379,-0.4419640196478734,-0.2841299411141289,-0.4782761178132641,1.3978096502562476,-0.14162141903321418,-0.48738033665410285,-0.294631696216902,-0.4062691322294636,undefined,1498539888710
903d185fccf839df,0.9396367949220445,-0.6485419629957971,2.7653740741217603,2.300195306770733,1.204114499084215,-1.0660076809372003,1.4519729920448432,-0.5878934163945776,-0.18412629215205578,-0.9376824997061761,0.6077700123672222,-0.04861123927733832,-0.9349167223707665,-0.3021606768646718,-0.49496876260508654,0.9953026309360683,-0.44472671701627453,-0.18064330688177047,-0.43648416691788505,1.5509779893990523,-0.052512635059852424,-0.5566633296203666,-0.2628819116007722,-0.5162977778475721,undefined,1498539890207
903d185fccf839df,0.7816310028821709,-0.5974715412472671,3.0065425420845586,2.548007737291856,1.1245443504275683,-1.0276078415670367,1.4507369707664113,-0.5653755435767338,-0.30950255027606843,0.3227538407610221,0.8087919574197553,0.01886344600625687,-0.9349167223707665,-0.22624232991558565,-0.43075815712510357,0.9104372392294077,-0.31933598220119686,-0.2020866542564697,-0.39360071361138316,1.7033302091157922,-0.021867932975577816,-0.45781755702652527,-0.2698770255748757,-0.46214285247851994,undefined,1498539891719
903d185fccf839df,0.8384575481090167,-0.4389774917544924,3.3057699938963543,2.8565730746017284,1.197315658321084,-1.1790410026509692,1.6140689716281396,0.1471203324806684,-0.6027912810997507,-0.8101964305713489,0.3502697441775998,-0.05424737876034299,-0.7347301136363636,-0.14662060537857122,-0.3981264988424278,0.7689945805416483,-0.35678547642844,-0.07479448517265466,-0.41976178917954315,1.690749681447844,0.026964117911028564,-0.4982911989468677,-0.3056863185907532,-0.44696024397400724,undefined,1498539893199
903d185fccf839df,1.0740800848489724,-0.6086249431235428,3.3529827939493853,2.823314240307533,1.3546765246073056,-1.260822921088775,1.7205813725985803,0.5685535123405402,-0.5202856062091259,-0.3757239074086316,0.24238715598621274,-0.061808956901258524,-0.7303782308377896,-0.03366884517188949,-0.43286337315329443,0.839715909885528,-0.27776158154391384,-0.041185552196405656,-0.44487334380131244,1.4863199188682805,-0.012172193664433001,-0.3799307525102868,-0.19180477135895743,-0.4324979857064574,undefined,1498539894712
903d185fccf839df,1.0227975928149897,-0.4501305428948601,3.4448567320147614,2.854505945257735,1.3503462443356364,-1.2302493273897013,1.7859925501279106,1.0255895823155885,-0.25341791551925585,0.12473749094032797,0.1859400651439758,-0.033792004145289885,-0.7695451760249554,0.02373287285304616,-0.3539159315376884,0.6861496641892764,-0.27429806530011,-0.011009076066396268,-0.41191836508599594,1.6021008329656072,0.034753572393119096,-0.4539795516283243,-0.17798494704506193,-0.5485004727950085,undefined,1498539896194
903d185fccf839df,1.0117093484076247,-0.4947437996640549,2.917221155539191,2.5125350223153053,1.37377706342559,-1.1453578753005111,1.6957980877676866,0.6391150909617366,-0.1076110357724057,0.8134946455036655,0.29742980544913494,0.03985314472853052,-0.7826008244206774,0.15334963794378695,-0.3076001482047582,0.7043351860256223,-0.2240121418072195,0.04424585838810512,-0.3703852965906628,1.5657143026335099,0.06755250111204945,-0.3918255225717236,-0.21176667064611052,-0.5872656635348249,undefined,1498539897724
903d185fccf839df,1.6104677833450245,-0.4254759129737618,2.8425735093850557,2.5373189618264482,1.506688838568163,-1.0860344799724497,1.5753871642310178,0.28637687331525163,-0.0995430892994945,2.0372018929907023,0.542669917369618,0.004319748127376867,-0.8870460115864528,0.15983043864107782,-0.32444224454197484,0.6194696247306325,-0.30348030964039435,0.10766395359410207,-0.3491639683269613,1.6500207973484204,0.11561827923899855,-0.5271419499454338,-0.1869389957968816,-0.6689294107486057,undefined,1498539899209
903d185fccf839df,1.1738731803421456,-0.5898404631836583,2.925515296089048,2.629445645923356,1.7745181050071723,-1.1218185823015603,1.430490102540737,-0.5705520392114644,-0.17244692435624118,2.028205324433519,0.5213508457551553,-0.16389695936490856,-0.7347301136363636,-0.06236973008590642,-0.3865475898203642,0.6679641988823735,-0.32710253376959386,-0.022427376478850288,-0.3648438207736645,1.5090172307409107,0.0152303305286285,-0.38157752534159844,-0.1479307121636261,-0.6934882189235146,undefined,1498539900739
903d185fccf839df,1.261192156151377,-0.6233003180765775,2.975279885251239,2.7492223949181955,1.7323673194757712,-1.1689484073373306,1.4530617245246022,-0.5961863476757184,-0.1317644964289042,1.695182023879184,0.5042077575142315,-0.11086904999909145,0.018145610516934058,-0.12810387284822433,-0.4160212915405454,0.7811182806090265,-0.42751601624085434,-0.053965435815088884,-0.34194325910462137,1.5586310301673925,0.016632734956957797,-0.4178293205077577,-0.2637898011849928,-0.6361540535131133,undefined,1498539902243
903d185fccf839df,1.187733175302664,-0.6467809180014329,2.8183290985470126,2.685216563921764,1.4598374943294419,-1.1678280445950187,1.4655033325675249,-0.8605524743694069,-0.14755000535304477,1.8262606693152927,0.6717170297256307,-0.2369156859106465,-0.14287405303030304,-0.24105560715335694,-0.4254949992588857,0.9427668234285345,-0.48527777879395934,-0.017905655700865605,-0.3467710569334538,1.5354871672135781,0.02383277350352914,-0.41149681464465865,-0.3332266887040995,-0.6574243879482158,undefined,1498539903727
903d185fccf839df,1.283368368922829,-0.5951234812547815,2.5478122603224267,2.725904490055157,1.6256532166126785,-1.2743208636106935,1.6020086814538548,-0.2663509566627383,-0.08237949037994707,0.7887356520246565,0.5009861539895176,-0.087775689333248,-0.39528325534759357,-0.15124975613422156,-0.4739160869668123,0.8538601983660812,-0.49574886799671464,-0.05134359738733515,-0.40041560578424545,1.4738779905908852,-0.015904704580048806,-0.337247854512471,-0.38696698413835756,-0.6145486125929649,undefined,1498539905218
903d185fccf839df,1.2251555343544895,-0.5739909413224116,2.380653427702236,2.1349077663204894,1.6019035409845508,-1.3067368853630204,1.7687252398970559,0.5999753363260769,-0.1942669058905618,0.16538223555134515,0.4072293192518928,0.041135125505586234,-0.19074476381461675,-0.2493881354969356,-0.4823371719465896,0.839715909885528,-0.4942361379721305,-0.14716736627087654,-0.4653040300992321,1.3688143931779428,-0.0989774080158437,-0.36436407269769405,-0.36987340136411495,-0.6265403647464983,undefined,1498539906710
903d185fccf839df,1.1752591936403614,-0.7418773476970977,2.3117480059203226,1.9358635055029785,1.665932009616207,-1.3472842816674968,1.8137843440336137,0.8241950933657267,-0.25502771370530924,-0.2973607336960701,0.233679802133623,0.03971779466287163,-0.14287405303030304,-0.19661559412919938,-0.5297056516404208,0.9427668799579776,-0.5023541277555194,-0.08985422642787587,-0.49342421452962903,1.4669794836115222,-0.06662416008618381,-0.3346519973056767,-0.31409193232838817,-0.5836875424979855,undefined,1498539908197
903d185fccf839df,1.4940424592624428,-0.7201577927666064,2.2281684625417526,2.043618646059367,0.8915630224700867,-1.3704485647336644,1.797837199855357,0.2564033388155167,-0.09193236882962579,-0.0034002579280475176,0.15298277327890783,0.05542773149439079,-0.4213945521390374,-0.14754645625094054,-0.3402317475895636,0.9427668799579776,-0.30541843723860984,-0.08062712797160583,-0.380460702350672,1.3809637705122084,-0.03189251838145586,-0.27271412779696474,-0.3533592229666677,-0.4824540229389228,undefined,1498539909772
903d185fccf839df,0.7248045266661445,-0.5933624362604173,1.771352467351152,1.902327586946188,0.10654833892716163,-1.3688972921113256,1.782613247701397,-0.22390176367441708,-0.20137338483739806,0.9992901720421957,0.018675992307965867,-0.1643412611665364,0.20962845365418897,-0.09569976575557369,-0.4023370486945502,1.0720858385783587,-0.29517525344109935,-0.09264071963058196,-0.4328458265465957,1.3096535645886267,-0.055241130693695024,-0.33531166162616866,-0.27441278544568737,-0.3160039962748223,undefined,1498539911210
903d185fccf839df,-0.4131136333637386,-0.45365274979555775,1.1173907501931473,1.012969738415064,-0.9079196764225121,-1.3501073172021252,1.747755159580496,-0.8434249454747883,-0.5098972010161765,-0.4076931012996288,-0.10579875723928171,-0.1792609697002912,0.2879623440285205,-0.22994562979886665,-0.5370740697082323,0.8275922098181496,-0.28168097256267666,-0.19545605977349717,-0.5197672084957508,1.0164363632502584,-0.179197766058566,-0.32080073738193593,-0.22350146486551153,-0.16763963628755835,undefined,1498539912745
903d185fccf839df,-0.40479751906903433,-0.4436734948274942,0.9081226957382464,0.8017023866960935,-0.9911515392024104,-1.236712964108608,1.7670132276288846,-0.4304636431575041,-0.5426577027135191,-0.35899817732817313,-0.09524982718636138,-0.11926149072261741,-0.7173225824420678,-0.09662553892329576,-0.5812846517374393,0.6315932965332893,-0.22345173376096736,-0.2462652685858961,-0.5742443781161347,0.7527379835421344,-0.2556534495221901,-0.25409772730959407,-0.22312466692977576,-0.031152661606853475,undefined,1498539914208
903d185fccf839df,-0.5544870587925648,-0.41843173299630515,0.566148900759536,0.7214279096897762,-1.1287433059633474,-1.2049700902119727,1.7356028351561839,-0.6708307781108243,-0.5368371373922082,-0.5346339561844263,0.06572586604021731,-0.039999481330059365,-0.7782489416221035,-0.12625224880813293,-0.7223374459936684,0.5103568328892153,-0.2906562836076104,-0.34067679239139886,-0.6728434364397341,0.47692102671582826,-0.36971616726716783,-0.2576935014862746,-0.29917414479511295,-0.0033846672255266534,undefined,1498539915710
903d185fccf839df,-0.4782563101379935,-0.5023751115516023,0.6363300900275549,0.712898629630049,-1.0620302708547678,-1.1971554960604849,1.6756432617139232,-1.0236285663226263,-0.5179501914975773,-0.29528947576136694,0.1006550038623264,0.054493274664002965,-0.7434338792335116,-0.3808565505293169,-0.8276007358382341,0.025410950048197663,-0.5156335163566921,-0.4836429961244524,-0.8378492273321781,0.1515210732908117,-0.5500158040687025,-0.40190690809652485,-0.4012603667033785,-0.22947738876104035,undefined,1498539917210
903d185fccf839df,-0.5004325401621504,-0.5282036545569739,0.4729990681395795,0.7303731762187411,-1.0418908726245533,-1.198667170842804,1.7181645900571163,-0.7757912039356247,-0.5143141498759201,-0.3218880237401549,0.11681754047119498,0.054363995260928735,-0.7564895276292335,-0.45121992175193243,-0.8760218456328621,-0.053392761213102984,-0.7378671101513287,-0.5394805609100473,-0.8924453424989002,-0.034954102558034605,-0.6319372666939816,-0.4205228172581834,-0.5278954317663288,-0.322543679006703,undefined,1498539918756
903d185fccf839df,-0.529538853930091,-0.5370089964407642,0.36708901928907417,0.6924526090766866,-1.0422920163794627,-1.2726298337558473,1.7389979088089462,-0.8023861500807767,-0.4323763438541875,-0.4215241004535036,-0.04362405020069503,0.029412056256597187,-0.6433405748663101,-0.4799207937151748,-0.8897060958410911,-0.05945456884970984,-0.7906420546394027,-0.5826712385837403,-0.9286888223262549,-0.09590114935172835,-0.6796565468672973,-0.4361319099790636,-0.5214261211861523,-0.46782329562887215,undefined,1498539920192
903d185fccf839df,-0.2758981098079207,-0.13783838852632796,1.1275989231775865,1.0136386563425357,-0.8027895584320954,-1.4384903006733225,1.7923855939678592,-0.6577988482701057,-0.6154006470117334,-0.2219848868479713,-0.27237780102227355,0.08475748055567751,-0.7434338792335116,-0.38363405134332673,-0.8854955754379038,0.0395552102640293,-0.6807887017051509,-0.4977907953338389,-0.8734629937646718,0.023667782554244093,-0.6052159782420351,-0.3222386805247412,-0.4316208970122296,-0.4439110695685039,undefined,1498539921715
903d185fccf839df,0.03734113712670747,-0.4882866346847196,1.1754498611106194,1.0118510541941153,-0.6570309475384362,-1.658903879753957,1.8941669732695918,-0.45408337945488325,-0.4854473262893299,-0.3012888252913069,-0.3282471765552138,0.06099193785745371,-0.5214878565062389,-0.3401198891915385,-0.9139166470572881,0.1870595776618702,-0.6532365197222194,-0.41164375953369653,-0.8482185001338546,0.21139022945521968,-0.5239148247670606,-0.3942546989683486,-0.33175665102091445,-0.4584310706120889,undefined,1498539923216
903d185fccf839df,0.18010061035915917,-0.47713337894840563,1.5046636939957307,1.3798753679476996,-0.5133294754923249,-1.7743456336710224,1.9066795917674026,-0.5073119696100533,-0.502369530613468,-0.32846101861938864,-0.42232418578003406,0.060340995715734105,-0.3822276069518717,-0.1401397399274076,-0.9012850416743237,0.5851193107947231,-0.48765114997932113,-0.317681876777855,-0.8409208261264467,0.3933228657686725,-0.4479870116975151,-0.3662253216208326,-0.27541773002583925,-0.44792217892622316,undefined,1498539924714
903d185fccf839df,-0.016713416009116605,-0.5100063065271803,1.6520445726639945,1.6025071630118466,-0.5995133335483224,-1.7610503356591711,1.918916081949052,-0.4435175904523931,-0.5426965762188761,-0.6190934585997696,-0.37988729942922894,0.07436354098769832,-0.9436204879679144,-0.05311133791918388,-0.8381270883818388,0.8336541163812818,-0.3630047741287032,-0.2578418920200083,-0.8114852429395434,0.7173369558860315,-0.34593128807896917,-0.39398105460180904,-0.30861152450480317,-0.48158985143272565,undefined,1498539926211
903d185fccf839df,0.08307961047323703,-0.4624579747673786,2.322594570921713,2.3105821613805118,-0.21589797967434723,-1.800891971818765,1.8846786339925832,-0.4871440289356806,-0.3654137551428105,-1.0070431774954667,-0.5729474036997486,-0.03614936748349739,-0.9697317847593583,-0.01607800236623561,-0.8581271118326149,0.8841693637403624,-0.3955817644412064,-0.200028448939947,-0.8025573121018598,0.8462835353607732,-0.2936980120890207,-0.3326078633909674,-0.33160634415049633,-0.45872044621126923,undefined,1498539927712
903d185fccf839df,-0.07354009925760138,-0.4348682990836657,2.5829032361618602,2.4035319672359012,-0.29581784815589734,-1.779502568602606,1.9089543759535434,-0.32629145242795166,-0.36913728606563034,-0.607330320743358,-0.553963287878225,0.03333831660754502,-0.9566761363636364,-0.020707191974209598,-0.8949692610695428,1.1347245881517667,-0.4106484554061077,-0.20828027455712547,-0.8064265492384756,0.9917372512887171,-0.2720494626810805,-0.3784685532991338,-0.2814525661474081,-0.39311270670626247,undefined,1498539929205
903d185fccf839df,-0.0624519238610559,-0.5323128764557931,2.9701756716905447,2.7418878964349016,-0.19504886944476396,-1.8096545706306888,1.83883848844066,-0.7734205435149143,-0.17937004830550024,-0.9796637002385197,-0.5740959401439091,-0.09242799323664119,-0.8348234180035651,0.08298622786884777,-0.8097060094002206,0.9084165377573467,-0.4646126916834737,-0.08013315963820229,-0.728118242659103,1.4373836584591682,-0.12340287041197433,-0.2848957365871865,-0.10820073593440062,-0.4167880718404229,undefined,1498539930710
903d185fccf839df,0.16069656220577758,-0.5393570272052574,3.2572807910148445,2.878587329536014,-0.23369223213600862,-1.7717205791983262,1.8718793784399745,-0.546093804740018,-0.1954049081617227,-1.170445645417395,-0.39994848346050915,-0.133583547631879,-0.4649133801247772,0.06076623430754353,-0.7918112314265706,1.0195499745413819,-0.4190893120740203,-0.10024025550940524,-0.6905243782224424,1.3805479980266377,-0.1323422251292302,-0.28073546769179425,-0.04672492658018003,-0.36731368750447496,undefined,1498539932204
903d185fccf839df,0.25355924615377456,-0.48535161815009736,2.73411167142539,2.577444106824871,-0.2855732925352257,-1.707219287768617,1.8743776891116337,-0.4588282060974955,-0.26056628274642396,-1.3181111319091892,-0.30966836036159706,-0.0546914987805724,-0.49102467691622104,-0.025336316828310855,-0.7339164212758361,0.93670505818901,-0.4959851347678987,-0.05114094166153886,-0.6742637898979711,1.5423086660532601,-0.07190465880367909,-0.33546683687105877,-0.15000012747003955,-0.4394141556916335,undefined,1498539933714
903d185fccf839df,0.30345600093281955,-0.5164634715065156,1.7777325754664266,1.7150245363122685,-0.1570226566039185,-1.6844672792335458,1.9259981547231513,-0.1289553041704994,-0.2993225152844455,-0.8917400663597131,-0.19587924823589248,-0.06875000933949173,-0.7913045900178254,-0.11699392139528313,-0.6970743014878434,0.9508494597284493,-0.46991970060556065,-0.08350228252974863,-0.6242016103264244,1.4248801204875374,-0.09182935462759843,-0.3437671633639167,-0.1418652548673628,-0.5300347655707492,undefined,1498539935248
903d185fccf839df,0.14960828329300288,-0.4653931082139702,1.0318973014484696,0.9904145592729131,-0.48663810137402463,-1.7102472997625346,1.904665164933054,-0.4708596314757417,-0.3319071930940654,-0.47995277280851495,-0.08897905086425546,-0.018809332819247383,-0.7564895276292335,-0.06144384036121343,-0.6970743014878434,1.2519199032342125,-0.327235076915605,-0.16669183094726617,-0.6253490868758881,1.0707620729959642,-0.1825603781800578,-0.38731052930279825,-0.13390273040760337,-0.3895011423419555,undefined,1498539936687
903d185fccf839df,-0.152542891761309,-0.5892533897295523,0.814973371392189,0.8012834647703722,-0.6747223511978402,-1.792530002941938,1.8946508576306638,-0.7674760448566091,-0.3353698159220285,-0.28068087178064344,-0.15681428454088306,0.017726128936015457,-0.8043602384135473,-0.10588389223769464,-0.7012848071665632,1.0437972616172524,-0.4158706157445526,-0.2590324824083383,-0.6684004644508824,0.7719860326495516,-0.2899016446550964,-0.37822706247629817,-0.18913958195676644,-0.3688480131325632,undefined,1498539938180
