UUID,iqrAccX,iqrAccY,iqrAccZ,iqrAccXYZ,meanAccX,meanAccY,meanAccZ,meanAccXYZ, covarianceAccXY, covarianceAccXZ, covarianceAccYZ,pressureDerivative, pressureIQR, iqrGyroX, iqrGyroY, iqrGyroZ, iqrGyroMagnitude, meanGyroX, meanGyroY, meanGyroZ, meanGyroMagnitude, covarianceGyroXY, covarianceGyroXZ, covarianceGyroYZ, class, timestamp 
903d185fccf839df,-0.7540732152735012,-0.4243019998894884,-0.45977350072439355,-0.6847408772993139,-1.4817695372039759,-1.649525867028107,1.8717340484639837,-0.932259699728323,-0.35108129238503377,-0.7031172118805621,-0.006550131630655728,-0.33809005409720183,-0.9610280191622104,-0.6604583919535258,-1.1507590381642103,-0.8050588654843195,-1.0003462579760651,-0.8097805489104493,-1.1938989406877245,-0.9591731943517194,-1.0286836799574233,-0.4496504020858153,-0.6864494822234756,-0.5489457980320159,undefined,1499022336077
903d185fccf839df,-0.7471431487824225,-0.502962068093739,-0.0922787650106863,-0.22523537777197128,-1.4620456451846155,-1.7347874363662124,2.020499689714035,-0.07393574507706673,-0.42667514328766876,-0.6404282271987046,-0.05317660702056104,0.049879061740060966,-0.9479723707664884,-0.37807904971530704,-1.2233907065372693,-0.05945461124679215,-0.6979609505738348,-0.5618663623181432,-1.1388558472425816,-0.38949071379330613,-0.7776031278193093,-0.4100518865041597,-0.49374103272569525,-0.48036564457310005,undefined,1499022337472
903d185fccf839df,-0.20798345819534883,-0.49533087311816093,0.13931877836835213,0.10353077255978203,-0.9795194557098991,-1.7806301938706703,1.9355797265113663,-0.5743703639197411,-0.37920578059734206,-0.8417158269206048,-0.07996725082237705,-0.004364292573787868,-0.8087121212121212,-0.2753114548430699,-0.8939166236065121,1.1064362090437112,-0.5278031345711143,-0.5401495178908375,-0.9582168895437999,0.664274492217789,-0.5201671510934683,-0.4076225961463512,-0.5263523343640025,-0.22213489125984776,undefined,1499022338983
903d185fccf839df,0.02348096963914021,-0.4436734363715095,0.9987204851120931,1.0019100642785892,-0.7129131412188711,-1.7580758954804765,2.0140887625278383,0.1003515414986561,-0.2636333923597374,-1.165961375607541,-0.01986704029209397,-0.040192076800111574,-0.8348234180035651,-0.3243806315736524,-0.9118113500445256,1.3549709298361052,-0.428799722288996,-0.4691990126338713,-0.9601362578367757,1.0396702460977623,-0.40095128553859805,-0.3708865131482917,-0.5861120426029138,-0.3387920858076834,undefined,1499022340505
903d185fccf839df,0.08307964497864677,-0.16777615343051872,1.7509358672453244,1.6033047323576957,-0.5473751311372514,-1.6745237560647777,1.8777938120601443,-0.4428140025721821,-0.34774798001458723,-1.0675781370604556,-0.05168004854327935,-0.05539572848809404,-0.7738970588235294,-0.33919399946684553,-0.8612850021350054,1.1347246729459313,-0.5494323295168654,-0.4337710636002472,-0.937805666556951,0.879159216049966,-0.4185317260385936,-0.36527185700379833,-0.611935616874314,-0.38893154891081033,undefined,1499022342017
903d185fccf839df,0.05258735241790021,-0.29457156839269244,2.0112450407593703,1.8753555545269074,-0.5751670883001742,-1.6090348672030725,1.821810506692525,-0.6503620630854308,-0.3694783654493075,-1.0269460302126592,-0.09945997787091534,-0.0450716606855306,-0.8304715352049912,-0.3428973641039993,-0.8823376409621106,0.8296129112902106,-0.6205468031238756,-0.42349902976003767,-0.9166613040866916,0.8127765174369251,-0.4243210431174191,-0.36757624422858803,-0.6351713018947853,-0.4167215866010296,undefined,1499022343491
903d185fccf839df,0.04842920900702375,-0.15133979193910455,2.372997552100856,2.1636961777414476,-0.5360505859657905,-1.6209396095219142,1.742674385181042,-1.0964249688046313,-0.4342425525504512,-0.7828254925554871,-0.2455101307337062,-0.06052556072238232,-0.8826941287878788,-0.42529656355347445,-0.8760218603573298,0.7245411266868139,-0.639599316482644,-0.3607775559667143,-0.8362329635792373,1.078107129616044,-0.3274632959908512,-0.36284351012428095,-0.7183785455035471,-0.5107577019654647,undefined,1499022345028
903d185fccf839df,-0.0790840489342352,-0.24467517664040514,2.622459652339612,2.3503200977323084,-0.5482597099648732,-1.6391402853315584,1.7483810556855286,-1.0835928925009555,-0.4605469568980813,-0.8022412199517023,-0.34450052347642135,-0.038807548589151544,-0.8043602384135473,-0.4493682329579683,-0.8897060884788572,0.5729957520509525,-0.6626320405690566,-0.327884247292547,-0.8665221574912322,0.9061064891076677,-0.3596632638783704,-0.34764084316408683,-0.6638436898812701,-0.5492232064072912,undefined,1499022346509
903d185fccf839df,0.01932289523908322,-0.19243084180760167,2.586093163151023,2.3457569873350237,-0.5299203132195636,-1.6967656638912418,1.8508935250640028,-0.5118832624548666,-0.49098809557079004,-0.915706016535671,-0.24426963142200145,-0.015877324111038493,-0.7564895276292335,-0.45770073539999784,-0.8570744596451167,0.32850217982018654,-0.6810161322637309,-0.3270229691615513,-0.8350994797890214,0.5895760434368169,-0.41457571114067054,-0.38308369453000624,-0.6196604119794473,-0.509585013193164,undefined,1499022347980
903d185fccf839df,0.25633144527725477,-0.18890872259088098,2.1407611084309672,2.0508762611045888,-0.3644954466915982,-1.7076012839553252,1.9637884710872127,0.212691023287541,-0.5129578374935763,-0.19517969645134486,-0.23258958456104167,0.05097784738353981,-0.7434338792335116,-0.4354807418386936,-0.7949691364534287,0.36891425899562047,-0.6137847608625603,-0.28460491474131633,-0.7673283690197029,0.6535719864944927,-0.3695925672017393,-0.3728585352506928,-0.49691332537341903,-0.380865070460098,undefined,1499022349484
903d185fccf839df,0.29652593444174075,-0.12316295511730858,2.669672706529593,2.559484592612001,0.07302725215676098,-1.684034040663822,1.8683659597031415,-0.19606634627542913,-0.5365734237093064,0.6699207133250024,-0.42140110811920967,-0.02928062796100943,-0.8304715352049912,-0.3262323851214893,-0.7528638219880491,0.6619023771134058,-0.5490915749927587,-0.2663977025989742,-0.7807412555131126,0.841155848436512,-0.3187207889316006,-0.42284284045303516,-0.516479884297004,-0.41641911338552584,undefined,1499022350978
903d185fccf839df,0.39354700333848236,-0.11377074437535872,2.7583563364003822,2.7158322348660175,-0.05283881781175703,-1.7542303225968572,1.9135065819857024,-0.06499432905759962,-0.3725041983664371,0.568364072992835,-0.4939136476337225,0.011178229506203449,-0.7216744652406417,-0.27531151959694267,-0.7118111376234665,0.6942321309008619,-0.5314133398378444,-0.26288925179062583,-0.7417130442778465,0.9045512531583806,-0.28829009019597335,-0.38437333802901547,-0.5135578184164109,-0.3730050062726449,undefined,1499022352484
903d185fccf839df,0.2965258654309213,-0.3468159032254959,3.211344266721818,2.9000811861830886,-0.14738494396509325,-1.7696452259638737,1.8904826317110461,-0.3128356740254991,-0.47299194233249725,0.03679279687001071,-0.5052675253406381,-0.07533011947714194,-0.5954698640819964,-0.3151223818654499,-0.7244427135574959,0.7972831009733116,-0.6085193455015789,-0.2937306860599916,-0.7350240918257456,1.0429678800424016,-0.2731387929774509,-0.3784772840674834,-0.6314715961918154,-0.3474956816527555,undefined,1499022353993
903d185fccf839df,0.253559315164594,-0.33918470824991787,2.717523644462626,2.8386473403823587,-0.31966009013408897,-1.776905465961393,1.9935447273946183,0.2654910212372714,-0.5601945692057669,-0.3790154112089848,-0.42339626166731226,0.07370485043369555,-0.6172292780748664,-0.3234548584059303,-0.8602323573097409,0.8801280173256835,-0.6447872132940962,-0.33659838073260795,-0.7938043012424741,1.0829576435799102,-0.30049248277958085,-0.39455588329838465,-0.6192345555270511,-0.4016171901992807,undefined,1499022355509
903d185fccf839df,-0.058293952977228114,-0.34211981246851714,2.7519762282851077,2.6812549166160498,-0.4585170008816041,-1.756075080278931,2.066955763885059,0.6979812971230505,-0.5293651348201612,-0.4170860422072418,-0.37028433790478643,0.07505369133936775,-0.36917195855614976,-0.37437572393047697,-0.8086533719371901,0.7588915819463309,-0.6906753579184599,-0.393772195083866,-0.7842326640121162,1.1664788063225688,-0.31125620210498267,-0.3816975206429848,-0.5919050706976527,-0.4451082766418972,undefined,1499022357004
903d185fccf839df,-0.015327402710900852,-0.36383933817101616,2.767288233624817,2.711443987170094,-0.6708035015044125,-1.7897954761527235,1.995588081805186,0.10946822386056906,-0.5117159127319837,-0.20646022345425352,-0.30516922483740533,0.03560908720688577,-0.6520443404634582,-0.49936324761014556,-0.8181270649310628,0.4921713675823124,-0.7323629679035818,-0.44909045832181477,-0.7828472958806113,0.9486216034467734,-0.3860273554645523,-0.347693597420974,-0.5327061347818598,-0.44061428559871957,undefined,1499022358518
903d185fccf839df,-0.06660992925029342,-0.36383936739900846,2.6990209497229056,2.6319809510631313,-0.6077727441551409,-1.7330924772959597,1.9720302678096266,0.03425511663677476,-0.40509831747521136,-0.17805545798752742,-0.12504260456667754,-0.01424423801536152,-0.7477857620320856,-0.4336291177986022,-0.8854955533512024,0.30021354632963715,-0.8171673911507383,-0.454961097741937,-0.8379052008098765,0.8313008448855917,-0.42711003973624817,-0.4312064810326061,-0.5128899678487474,-0.4724462739608054,undefined,1499022359996
903d185fccf839df,-0.10819046621840493,-0.37029656160633606,2.443816625111928,2.410545237306847,-0.607289319289087,-1.7237056429825175,1.8082959140887327,-1.0203756764759837,-0.3514817444427414,0.07686367311769228,-0.04304353938638984,-0.04663549478524416,-0.9479723707664884,-0.4641815749496123,-0.8833902637006736,0.20726574444083407,-0.7823660089410744,-0.4795139193881225,-0.8356942100103559,0.8018128201058529,-0.44231372924969964,-0.4469205909588403,-0.451999375667074,-0.5225800784626066,undefined,1499022361482
903d185fccf839df,0.48779597662797297,-0.3597302039561741,2.3455629601367014,2.343905980946099,-0.3706051441147247,-1.6838011170917724,1.7595314194907026,-1.1463853333517953,-0.4287482987019769,0.5489909124208936,-0.16071287164608294,0.03244325608654753,-0.7608414104278075,-0.4595524112431874,-0.8339165311674827,0.19110069795877682,-0.8617662148039732,-0.4974551498338471,-0.8062516308016769,0.7318114890186824,-0.45233021126351053,-0.4619382005150294,-0.4907775992842463,-0.5351527913519754,undefined,1499022362972
903d185fccf839df,0.3949328096042397,-0.30220276336827046,2.15990168691374,2.208168495656699,-0.5429008606895399,-1.7302321703603734,1.8093425918419712,-0.9632944121544603,-0.44314783783458256,0.48013744888495413,-0.14397716004353295,-0.032270984718804296,-0.7347301136363636,-0.38826321504975164,-0.9065482069027753,0.20524501470405154,-0.8264784222328141,-0.5050800147799502,-0.8482254988471373,0.6378193824301868,-0.4816477259238697,-0.47810028099224494,-0.5149502232831272,-0.48881508957756964,undefined,1499022364492
903d185fccf839df,0.30622795851843154,-0.3403587967021453,2.226892695055647,2.1644153348881745,-0.47178554730851147,-1.72185156787469,1.8418469982683758,-0.6956369481477271,-0.4540529951088494,0.06018160891963867,-0.14768394585113787,-0.06692490769512051,-0.6520443404634582,-0.3669690335084931,-0.9212850651250997,0.3224403580512189,-0.7750130448958222,-0.5401835193967509,-0.8433767092215702,0.6257316017047919,-0.4940310826432657,-0.4725945610451316,-0.546764333877801,-0.4736794701887776,undefined,1499022365978
903d185fccf839df,-0.033345575587705636,-0.33742366325555373,2.2364624760231346,2.079631964864751,-0.6532149532509856,-1.7733999615274505,1.8974647698584832,-0.5456975658680135,-0.482155261394828,-0.2864172188983206,-0.09938034459654388,-0.03582174833087115,-0.6520443404634582,-0.46047824916478225,-0.8181270281198938,0.33860517841550386,-0.766822304565441,-0.5677951525622833,-0.8158582519579599,0.6095478349214783,-0.5047032301316023,-0.4311166808891721,-0.5635281835228966,-0.4746488528083537,undefined,1499022367492
903d185fccf839df,-0.23986176405431114,-0.3585562616439083,2.3283365411569856,2.346182483978354,-0.5572699715962343,-1.727721250845037,1.9347448946610208,-0.18733801095167638,-0.6101994817948122,-0.44114516143262855,-0.07024139467582308,0.027414657668722482,-0.7042669340463459,-0.5197316430329075,-0.8602323720342085,0.24565715040892852,-0.8155715265714626,-0.607654699990275,-0.8316150697341498,0.4458161671297264,-0.5599599682150453,-0.4328079560313694,-0.6317155012758715,-0.4947948340299742,undefined,1499022369007
903d185fccf839df,-0.1178925593059152,-0.36149133663451527,2.6460661794346025,2.524762969759555,-0.5957899061590788,-1.7154112220067659,1.9916144440577692,0.17060509844417926,-0.6267910557901777,-0.634739126638967,-0.03290617420140549,0.21806338861997243,-0.40398702094474154,-0.528064119573388,-0.8454955138118841,0.13856489045124307,-0.8124385018296167,-0.5942731881008694,-0.8068393620528121,0.3913056686478574,-0.5625362965857301,-0.36231753238197834,-0.647650348969757,-0.519916553132819,undefined,1499022370505
903d185fccf839df,-0.2648101069384239,-0.3843848631052647,2.595025314512407,2.524762969759555,-0.6674400800872275,-1.6871691962949802,1.978589016241471,0.08282065567165339,-0.594298142857419,-0.5054501892539859,-0.024175261476956547,0.24039375633375126,0.40981506238859183,-0.5299157954165775,-0.7633901377204849,0.19312151248972398,-0.8157838964332941,-0.5771172425493347,-0.764809519281773,0.4468940534914597,-0.5361452123751925,-0.31624039023116757,-0.6260650301797291,-0.5124957986436293,undefined,1499022372004
903d185fccf839df,-0.3479710083475982,-0.4178448349101531,2.6230977902196146,2.6343195873134704,-0.6759874947202977,-1.7117845967298486,1.9544237244547011,-0.05362021778677902,-0.5030968178653893,-0.3355766096726746,-0.1544522762360601,0.1509518358598375,0.3184255236185384,-0.5697266447343102,-0.8065480970111288,0.08198804744096727,-0.8625955022346736,-0.5709489572014347,-0.7736604839152302,0.461414789768589,-0.5354654783598578,-0.3384239718554897,-0.648246230013733,-0.5275108309156102,undefined,1499022373506
903d185fccf839df,-0.19273738092579504,-0.329792409823991,1.884280762196934,1.901150546973079,-0.6335589971033094,-1.7763324731631798,1.9635517827522344,-0.1374130361079797,-0.4637433069464683,0.4333531474426775,-0.05752271958210288,0.11557526132083057,-0.8391753008021391,-0.5641716431062905,-0.8391796963959343,0.26788384907162416,-0.8367597547518836,-0.5661992492772908,-0.7603595461572822,0.49489100987264506,-0.5196108431668335,-0.37423318180270154,-0.6359623804910401,-0.52596142047668,undefined,1499022374979
903d185fccf839df,-0.32579476107073646,-0.5170504280486523,1.5429443426873775,1.4551604465731278,-0.6710606440123954,-1.8450287254113962,1.8487791596747858,-1.0613652840214332,-0.37208404885973473,-0.07226562861271704,-0.15027756068048606,-0.00574705192501781,-0.8348234180035651,-0.5030666251980739,-0.8065480970111288,0.3183989833718185,-0.7613117512684096,-0.530551110053628,-0.7711556256091457,0.5652927011068362,-0.49262623204395556,-0.3808322026852167,-0.6032151103463387,-0.488441394592238,undefined,1499022376480
903d185fccf839df,-0.2204575778792906,-0.5064841580824673,1.0586935013956729,1.1817143582205778,-0.7749770437787169,-1.8374027971748095,1.8687788254910307,-1.0097968921075653,-0.250637916519022,-0.14264991957434556,-0.133143190568739,0.07273238970357572,-0.7564895276292335,-0.49843740968855077,-0.8991797520237949,0.4133676845857333,-0.7018302925486457,-0.5454525268255113,-0.8879813768231419,0.3383658115072732,-0.5761504920924533,-0.4526967301843287,-0.5633833814883783,-0.3900542744118107,undefined,1499022377986
903d185fccf839df,-0.12620867360061944,-0.4929827546696907,0.7594663037208265,0.7039339598350287,-0.7493142313701814,-1.7961612879974769,1.9474021361127445,-0.45808009278679973,-0.2397848084679284,-0.6887768128881009,-0.16420933917257183,-0.061588837708931664,-0.7564895276292335,-0.4577007742523215,-0.9181271969094106,0.30829606957066574,-0.6426377539358211,-0.5328056382851495,-0.9239729718137257,0.2343031197121831,-0.592891114364566,-0.47652643929307803,-0.5639365582707415,-0.33446722999018796,undefined,1499022379483
903d185fccf839df,0.13574818481625509,-0.3456418732292531,0.9215213039857469,0.876948178915884,-0.5862036440611902,-1.771499302630112,2.0425642922400664,0.32334167393144075,-0.3398001905433171,-0.7124457840433682,-0.33474374686644953,-0.050551097532146816,-0.5475991532976827,-0.36696904645926764,-0.9381271982734853,0.055720030628314245,-0.6332201443202491,-0.4699891689857188,-0.9263518880011609,0.10943712522476318,-0.5899261314200616,-0.454051351537772,-0.5108575170973474,-0.36670135364963913,undefined,1499022380985
903d185fccf839df,-0.10403239181834795,-0.3068988541252492,1.0191368310809714,1.0551395629464784,-0.5175671859730339,-1.7635868776974595,1.9587418617420083,-0.13138212484314002,-0.4391894103728985,-0.8105355053354506,-0.33004421162877584,-0.04586774112520574,-0.5998217468805704,-0.423444939513383,-0.9276008899032834,0.30627550942221243,-0.6250150216099821,-0.5030851332860223,-0.919655939814786,0.24483565620897066,-0.5815109100335503,-0.43071077801737784,-0.5153679232604683,-0.3178542642996065,undefined,1499022382481
903d185fccf839df,-0.14145481988099273,-0.3051378675868697,1.8345156647608438,1.7577815361082734,-0.3119046754793212,-1.799745986777296,1.9992198422216443,0.16971080121173246,-0.46974090858507844,-0.6313590900461439,-0.29767153948255726,0.0050115397007072515,-0.8087121212121212,-0.4327032280739092,-0.83602179873131,0.5325835032871894,-0.6202552994263965,-0.5014449022632811,-0.8590215771795787,0.5311389526206353,-0.5074493886631606,-0.42098767266348086,-0.5383580142092154,-0.2657468906516018,undefined,1499022383979
903d185fccf839df,-0.2149135246864276,-0.3967122365217985,1.9550998352080058,1.9679526237462226,-0.245705927871355,-1.8111173317070048,1.8951110837120198,-0.5244294440251736,-0.4376002693059134,-0.5048608619451463,-0.12872550407317773,0.014651036925181372,-0.8565828319964349,-0.3512298924475779,-0.7728638454388252,0.8740663368803234,-0.6515512231083822,-0.4371655240263393,-0.7500322537559692,1.0818797542295444,-0.34268326966689855,-0.38582587869501017,-0.3285783711554918,-0.3152458968781621,undefined,1499022385474
903d185fccf839df,0.15515237099127563,-0.5088322180749528,2.1777654813626097,2.072667814160238,0.003351943374944959,-1.7665147296732602,1.9212934344935253,-0.17031872487838395,-0.3933530462384181,-0.07673490107950112,-0.1943301272415811,0.03785540651876435,-0.9131573083778967,-0.2873473219222532,-0.7139163831005925,0.9084165942867898,-0.5426023882018444,-0.41215672840896184,-0.6397765075514469,1.4488247075048386,-0.23433234696233077,-0.32527972837785124,-0.19266251117397687,-0.3498385028880675,undefined,1499022386995
903d185fccf839df,0.14822223548937738,-0.41843184990827453,2.3966035709219473,2.139498803896397,-0.02634286049620757,-1.775200463185083,1.9215774469824682,-0.1662130695589236,-0.34382290339658333,-0.5290062012358445,-0.237522297796973,-0.05225049386699601,-0.9740836675579323,-0.2706823688412923,-0.7023374740785289,1.227672616158342,-0.5663813354630346,-0.3676171351106143,-0.6175896195825097,1.6662507537062041,-0.17005281038852768,-0.330220149718109,-0.11493957195683337,-0.35359691833369444,undefined,1499022388496
903d185fccf839df,0.20504878071622323,-0.4695021255168429,2.5433463117102093,2.459804112299586,0.019089059055596512,-1.749287678640075,1.857504854114174,-0.538567973737336,-0.30476674011432814,-0.5123841496878976,-0.3055069983293341,0.0033619773700416912,-1.017602495543672,-0.2799406185494948,-0.690758506158595,1.181198630419776,-0.5200901295518909,-0.30685254042637844,-0.6269863364614289,1.65574901369644,-0.149400108042996,-0.2583031564844372,0.07020713959273689,-0.2660216350189783,undefined,1499022389989
903d185fccf839df,0.2119790542397604,-0.40375647495523986,2.683708690246247,2.438897458141992,-0.17793346578176497,-1.773302134382729,1.9484750959259118,-0.09009801754070268,-0.24613536449267603,-0.3247765925721237,-0.2247766230441791,0.09627392575179056,-0.8304715352049912,-0.10218056645286454,-0.7033900526436891,1.5085372320618,-0.29880867806011885,-0.19538006374067532,-0.6129997117819848,1.732063705343392,-0.08488364242039823,-0.2384061631180539,0.3372750358241971,-0.2762915049607066,undefined,1499022391490
903d185fccf839df,0.28543782805601475,-0.4436734948274942,2.582902982024911,2.4285746312751013,-0.20082943833224617,-1.7211434796045815,2.0073012319317547,0.3790129595698085,-0.21304869982646935,-0.2658121434299372,-0.261512094043182,0.0003096274742542592,-0.42574643493761144,-0.2355006184761118,-0.6991795322405019,1.508537288591243,-0.3232565631968187,-0.23478997335795543,-0.6490053005778339,1.58884276488021,-0.13553195465449594,-0.2255781492288573,0.11795337698261536,-0.26165290423642784,undefined,1499022393004
903d185fccf839df,0.25633134176102557,-0.3896680857723342,2.725179265927056,2.6478175567967956,-0.3435949097532851,-1.7069700592271222,1.9741630449656544,0.20155756117630655,-0.3864882702874852,0.006897280281770879,-0.3397356442155498,0.030001071670671467,-0.669451871657754,-0.26975649206737384,-0.7297059008726489,1.1609925201702551,-0.46697228893023524,-0.2615276621120342,-0.7352270019470374,1.3985949732626006,-0.20766273724514311,-0.24834918517161453,0.03902267212298392,-0.28296925670458917,undefined,1499022394465
903d185fccf839df,0.24524337339693847,-0.22178156248567868,2.5376040873379875,2.239508881625184,-0.24021336636899923,-1.6604504920187069,1.8751666285794446,-0.376704802742972,-0.4118023790795167,0.3739615930981869,-0.27615974202289306,-0.11003472772888884,-0.7869527072192514,-0.3493781518505156,-0.7254953804694616,1.1165391228448638,-0.3814019910907805,-0.3017481877393504,-0.724927696483378,1.4247723301712676,-0.21241038242797114,-0.24861238743082034,0.03523404174316459,-0.32858736904411423,undefined,1499022395989
903d185fccf839df,0.5099719823669666,-0.22647768247064978,2.944655493366396,2.7815375912143803,-0.13478496670338866,-1.7231349773858091,1.8831875364762176,-0.3701472496780685,-0.4319082760719312,0.6988966241667594,-0.22406240461629234,-0.022249273574138993,-0.9479723707664884,-0.3327131858187801,-0.7149690573747921,1.389321272036736,-0.380905938966378,-0.3006589226227588,-0.7025239084844518,1.5761390475081842,-0.17323344859431677,-0.3044641666555277,-0.1681061567553026,-0.39320154272370816,undefined,1499022397497
903d185fccf839df,0.3602825461596654,-0.3409457240162897,3.212620542481822,3.058867104835464,0.10681577665666397,-1.759487412979599,1.9023693433667257,-0.27334239601783694,-0.31535593488143876,0.7528212233037821,-0.22225096569249397,-0.060294488455645834,-0.7216744652406417,-0.42437073858265423,-0.6570742472240576,1.2357551393993707,-0.45288436152470435,-0.3599606073507372,-0.6655247719935791,1.6002376227224704,-0.18632817896086448,-0.31656338425119346,-0.2860508571615201,-0.23391461012066236,undefined,1499022398993
903d185fccf839df,0.29098188124887775,-0.41373575915129573,3.3497929940286975,3.003535068156753,0.1300305974551603,-1.8480544061501283,1.9176195940790839,-0.2671498683265609,-0.29652249265985486,0.4076326171673077,-0.28283256684684444,0.01235387629027961,-0.843527183600713,-0.40215073207057545,-0.6412847515387026,1.2903114787906362,-0.4191147246314286,-0.32934082338050386,-0.6533503209091173,1.8739757866806794,-0.12006595702753599,-0.37647598274106564,-0.20074092803316618,-0.28019005913786604,undefined,1499022400486
903d185fccf839df,0.25217330186637826,-0.43780337407427267,2.6856231038862535,2.625405000067872,-0.016736017593791244,-1.8487415321094522,1.8594824765321736,-0.7228651734157483,-0.3431132275325738,0.4467528806371952,-0.4392471013915187,0.047476384055232135,-0.8043602384135473,-0.3771531988429377,-0.6539162980237968,1.310517589040157,-0.37151688148644907,-0.2940789928574422,-0.6127408304768928,2.1322847067804678,-0.04665188133900315,-0.37877795800689457,-0.1924780550809666,-0.3410245618412578,undefined,1499022401979
903d185fccf839df,0.3533525486794061,-0.4771334374043903,2.5541926225746505,2.471584489142636,0.0641815558404949,-1.8283397259284384,1.9069452113449268,-0.35216025525377026,-0.13632776619031328,-0.06176402417335883,-0.33131184198159574,0.01588707140638227,-0.8043602384135473,-0.3475265407611987,-0.6623373977280417,1.567134691749972,-0.3566551823388524,-0.26916519257453553,-0.6221235545904471,2.270131596258267,-0.008932552204973607,-0.36026701834986913,-0.25457970684413916,-0.33411078186467563,undefined,1499022403478
903d185fccf839df,0.6527315591156475,-0.43369421063143826,2.70795310108429,2.901269381903987,0.14976884119166853,-1.7880881430848155,1.9851793131490643,0.25025801265106046,-0.1752185856052707,0.22832702616570766,0.02273377060345691,0.077448347809271,-0.7086188168449198,-0.34382316317327044,-0.6707584974322865,1.7065568185539997,-0.37283798108238175,-0.24536598724509698,-0.6303727935252127,2.3458149536747306,0.012262776689493087,-0.39896733599891854,-0.2018619684748849,-0.4351631616975797,undefined,1499022405096
903d185fccf839df,0.6818380454106368,-0.4524786905713227,2.7373015984145526,2.9295343909283305,0.007270797129430355,-1.8118067869703292,1.9926689991748976,0.21747721726580252,-0.08663087471525567,0.21127818947040164,0.11718042709108041,0.01245483684703377,-0.6302849264705882,-0.3530815423892184,-0.7128637603620295,1.5893615034715538,-0.38966563275400407,-0.27706237040581033,-0.6473260663833915,2.285668623257546,-0.015457886437312518,-0.4256146539904992,-0.1711195361628885,-0.5384557928567208,undefined,1499022406487
903d185fccf839df,-0.06383793715927165,-0.5264426972465869,2.686898871372359,2.6649570218548644,-0.396031388130063,-1.8385697462761978,1.938729053193575,-0.36065854234648176,-0.22590203135417203,0.4183687988423824,0.1450819526910778,0.07233451383146969,-0.673803754456328,-0.25401728625258596,-0.7728638454388252,1.1448277563354132,-0.41888851028331725,-0.28920895844976113,-0.6716679711358495,2.000412421984354,-0.08637275618080206,-0.4062682385656531,-0.10552271762003208,-0.550902203614364,undefined,1499022407987
903d185fccf839df,-0.08047016574868016,-0.4348682552416772,2.4087259034094437,2.5397053209398672,-0.6220801548872531,-1.866727918863315,1.942350287325407,-0.3867246024537229,-0.3336191994886865,0.07541916432128212,-0.19847412575847095,-0.030766314171988808,-0.7782489416221035,-0.21790978862123245,-0.796021781278693,1.160992463640812,-0.3840007720742014,-0.28523820350594964,-0.6877676321311635,1.9416057591615434,-0.10241136043418092,-0.4205890837707778,-0.12827294160762248,-0.5630817193811825,undefined,1499022409485
903d185fccf839df,0.13436210250721986,-0.47067621396907033,2.299626181706725,2.219127879406602,-0.2554259125629657,-1.8518627137173869,1.8805577377264198,-0.6822991934580848,-0.3684636966959451,0.6439260016464486,-0.3052766401990525,-0.06768358727004439,-0.9479723707664884,-0.21420643693485328,-0.8254954682744067,1.0680444921636798,-0.42858693319118957,-0.294800949411118,-0.7029507125593563,1.832954326302059,-0.1296067551906703,-0.415832804011812,-0.08730716643484142,-0.561295761834075,undefined,1499022410977
903d185fccf839df,0.026253134257210653,-0.3920160580808427,2.4718891008191353,2.426770322627891,-0.04088684781965254,-1.8424269658904773,1.8308202130970956,-0.9094647479106565,-0.42095559779057334,1.2238416525125861,-0.3866749628868252,0.0063300226730977705,-0.9610280191622104,-0.1688405600875518,-0.8033901993465046,1.146848288219145,-0.45356802203978347,-0.28855033549089526,-0.7032375821784408,1.7121535215605437,-0.14600115107857556,-0.4491892057584954,-0.008042349133256244,-0.6092879513109128,undefined,1499022412486
903d185fccf839df,-0.05552178835915767,-0.4143226572374478,2.586730792757126,2.598092180945742,0.019161045021241892,-1.8223233014921565,1.8599400436103954,-0.7090874810495345,-0.4373994753908723,1.0534247293479286,-0.3409412166133293,0.0075324953275121825,-0.9871393159536542,-0.15124975613422156,-0.7781270033050431,1.2094872073808822,-0.3699485735293975,-0.264282495075516,-0.7236192926598104,1.7232558030024465,-0.13712369815818828,-0.4326413109784197,-0.029870200386964457,-0.5743943935327156,undefined,1499022413975
903d185fccf839df,-0.09710239433808865,-0.549336282173321,2.708591493101242,2.6513078363222147,-0.13179184355502058,-1.8470877721152743,1.964524802832071,-0.1237577743872091,-0.4138609292140521,0.7031030913082386,-0.22876566034703433,0.0666968265986856,-0.8609347147950089,-0.21328059901325847,-0.7770743658420125,1.132703999738592,-0.40851494181791326,-0.2953012532682852,-0.7596668618437887,1.801834072214967,-0.14527171508587575,-0.4496549994988838,-0.048793705507316945,-0.5643205043843182,undefined,1499022415487
903d185fccf839df,-0.027801522394842623,-0.5393570272052574,2.647341946920708,2.687858383398177,-0.24145793664489726,-1.8677155143395963,1.9124230882933748,-0.5544411209910024,-0.32132929928193577,0.387613525715141,-0.12100081610463104,0.014133653839118111,-0.7216744652406417,-0.2919764985794526,-0.8307586555895597,1.082188893703119,-0.3719781714482193,-0.3740514061636777,-0.78246946921881,1.6624165487328415,-0.20755667698850547,-0.44434194132704086,-0.16928707647727187,-0.5173414681351255,undefined,1499022416979
903d185fccf839df,-0.08047009673786068,-0.5235076222559799,2.491029679301908,2.4818304490160914,-0.3597125945739303,-1.8709741212851796,1.9343214879231996,-0.47699381904633914,-0.30997401342332953,0.6730618752056098,-0.12450722263688892,-0.06818859400711606,-0.7608414104278075,-0.35122986654602883,-0.8528639392419294,1.177157397063983,-0.4620480836394062,-0.3951907732606087,-0.7985411427993394,1.5695947197710987,-0.24303519251427075,-0.42545987637306026,-0.1120043932911576,-0.5615370209791004,undefined,1499022418481
903d185fccf839df,0.13852007339104766,-0.4918087831294326,2.505703800898565,2.396196945243327,-0.16103407407578224,-1.8333662253629086,1.9098090599841846,-0.49041471870523773,-0.28370752674281996,0.5154210400530329,-0.22448961007878443,-0.098616888400513,-0.09065145944741532,-0.3780790885676307,-0.8802323954849846,1.229693204571517,-0.39971831503344896,-0.4317888535984836,-0.7869614205231709,1.585732286990908,-0.25470290116133365,-0.3722824873439932,-0.23935727880390137,-0.43885906767992733,undefined,1499022419988
903d185fccf839df,0.3284041712898836,-0.35796924664578694,2.3615131033564127,2.3886583617363724,-0.07135308315578094,-1.7907341590610033,2.023968946187256,0.3858005526505884,-0.3281978200678303,1.1898403506254258,-0.2995154122960392,-0.16917661656966537,-0.2647267713903743,-0.3623398957036173,-0.8033901551731019,1.1710956318244585,-0.42286088060939425,-0.4159501621644829,-0.7526630535200605,1.6965086985504387,-0.216256071838086,-0.3992436734284855,-0.2311306400340618,-0.41810613954099385,undefined,1499022421528
903d185fccf839df,0.501656040599311,-0.2699168507876171,2.3410967573875343,2.3132009124861557,0.15739053257253643,-1.7106129904266525,1.9155446815031913,-0.004437212328679915,-0.3727557092243539,0.7286519726955739,-0.3475213903757568,-0.13474023935415347,-0.7216744652406417,-0.4141865991497587,-0.82233758533425,1.1630131085834299,-0.5174048484762677,-0.4713507530003012,-0.740404640845771,1.6419366073503068,-0.2429151621374351,-0.3935165176965392,-0.26561788360010186,-0.44184708464126315,undefined,1499022422982
903d185fccf839df,0.498884083013699,0.026525957087622218,2.0718561949229524,1.81120127116499,0.04496786119335929,-1.6180001076383792,1.9325332265436488,0.2771547800261279,-0.381054473613692,0.2791312865063642,-0.21820810595445303,0.027398090138868098,-0.8174158868092692,-0.40492827173690893,-0.7918112461510383,1.0518796717993948,-0.588790646976423,-0.4502050531700862,-0.7422727872945111,1.5707803881563187,-0.2441284926987727,-0.43863890543157047,-0.3743918793142302,-0.5129959585874967,undefined,1499022424477
903d185fccf839df,0.6277833887585834,-0.15251376347936263,1.8581219377188847,1.7175484027533816,0.14588084157752987,-1.4898267311879303,1.9003522843719902,0.3593877601862698,-0.7366263016098161,-0.7314033786483205,0.04047708930443206,0.03268267929505644,-0.7695451760249554,-0.4243707644842033,-0.7781269885805755,0.7669739921284734,-0.6865333750575431,-0.46591075375024155,-0.7465128551629083,1.3182766835514081,-0.29870819074119587,-0.4396125665974209,-0.4594937814690655,-0.3951057186196922,undefined,1499022425988
903d185fccf839df,0.4780938145296433,-0.20828024675687912,1.6743748239989804,1.7027264897915841,-0.1263815516648146,-1.4710530625030582,1.870025355213484,0.08182143792474765,-0.7547076299786735,-0.6419811691589531,0.04200860475305753,0.0835281534392436,-0.5301916221033868,-0.45584908545835734,-0.8265481204619048,0.853860141836638,-0.6194051125226847,-0.5027494878635439,-0.8061746622240308,1.1715448978361056,-0.3585707480933716,-0.4902144506629006,-0.4219159594907282,-0.4922515566080513,undefined,1499022427479
903d185fccf839df,0.17594250145369245,-0.19771391833470947,1.8715200376924863,1.7130011352822447,-0.19523400417141973,-1.5355403816790645,1.830607200980644,-0.3321450360152199,-0.6899872951772126,-0.7619119967224705,-0.07595525164104391,-0.07214393579721208,-0.6346368092691622,-0.5197315912298093,-0.7876006742122145,0.7043352142903438,-0.7148783059786951,-0.5445912466238026,-0.8083436734734596,0.937981273321988,-0.42493701342445833,-0.4783214688968159,-0.5352405543732637,-0.5494054834065931,undefined,1499022428987
903d185fccf839df,0.3187022162240123,-0.29398449493858636,2.238376635526192,2.1003673129307607,-0.1891551620129326,-1.5889801156939483,1.8483347333646476,-0.27319138550040356,-0.4950904905262617,-0.9137829951143214,-0.1653714561960348,-0.047688093350411534,-0.44315396613190733,-0.64564503053572,-0.7402322092428508,0.8619426085482236,-0.7286006366031881,-0.5591633506068314,-0.7864996310725979,1.023689024782023,-0.40660484042204903,-0.4802932947595442,-0.5071951144992265,-0.4648452734177598,undefined,1499022430475
903d185fccf839df,0.1094139321501558,-0.2963325549310719,2.2849515518361696,2.1306380833221317,-0.33147835480096893,-1.5798681340826435,1.7923198606658886,-0.7095339708562683,-0.33462691419632207,-0.13489907380219004,-0.27242379477955714,-0.059178926269695176,-0.8739903631907309,-0.648422557251279,-0.732863769088338,1.0175294143929285,-0.6503384546837709,-0.5586947144357042,-0.754573183855889,1.1461066654068854,-0.37377490578774686,-0.46077304710997335,-0.39418701149394353,-0.4847803501636353,undefined,1499022431980
903d185fccf839df,0.25355952219705247,-0.11318375860522968,2.56695258466825,2.3384192363369385,-0.16831634268574344,-1.565131038183226,1.8195357168759545,-0.35851424462660353,-0.36685853446703864,0.1540224004517215,-0.46418133696775565,0.012422652070443104,-1.035010026737968,-0.5678750206942188,-0.7402322166050846,1.0094470042107861,-0.6139082071416602,-0.5668768765706348,-0.715181138265407,1.199554666993107,-0.3602288436233074,-0.4047669528458421,-0.3754004538588759,-0.5048993272931629,undefined,1499022433495
903d185fccf839df,0.27712174826672026,-0.12962012009664384,2.5458983549563188,2.352427210368785,-0.20602370684045967,-1.5783075445106816,1.8925443881988486,0.09247489197973222,-0.3218460787143522,0.2607329381321811,-0.6302461364436568,0.030714984067743197,-0.9131573083778967,-0.5456549753298163,-0.7318111316253073,0.9144783595263143,-0.6247969793037914,-0.5335212618397813,-0.697136363479353,1.1870511288060792,-0.3473847154811587,-0.3754976471937607,-0.24572989585316235,-0.4647901016537189,undefined,1499022434981
903d185fccf839df,0.5557106972513643,-0.20945421829713723,2.3953275492988926,2.250607465983675,-0.08610277144061428,-1.5831220809089297,1.993526316151568,0.7250559245287765,-0.4479634650926684,-0.25967722089984646,-0.4687444473015,0.0190489950868695,-0.9740836675579323,-0.4141865732482096,-0.7181269476771825,1.0215705064251137,-0.5161005833066667,-0.47803834225446706,-0.6680576174330634,1.3076517517105215,-0.28259191232653175,-0.3977075163919904,-0.16677913397845454,-0.5998047756076138,undefined,1499022436479
903d185fccf839df,0.12466014744134854,-0.3884940557760914,2.9969726340485963,2.7721297567525167,0.21977328824566483,-1.6954938982544516,2.026212173255594,0.8692240199223823,-0.5016091012901538,-0.08219103335228739,-0.5772820183155509,0.007984233761307883,-0.8696384803921569,-0.2216131532583862,-0.6528637047341689,1.0963330691247861,-0.4859304791164416,-0.38263887729745805,-0.6076961296941161,1.329933307050418,-0.22199123491304099,-0.35647962662927113,-0.07173903733067169,-0.5357850309785336,undefined,1499022437999
903d185fccf839df,0.027639078544606937,-0.3022027049122858,2.955501550093888,2.6004188064778613,0.240149255557256,-1.7477713423793793,2.0327209452082924,0.8595181449476648,-0.5326069706524436,-0.8635218778853265,-0.5241492645795841,0.020672622503922437,-0.847879066399287,-0.2567948000173703,-0.5307582743789838,1.2074665624382643,-0.4234817391367884,-0.3862106550233974,-0.5802546388549463,1.4079110348577242,-0.1925350779359676,-0.3585362362535801,-0.07591961971247874,-0.49286033290046877,undefined,1499022439487
903d185fccf839df,0.07892143255695083,-0.3016157775981414,2.9618816582091627,2.7642343450988376,0.13123401493229714,-1.7895182963741163,2.027053708530798,0.693183186371059,-0.49145177450262717,-0.5829541820409536,-0.5761109880853544,-0.0009837031228237796,-0.7477857620320856,-0.2679048032734097,-0.5097056281896447,1.5570317496840977,-0.4063568958551214,-0.33295693307420476,-0.5535757986457378,1.5592007559691035,-0.13076075643731594,-0.38853394173476863,-0.053355407239025536,-0.501111836650923,undefined,1499022440990
903d185fccf839df,-0.013941320401865631,-0.2975065849273147,2.7404917795406645,2.5195485363434287,-0.07697935076356428,-1.7841843369094093,2.027235168112355,0.5080418105398483,-0.40688521431871993,-0.7553596150196615,-0.35090348535791693,0.051513662203698234,-0.6476924576648841,-0.24846232347688987,-0.5097056281896447,1.716659817149317,-0.4367541147508349,-0.3231788670840052,-0.5375950821996812,1.640042597012248,-0.10330120587350992,-0.41871486163225424,-0.20786269172071126,-0.5199004936406562,undefined,1499022442482
903d185fccf839df,0.0054628657731549,-0.36383936739900846,2.891700468941144,2.8720819749976996,-0.0479736782412926,-1.8293552731388023,1.9554625083455812,-0.006317882806659851,-0.3872984432709178,-0.48970204716489707,-0.4179821275089634,0.08016303468706856,-0.8957497771836007,-0.2956798502658318,-0.5244424348763326,1.6964535938409102,-0.5465446622749025,-0.2850228820035319,-0.5571371758529804,1.6109703341097794,-0.10970477350297339,-0.3971724229284479,-0.21388044512510543,-0.33992189272040957,undefined,1499022443987
903d185fccf839df,-0.0028532140161396133,-0.3567951874215518,3.2649374290270727,3.046266729136841,0.07061012532183834,-1.8388539115127633,1.8677400777396531,-0.4779817383195149,-0.3373951326148224,-0.13943448501039668,-0.5319773138798435,-0.059775316625945894,-0.7738970588235294,-0.38548570128496723,-0.5349688095066386,1.6358352065629047,-0.5557931920804903,-0.3233688575923833,-0.6046245310833595,1.5383820603239498,-0.15282883134818817,-0.39921527701458775,-0.23414648730040916,-0.49024193439169594,undefined,1499022445479
903d185fccf839df,-0.02641564711826581,-0.36560041239337265,3.2630232695240156,3.0921553256282217,-0.0003611846196929025,-1.825994182031978,1.8646211219278335,-0.4676562645261046,-0.36396441687120645,-0.30233455333058196,-0.5963085982027415,-0.006898359063263757,-0.7434338792335116,-0.38270821342173195,-0.5360214911430721,1.2822290686084938,-0.6775841011691007,-0.3307657373855268,-0.6102709553382177,1.4403863538941892,-0.1874700969871346,-0.42143599658272757,-0.2928951340757791,-0.5241939579902183,undefined,1499022446976
903d185fccf839df,0.1426783203181533,-0.366187427391494,3.0550312366921695,3.1091415783640124,0.04582159780974134,-1.814678737803802,1.9560200245848307,0.13553971862580833,-0.3521753490834344,-0.38688552653470243,-0.5183937536257217,-0.05704586710719336,-0.7956564728163993,-0.3771531729413886,-0.5833898972145652,1.0963331256542292,-0.5795982179348659,-0.29143815681672275,-0.623634863494848,1.5255551542440573,-0.16274517527168628,-0.3458726616062816,-0.31088473946755074,-0.6601979186755098,undefined,1499022448487
903d185fccf839df,0.20643493203607793,-0.36560044162136496,2.7105051443304,2.607532462269243,-0.08084676888699638,-1.7884957589173056,1.9577504331688658,0.050791035326356745,-0.18462656073372022,-0.8491170969470963,-0.42002545982559464,0.06454234229812204,-0.6085255124777184,-0.3669690594100422,-0.5223372188481417,1.0882506589426437,-0.5002593263023739,-0.34181039063291524,-0.6047084890090675,1.4485937213322164,-0.18557775031861606,-0.33870446162940016,-0.3063962375893317,-0.6317567554544659,undefined,1499022449989
903d185fccf839df,0.06367528627657756,-0.3837978481071433,2.30090220332978,2.1251968364803147,-0.17524890268172144,-1.7571651615197137,1.9495217744647917,-0.04682598970521697,-0.26780357395586524,-0.5078985310275688,-0.46394067954597357,-0.03203311871049766,-0.6041736296791445,-0.39289237875617655,-0.6033899795632117,0.7871801023779942,-0.5045207307937081,-0.4062797577172353,-0.6409449727840612,1.2562825391960257,-0.26513113235903984,-0.3126545150644507,-0.31249454735356436,-0.5069981497193005,undefined,1499022451479
903d185fccf839df,0.03456907602486623,-0.4929827546696907,2.0042267947640937,2.0894896408439396,-0.3876691196566265,-1.7279565009829956,1.8371080761902985,-0.8834138747627743,-0.44587866586279046,-0.01804218348859045,-0.30209146156202693,0.01963699989116293,-0.5998217468805704,-0.425296576504249,-0.6844426887426451,0.8680044868466343,-0.5538913491401178,-0.45724095508503176,-0.6926933863215846,1.3017849437397022,-0.28859642675049224,-0.37840279358211376,-0.31120776116058074,-0.5564375711104005,undefined,1499022452986
903d185fccf839df,-0.07354009925760138,-0.4078654630301202,1.7343475861456108,1.6389296199250254,-0.45255129639123814,-1.6990063885567939,1.8481269589881055,-0.7545180029652612,-0.44446861989648573,-0.08989921125958648,-0.3169615210559375,-0.10571282656690295,-0.7390819964349377,-0.4697366283807302,-0.7128637603620295,0.5952223941842051,-0.5877067398035319,-0.5120652489431473,-0.7266069293137157,1.0372242557176206,-0.3678614429955138,-0.4411808577222215,-0.33443578717394506,-0.4251167129411213,undefined,1499022454458
903d185fccf839df,-0.43251785404416887,-0.1178798201342161,0.8921730607924339,0.8473201003504072,-0.9022419695127188,-1.3937036867362727,1.825060932905553,-0.41484450383930765,-0.557789139632228,-0.467820449550748,-0.08274436501156002,-0.020564240211334538,-0.9001016599821747,-0.4993632864624692,-0.7170743028519181,0.04763767697561484,-0.8217222876088457,-0.5907774072825451,-0.7343104198751191,0.38761003965409047,-0.5115389994145837,-0.5405646117250511,-0.5232846697551224,-0.4874304165354541,undefined,1499022455978
903d185fccf839df,-0.5572591543998158,-0.6391496061138855,0.5463704385337104,0.5895411006262444,-1.1142918998178284,-1.180804232704688,1.7564545557233675,-0.5736723624317125,-0.35547989794134044,-0.35552289793307035,0.250417543979919,-0.058495125914918636,-0.9523242535650625,-0.5215832670729988,-0.7412848761548166,-0.22110323886046468,-0.8625621887862706,-0.5927089529227034,-0.7969598635473275,-0.1934810949138917,-0.6425866713147715,-0.5451763699871391,-0.6795321151322545,-0.5061155506425508,undefined,1499022457467
903d185fccf839df,-0.3354968541582467,-0.6972642078398723,0.8411319417332889,0.8263588602893941,-0.8598854727132442,-1.1890054864529653,1.7580403345445987,-0.4914892486906937,-0.3197322298275718,-0.23804095661844127,0.12637207372166553,-0.025413105008131646,-0.8783422459893049,-0.5400999607510222,-0.8676008048264876,-0.05339277534546375,-0.7647827876674301,-0.5099057140861167,-0.7752837432128161,-0.09433050417368487,-0.5955651340326515,-0.40010896475563335,-0.38647648909558824,-0.38282514226947223,undefined,1499022458978
903d185fccf839df,-0.2814423010224226,-0.5422921314238566,0.8353899714980166,0.8307584960706275,-0.8597826153627606,-1.1203837736144031,1.6981649116706097,-0.5753530437949478,-0.47379406085497966,0.009061378838645062,0.0854388792986936,-0.05508771509902197,-0.8565828319964349,-0.3299356850047703,-0.8686534275650506,-0.18473226584957664,-0.6292402639288253,-0.3464144402600558,-0.8340289671743543,-0.08915662623448653,-0.538059164683465,-0.36265471602541216,-0.2839008464096642,-0.18058738731426127,undefined,1499022460490
903d185fccf839df,-0.3840072505849786,-0.31746503640745716,0.5693388277486984,0.5445893389773632,-0.9004214031594369,-1.1605934311985955,1.6875562792606524,-0.7112782160196222,-0.4740669833593256,0.02645203175762694,0.057518485768747414,0.0495240853716202,-0.843527183600713,-0.31327070602226026,-0.9170745373596786,-0.2635359488461557,-0.5962212666569241,-0.2801275183403243,-0.8260875877774702,-0.1441136763225698,-0.5119784983836968,-0.3448052125620218,-0.2536590426541227,-0.22738193535768586,undefined,1499022462090
903d185fccf839df,-0.3147065511687812,-0.30396380836263465,0.8755845255557709,0.6854608960195849,-0.8957825494079448,-1.1995033753170024,1.7779269256207986,-0.3050668544058176,-0.48800255392977204,0.08149961572777627,0.11906007274551053,0.05748370448897942,-0.7216744652406417,-0.31604818093472103,-0.8749692155320653,-0.08572251500055902,-0.5888487122433639,-0.3634627240914651,-0.8253319317501264,-0.047811800063121655,-0.5385803518871939,-0.32908837275023056,-0.27924891120447565,-0.23846842463500081,undefined,1499022463476
903d185fccf839df,-0.3978674525779556,-0.43662931485003753,0.7824346929358145,0.7482687467286866,-1.0388668772391247,-1.1826839384650263,1.766713435271638,-0.4200419391859337,-0.3376623318439834,-0.16164308739673833,0.19880278482102773,0.08954763665326508,-0.7826008244206774,-0.33271317286800556,-0.9360219233474241,-0.22312382727363952,-0.5854940377238796,-0.41223905635010466,-0.8768284600226848,-0.08071827818377061,-0.5818464715905007,-0.4076239520585998,-0.451319846636985,-0.335807083373199,undefined,1499022465610
903d185fccf839df,-0.3978674525779556,-0.43662931485003753,0.7218235387722325,0.7482687467286866,-1.0414588729328293,-1.177568928550051,1.7604439775291754,-0.43206646052847436,-0.34124903426933884,-0.16781403179963525,0.18333434986671548,0.10644306919822928,-0.7826008244206774,-0.33271317286800556,-0.9360219233474241,-0.23322685413367839,-0.5854940377238796,-0.4114917689186591,-0.8791164170998365,-0.07673008077279554,-0.5825505220104891,-0.4050027937054419,-0.45372692077751525,-0.330671043577267,undefined,1499022466827
903d185fccf839df,-0.47548433529967665,-0.44308636291740344,0.6873712090866999,0.716717380570584,-1.068962826697664,-1.1818966540555098,1.741675051877503,-0.565087081836146,-0.37246084466531754,-0.22640152277136805,0.1593729231847355,0.1338118907975422,-0.6650999888591801,-0.34104568826080967,-0.9370745608104547,-0.23322685413367839,-0.5835706146845431,-0.41327132607539624,-0.8836643440901548,-0.07717663548880323,-0.5851688928609001,-0.40136588938347767,-0.45279892977283115,-0.3260809771756843,undefined,1499022468627
903d185fccf839df,-0.48934446828183414,-0.44308636291740344,0.6529183711272685,0.716717380570584,-1.0784153823020233,-1.181901312529415,1.7391741061647712,-0.5828623813311016,-0.36848324050842335,-0.23855723249006294,0.16079240572382358,0.17410997153579277,-0.5127840909090909,-0.34104568826080967,-0.9370745608104547,-0.22312382727363952,-0.5835706146845431,-0.41391095361381613,-0.8837133217601745,-0.07883966770470069,-0.5856527014835092,-0.40089522899893687,-0.45312036320560134,-0.3250542970143554,undefined,1499022469641
903d185fccf839df,-0.48934446828183414,-0.5064840996264827,0.6988551495572445,0.7581210989668289,-1.0897193636213716,-1.1760735563388551,1.7505874636722125,-0.501477451866126,-0.3460913620407172,-0.22590953091503618,0.1653039258776295,0.20557345921325673,-0.3430606617647059,-0.34104568826080967,-0.9360219307096579,-0.21908259391784676,-0.5835706146845431,-0.4145442480922887,-0.8845039613708878,-0.08546099908505624,-0.5866398126596427,-0.4006678941929415,-0.4530661138111852,-0.32235345822654893,undefined,1499022471637
903d185fccf839df,-0.48934446828183414,-0.5199855614952439,0.7696744767052656,0.7732188926756116,-1.099758204411042,-1.165703783219539,1.7564256315515934,-0.4417411863222031,-0.31547743184270083,-0.21409372238603422,0.17624145016678827,0.17374065548158701,-0.34741254456327986,-0.34197152618240445,-0.9370745608104547,-0.21908259391784676,-0.5798045904353314,-0.41426559859263007,-0.8834194557400564,-0.09112762684774182,-0.5873134204542594,-0.40181504219297165,-0.44985514249252906,-0.3212677205589761,undefined,1499022472624
903d185fccf839df,-0.5115206810532862,-0.5282037714689434,0.7741404253174831,0.895360408697401,-1.1241250195328714,-1.1526204465568397,1.7424455837685904,-0.5064948566952804,-0.28966936316034625,-0.19836581490709623,0.184726037592141,0.1543958893381915,-0.3909313725490196,-0.34197152618240445,-0.9444430009649676,-0.24130923605109933,-0.5798045904353314,-0.4155765179061669,-0.88602926619094,-0.0993195998790155,-0.5895854779255024,-0.40290057804475177,-0.45013019996867143,-0.3213898694936818,undefined,1499022474651
903d185fccf839df,-0.48102838849253965,-0.539944071431371,0.7033210981694619,0.895360408697401,-1.1169661746981765,-1.1484860472545582,1.7349821942061106,-0.5425828775936569,-0.2908284419641194,-0.20061260417579027,0.1904214802637395,0.12905445470578472,0.2923142268270945,-0.34197152618240445,-0.9570746063479321,-0.24130923605109933,-0.5867778448452252,-0.4181476930281147,-0.889898502758669,-0.10270725803874618,-0.5923732890091731,-0.40250268484310986,-0.4492818122970403,-0.3215668935360671,undefined,1499022475671
903d185fccf839df,-0.4796423751943239,-0.5282037714689434,0.7033210981694619,0.895360408697401,-1.107410762479525,-1.150055954352393,1.7374647328658797,-0.5301189761305151,-0.29275851909512796,-0.20275025833611257,0.19123109860195917,0.11978300995536538,1.5151932932263816,-0.32345481955360667,-0.943390363501937,-0.23928864763792448,-0.5867778448452252,-0.4159374956791682,-0.8890588854045313,-0.10769635441719237,-0.5916575403766751,-0.4021237152822413,-0.45060406390984703,-0.321881808025089,undefined,1499022477718
903d185fccf839df,-0.46994028210681366,-0.5282037714689434,0.7741404253174831,0.9285396663076725,-1.0860370840775988,-1.146802007082141,1.7413042501128897,-0.49170200666834174,-0.2658541474356013,-0.17872748757906745,0.1993776924707778,0.11425264095083104,1.7023242535650625,-0.34197152618240445,-0.943390363501937,-0.23928864763792448,-0.6011734528897004,-0.41960427024001484,-0.8895556589461899,-0.10835848766561895,-0.5934844879230261,-0.4008459643385197,-0.4534123974401406,-0.32217208034794614,undefined,1499022478664
903d185fccf839df,-0.43390393635320407,-0.4695022716568046,0.7881766631710868,0.9285396663076725,-1.0763273857852096,-1.142595400970426,1.73459035506131,-0.5141255739127986,-0.26711215709032465,-0.18080173976329067,0.1910725077657412,0.1073520842867769,1.8285288547237077,-0.36233983094974453,-0.9339166557835966,-0.23928870416736756,-0.6109439060237912,-0.4259435470216475,-0.8890099079057893,-0.1147488427816117,-0.5972858672348467,-0.4013694689677775,-0.45710962077202455,-0.32046820261006204,undefined,1499022480578
903d185fccf839df,-0.43390393635320407,-0.4695022716568046,0.7881766631710868,0.9422311957619601,-1.071328536764446,-1.1416380831911586,1.7283366761396293,-0.5430530522048839,-0.2665497037233903,-0.19341599231002052,0.1865217843526879,0.11678271153188663,1.8285288547237077,-0.366969007606944,-0.9339166557835966,-0.2514123477053028,-0.6179733976594712,-0.429173348418924,-0.8891428472084559,-0.12064644733369015,-0.599565356034229,-0.4026215254671561,-0.4586766730029712,-0.32192068945486974,undefined,1499022481591
903d185fccf839df,-0.2010534262096798,-0.495917946572267,0.7971090686694204,0.9142288387633515,-0.9339424824838982,-1.1376597418369119,1.8151307892654558,0.037309949333058375,-0.3640465739436359,-0.18888774943982722,0.1197555185453699,-0.09118651665821846,1.114820075757576,-0.43362907894627856,-0.9265482377157852,-0.2857626051117691,-0.6800478643454355,-0.4983544256822737,-0.8955659196421822,-0.1505810248235526,-0.6442056775730127,-0.36223117934443,-0.46196046654002243,-0.32581862272723106,undefined,1499022483029
903d185fccf839df,-0.14145478537558298,-0.1759944218602028,0.7856251281988759,0.9471346086498484,-0.7932341505465726,-1.2463653352473312,1.72767395938166,-0.6495127512904161,-0.5615536498998517,-0.38620650339035173,0.15016787968666606,-0.3690448725054228,0.7623175690730838,-0.4688107516068118,-0.9307587802056738,-0.14432008774761734,-0.7212294264253034,-0.5404621670748464,-0.9184454912517361,-0.077669386335426,-0.6591932751106032,-0.40546805622320814,-0.5815634379879396,-0.5037493837219291,undefined,1499022484551
903d185fccf839df,0.07060549078929526,0.036505241283678144,1.0159469040918088,1.2089287857388176,-0.4069445099571669,-1.5047524992114285,1.70445014613881,-1.157107049706482,-0.622028479519951,-0.28443828678243976,-0.13298090783710464,-0.4693412600101394,2.3725142045454546,-0.5012149364041097,-0.9012850416743237,0.2032245110850413,-0.7165974659024036,-0.5627224651085524,-0.9093706275141004,0.21924343696938375,-0.6127253606468098,-0.39402597752662066,-0.5156465398126838,-0.42147389500154003,undefined,1499022485994
903d185fccf839df,0.19811878323596394,-0.5951234812547815,1.7209494861720092,1.9507911205384154,-0.2770464453732109,-1.8682978257532106,1.784567177271461,-1.3420730881265903,-0.3106259189629769,-0.8343392294332498,-0.3404327578823965,-0.32961860878432786,0.12694268048128343,-0.4697365636268575,-0.8781271205589234,0.4275119448015649,-0.611406088462363,-0.5220839661120781,-0.8967763667249035,0.4558405526651186,-0.5519826130672826,-0.3816994752432825,-0.48216677290897175,-0.32033279110298873,undefined,1499022487477
903d185fccf839df,0.27019157825941226,-0.5440531179622361,2.5114455169968877,2.395659459360952,-0.27575044874067495,-1.877023155612331,1.875426978074824,-0.7015675160734037,-0.3203834798480554,-0.7113174609036104,-0.3570044919848147,-0.13033766009812978,-0.7738970588235294,-0.4382582815050271,-0.8191796876696258,0.4517591188185493,-0.6134976017774476,-0.46886824033005003,-0.8650248390338299,0.5811684984023445,-0.49107558669385026,-0.3414502523924208,-0.4909634214050653,-0.37388283832473673,undefined,1499022488983
903d185fccf839df,0.19811878323596394,-0.5229205780298661,2.327060265396981,2.27274904066221,-0.18790031279775615,-1.8938542379314771,1.9191948421637204,-0.4306705863165739,-0.19698113854622631,-1.0356828353768632,-0.3237041473881955,-0.011474194190471063,-0.843527183600713,-0.4095573706894611,-0.7518111845250186,0.516418711187626,-0.61891438431694,-0.41805269971452697,-0.8007801216131165,0.9195801298828417,-0.3861054189243146,-0.3722251371137294,-0.5253056738217894,-0.4265205724894764,undefined,1499022490499
903d185fccf839df,0.12327392711067438,-0.4976789331106465,2.570142765794362,2.4816404504907688,-0.08872562075653084,-1.8742839702848813,1.939972948660597,-0.21209091866550317,-0.17705392885742183,-0.7626606300880096,-0.3070243354641921,0.0012672405794256654,-0.9610280191622104,-0.3614140189296989,-0.7644427751835156,0.4477180267863642,-0.6833976525750052,-0.3347238266689869,-0.7639349159769628,1.1840792240289018,-0.28935926020161307,-0.3533405322429844,-0.5238302528984372,-0.46754488357589125,undefined,1499022491989
903d185fccf839df,-0.05829381495558918,-0.4994399634910145,2.3423727790105895,2.469965936691394,0.050563286623911866,-1.8963302188762132,1.9976498547914565,0.1575139402576598,-0.03652938398394741,-1.2540033310302399,-0.30735297598469485,0.0365537113616942,-0.9175091911764707,-0.40122490709975517,-0.7844428133587592,0.6517993785180886,-0.6826954688082862,-0.3253574026600709,-0.7411952801567483,1.257268037039051,-0.2640265901392815,-0.39378621024925364,-0.5593130067129322,-0.5461751153349517,undefined,1499022493490
903d185fccf839df,0.03179691140679579,-0.5223336214877294,2.22497853555259,2.3290159902953795,0.009811354689429588,-1.8408454129612397,1.9168306540875115,-0.2677712348508069,-0.1676961492509462,-1.0436097662579862,-0.3631012871885235,-0.019360274451635524,-0.8304715352049912,-0.3160482068362701,-0.7886533337619465,0.7609122834183919,-0.5319202109744777,-0.249526734247553,-0.733715689494741,1.2580225598562458,-0.22808743626348563,-0.3311480906581039,-0.4297840176768956,-0.4887435328837645,undefined,1499022494998
903d185fccf839df,0.048429347028662695,-0.4583488990085212,2.6824329227601416,2.5658854580776755,0.06743182970298349,-1.8534768771440964,1.9019932767575767,-0.33809472784268985,-0.1716935664486333,-1.1689601872323405,-0.42949858470914937,0.12787502543638266,-0.7347301136363636,-0.28271817116660286,-0.7970743892927885,0.9993439208213041,-0.4500670758565133,-0.2530478511204296,-0.7085691509164613,1.5282036851780303,-0.1649957739337196,-0.37361387838398996,-0.38696981739656644,-0.5505444365976371,undefined,1499022496484
903d185fccf839df,0.22999722711656517,-0.45658779555817236,3.2694031235023404,2.995851628953105,0.011518783890725064,-1.8187735435371966,1.9714122684476372,0.20736179696305354,-0.2771277964404044,-0.92275700115879,-0.4556379540802145,-0.0016632397203231357,-0.5998217468805704,-0.16421143523345055,-0.7444427517327394,1.2216109639777037,-0.3783745782971155,-0.18766654132033814,-0.652013928545226,1.7295229632582974,-0.07684411657339153,-0.32183018737725916,-0.32235039116318476,-0.4915130090767076,undefined,1499022497986
903d185fccf839df,0.4046350407133889,-0.4794814097128988,2.797912498441185,2.5380281446395023,0.1917344892937101,-1.8548953833801822,1.9760933217554926,0.18834160180189652,-0.2701319979545974,-0.6990347529381085,-0.3060770192646672,0.10946167572886327,-0.44315396613190733,-0.054037201742327776,-0.7212848158928716,1.698474238783528,-0.29484536043863957,-0.14555879940731895,-0.6531474112160197,2.080268751331757,0.014675396786904186,-0.36517389263902067,-0.24516904673337558,-0.5477441613360144,undefined,1499022499535
903d185fccf839df,0.41572328512075385,-0.44249940637526675,2.728369701190118,2.6873636725289978,0.3171274145377656,-1.8099923116056853,2.0031461435067155,0.5352810840565535,-0.30169441849255063,-0.8732346169089145,-0.4828847747081576,0.051720240575023835,-0.7956564728163993,0.02928784857951676,-0.6128636283836817,1.7429276926383623,-0.1984050680534836,-0.07898056300305044,-0.6260697535637074,2.111696979658849,0.05917617400262489,-0.28176852779132117,-0.13720083067507752,-0.42095509845511,undefined,1499022501007
903d185fccf839df,0.11634392963041508,-0.4841775881538546,2.658826141528202,2.595899143293614,0.1645185229227951,-1.837940852265438,1.8836319800704653,-0.38760942352498673,-0.15707051592327875,-1.287464829933632,-0.5597267990063565,0.1038799631648735,-0.6520443404634582,0.011697005773862873,-0.5749688564081907,1.7247423403903457,-0.2858883840363888,-0.11524933226290085,-0.634074105995727,2.2311889174932533,0.07040087509793204,-0.31124468483181206,-0.1940318190190359,-0.5463803862800628,undefined,1499022502502
903d185fccf839df,-0.08324212333429219,-0.37147059160257884,2.792170782342862,2.5676084808944664,0.08045351622814152,-1.8099480548853957,1.8691075692556183,-0.4076603254698363,-0.07000369922028218,-1.2543910086181649,-0.6719537712442245,-0.001644607822223565,-0.7390819964349377,0.024658646020768223,-0.5707583654539387,1.5287431727229914,-0.44038609598470807,-0.06976613124248829,-0.6332554795941696,2.168332464541205,0.08217670274623184,-0.3108129368297487,-0.35531379131857926,-0.6027580820299846,undefined,1499022503990
903d185fccf839df,0.2092070276433289,-0.41667080491391034,2.8604380662447735,2.5737131682041294,0.1879390533969498,-1.7929772169501403,1.8789535633749652,-0.2713074012238222,-0.1332485326867647,-1.2019510942484954,-0.5639422334360138,-0.03005707859524527,-0.6215811608734403,0.07372783570212524,-0.7054953128452828,1.538846284377195,-0.30948442284791483,-0.05195789420854873,-0.6960098770872517,2.1808822045130176,0.07208614417787496,-0.3246453862318515,-0.19552904964612625,-0.6236813786645735,undefined,1499022505483
903d185fccf839df,0.5654126523172357,-0.38321092079299895,2.262621300501184,1.9789613781455697,0.39866212400885287,-1.7848644772431554,1.8670484273822134,-0.2130223281859423,-0.1029758963821173,-1.138609818563289,-0.6415678321483884,-0.08620346801016433,-0.4649133801247772,0.05058195241612801,-0.634968956209454,1.4014449155746713,-0.35428135224282403,-0.07404719869905227,-0.6600042876246429,2.0707371291225485,0.05099110018019285,-0.3512218107986894,-0.2463959296825427,-0.6140994080682265,undefined,1499022506986
903d185fccf839df,0.8661778140733318,-0.44308650905736513,2.6715866118957003,2.512104885262572,0.6245463186611797,-1.8120932837388788,1.9384897369865013,0.4466965616208224,-0.18626281291941332,-1.6158530517003349,-0.7431809584682517,-0.09602195483609693,-0.9044535427807487,0.05335950503323605,-0.6507584298081077,1.5671348048088583,-0.18427798153236907,0.03819789315103979,-0.6004264428384589,2.464783343313901,0.1892683002655826,-0.35665193128576816,0.027704165949609474,-0.6172659926349066,undefined,1499022508491
903d185fccf839df,1.1406087921741481,-0.23117391936759024,2.62437355770572,2.53434502140928,0.2902817441030593,-1.7572979295264424,1.9822681155754043,0.6575176585421341,-0.3063847922437017,-1.5813265687475009,-0.6601762519509009,0.008566659193958256,-0.9436204879679144,0.10613202049942316,-0.5833899413879681,1.8378960829403403,-0.029373929262390408,-0.02082514083706687,-0.5448437771240282,2.4236079035561082,0.17042748816401368,-0.3590364663726999,0.17765928269559927,-0.5186232635657695,undefined,1499022509998
903d185fccf839df,1.2154535102777988,-0.14840468772050527,2.649256106423765,2.3827916865745498,0.25487838064614804,-1.6675453549444947,1.8549881377971598,-0.024628204205031465,-0.22444069155030655,-1.473556424118019,-0.5750089786053618,0.05781565283617716,-0.6433405748663101,0.02373287285304616,-0.5833899413879681,2.2763681213663998,0.05105701380483602,-0.06604869200827945,-0.5333829994215851,2.67127649748903,0.2019933001709199,-0.35131343543761323,0.3738020578532279,-0.37429298704837477,undefined,1499022511488
903d185fccf839df,0.6693637186942365,-0.26169867004191005,2.3436490547705935,2.0192893652004558,0.048043294228367076,-1.5907177300649602,1.8834873487363786,0.03642150453355174,0.0062532357246244735,-0.8228459022773718,-0.6098396261290454,-0.05002437108895174,-0.5693585672905526,-0.14291722779064292,-0.5812846370129716,1.9247823457073914,-0.23745313289770004,-0.1571354197851915,-0.5166396310609843,2.506528522954981,0.12731608287472376,-0.27791870479910263,0.21072744539051622,-0.2906472276394586,undefined,1499022512982
903d185fccf839df,0.37552862342921917,-0.3350756032630682,2.4367981249797017,2.1813726581351855,0.24764753852285865,-1.6580583657688286,1.8954424410434825,0.026308876230714748,0.12124148023447541,-0.19710615088173988,-0.624776280647041,-0.003962631522384211,-0.45620961452762926,-0.15773056978228694,-0.579179450433716,1.6378559645644086,-0.33814894906957765,-0.17381006297372759,-0.53828776396236,2.352420876230199,0.08740736531119295,-0.30483894269494255,0.00177839546403976,-0.31967735079800713,undefined,1499022514491
903d185fccf839df,0.21336492951633723,-0.3896680565443419,2.8572478851186616,2.624739222850236,0.11791403580910047,-1.7523972138072859,1.9928846333693397,0.4643868049025308,0.11478049811079555,0.002147319848014149,-0.7273942009309367,-0.27474302213937524,-0.15592970142602494,-0.17902480312664368,-0.6033899795632117,1.3711358632592763,-0.4218321006047531,-0.20489215121784057,-0.5980965043210434,2.073247052750131,-0.0023736319444192795,-0.31986374282732377,-0.25356511741277404,-0.315876107667451,undefined,1499022515998
903d185fccf839df,0.1870307458610574,-0.3315535717303245,2.828537525668401,2.61264552367513,0.2849743246312617,-1.7948918529073385,1.9652427445461955,0.33375264510670466,0.15289598561003848,-0.23882262847013566,-0.7978471179140655,-0.09451119652004583,-0.27778241978609625,-0.1632855843610812,-0.627600523417175,1.5388461147888657,-0.375745370577169,-0.153930953650724,-0.6301558917335102,2.200499803145007,0.03714615055111788,-0.3337232146844206,-0.2908194037179277,-0.38411394918221636,undefined,1499022517531
903d185fccf839df,0.1981188522467834,-0.3855589807854845,2.7711165526309314,2.5799628855493992,0.22725098740195682,-1.7901099240143235,2.0027280055416368,0.5733091492584562,0.04148229479550935,-0.5182948952881846,-0.8232307597945012,-0.0701930066221274,-0.44315396613190733,-0.09014468642290671,-0.581284695910842,1.391341803920468,-0.401527799105524,-0.15433626271601367,-0.6308625709594567,2.005678670847022,0.0013287525916249243,-0.3673416401294508,-0.37057078893399276,-0.49437020153739775,undefined,1499022518981
903d185fccf839df,0.21336499852715668,-0.3350755740350758,2.4227621412630476,2.366530304514612,0.3074485711619253,-1.7670085283634358,1.9588549453859883,0.33338061308128575,0.14173999043734703,-0.10128881928766975,-0.7632732872582431,0.21770686615580842,-0.39528325534759357,0.0005869636654998399,-0.5833899266635004,1.486310307281332,-0.31953871463317296,-0.09278638185861801,-0.6134405114728045,1.9313195797254772,0.021078429159642767,-0.36169001851176885,-0.34722123492797824,-0.5887549340625734,undefined,1499022520488
903d185fccf839df,0.19950472752336024,-0.3303794540501047,2.9338094366389043,2.768303657252626,0.38648386975818255,-1.7717298964850006,1.9633755867058116,0.3622437205511837,-0.021413839088179416,0.7732086720645017,-0.7394477481439156,0.10714605685472335,0.17046150846702318,-0.018855516131020003,-0.5918109380209399,1.6237119022016278,-0.24944040914942275,-0.06744827197409652,-0.6163651775200476,2.0341042060142227,0.05539162052019454,-0.38320552547574055,-0.2904948139259117,-0.44845671015106703,undefined,1499022521989
903d185fccf839df,0.04704312669798853,-0.4970919473405174,3.0186650016405294,2.9237743238303295,0.4213112379099109,-1.7966341224143576,1.9023798662469071,-0.11821429299184402,-0.18398049437276223,0.314750301514859,-0.694439199593044,0.14707009483478908,-0.3125974821746881,-0.03366887107343859,-0.6139162952956474,1.779298566722725,-0.26071235625354094,-0.028418338185716797,-0.6426871789859727,2.074679109590178,0.07614665965978892,-0.38631776335408147,-0.18179320638235244,-0.462224072282071,undefined,1499022523486
903d185fccf839df,0.1468360841695227,-0.4965049031144037,2.750700206662053,2.5813880526670525,0.38780043717063545,-1.7935944667304926,1.8898093978342656,-0.2536513882513286,-0.13042224849792924,-0.20665429574076744,-0.6279860339243154,0.07414222004076283,-0.9305648395721926,-0.017003840287830405,-0.682337377005415,1.8035459668574818,-0.18075773491176492,-0.004935781656854118,-0.6598853411362774,2.0456376419092757,0.07348437131722041,-0.3624241275402032,-0.14672317982234967,-0.4626280070228325,undefined,1499022524991
903d185fccf839df,0.26741965517920996,-0.5563804329227853,2.1273630084573654,1.952867523332435,0.4159935338873731,-1.784209962152332,1.9647404607266938,0.19786682843770917,-0.057542234856754096,-0.5534227181810092,-0.541628494103144,0.008074743824445,-0.8174158868092692,0.004290367154977222,-0.7391795938665217,1.8863906005626383,0.020186233003648236,0.07422601509121517,-0.6886492315311541,2.2841749599407555,0.13982916710800145,-0.36606360341491256,-0.042493735203805595,-0.3900194435138537,undefined,1499022526495
903d185fccf839df,0.4642335435258468,-0.4929827546696907,2.207752116572874,2.0056350940779053,0.4090506950901529,-1.7630534805710818,1.8752323930451893,-0.3141631723162339,-0.0455729589741408,-0.3397988805925203,-0.6075657026974706,0.044580458200989326,-0.8565828319964349,-0.006819713805709453,-0.730758553060147,1.827793140874466,-0.024703300293857276,0.022783513904277044,-0.7117596981259696,2.4111967350944044,0.14043929180505788,-0.38185737253892504,-0.039728419760103044,-0.3285131633288236,undefined,1499022527986
903d185fccf839df,0.49611212542808697,-0.4090396099383323,2.338544460004475,2.1801878091228732,0.3917604376422981,-1.7932264464130907,1.8768129028317968,-0.33251455975821637,-0.026667472193685995,-0.12855107868374355,-0.6776662264443516,0.009349797591698955,-0.8043602384135473,-0.034594721945807934,-0.7486533015848619,1.698474238783528,-0.1694120954502759,0.0229988332252483,-0.718504623566404,2.348340283919381,0.11792506522433828,-0.3954014966502701,-0.0636621396751835,-0.35322087675384056,undefined,1499022529497
903d185fccf839df,0.4309693623903077,-0.34975100744409515,2.516549603489107,2.3557178882594534,0.41896610565087605,-1.8117578723274672,1.832529596740265,-0.5915317241302549,-0.22384729134445217,0.4248437985721143,-0.7893296678437652,-0.10800016347651523,-0.7216744652406417,0.03762032511999721,-0.7349690587388668,1.7671749797142329,-0.051037631985240896,-0.0013513345997537157,-0.6847310174096296,2.605201758426539,0.16539351016424597,-0.4000341572848978,-0.02759308031778521,-0.2181623632949102,undefined,1499022530998
903d185fccf839df,0.49056779619194607,-0.3344886174929391,2.8738361662183753,2.52636402812159,0.7519243938583744,-1.8104767901297505,1.8531288593175044,-0.21622129203056897,-0.2561967949633283,0.20368939723220872,-0.6474944049125534,-0.00826730558403335,-0.3822276069518717,0.15242373526831943,-0.5897057514416841,1.8439580742976371,0.016856736198396633,0.13260308998692769,-0.6417775946180221,2.7787268403896013,0.2670443648502182,-0.3006637561860162,0.12341455071365023,-0.1577488485495868,undefined,1499022532538
903d185fccf839df,0.6097652158817787,-0.3791017865781569,3.1724257342871183,2.856712276847591,0.8142762911500514,-1.7981714192906133,1.9102114272467752,0.22655900372192864,-0.24549011705219365,0.0021896194081099467,-0.5992214184170328,-0.11187617800918762,-0.5693585672905526,0.1394621338737377,-0.5528635433068859,1.9369061023042127,-0.04987619111553345,0.13155182091569392,-0.6135174759581367,2.7010262865389003,0.2635330872210099,-0.30040998999709584,0.06855670431684777,-0.20194159383990057,undefined,1499022533984
903d185fccf839df,0.37414254112018397,-0.5446401914163421,3.2049644127434926,2.9191972174273153,0.8761344764882738,-1.7896720259776602,1.8485056533056752,-0.10280518991246028,-0.1378129857446429,-0.25215481811822454,-0.5516481677514735,0.03818075193819726,-0.8391753008021391,0.08946709332001136,-0.5118108736667708,2.2521207777610863,0.026514984317354714,0.20099254733616032,-0.5750700004782974,2.439006337020939,0.25894638655019264,-0.3106616632193616,-0.07588647401009399,-0.1555196732014879,undefined,1499022535496
903d185fccf839df,0.12327399612149385,-0.48887367891083333,3.0148369367713648,2.7082121269789634,0.6623771326819579,-1.7588492044610282,1.8603950083826013,-0.11268290461541697,-0.1624012145197227,-0.11424126010465209,-0.6942843641760644,0.06431594858354878,-0.7913045900178254,0.24685878884620335,-0.49707402280668017,2.2642443082401353,0.014407667884988064,0.1557626643175301,-0.5226289037895222,2.359103800355742,0.24365469744041557,-0.28668340179134766,-0.0305312744730414,-0.20543191517655465,undefined,1499022536986
903d185fccf839df,0.3006838363147491,-0.4019954007328833,2.5261198927304935,2.4633549394243235,0.6357063210154053,-1.7122644197686232,1.824926822880364,-0.26713554129148886,-0.1571818928535231,0.23324257379057722,-0.6849126482734823,0.05326642707875919,-0.6041736296791445,0.26537546957345204,-0.4602318882942199,1.9672152111490508,0.025794711268657046,0.12017785315754809,-0.5144286423657328,2.017874247031289,0.1674339123534169,-0.34175773646998575,0.032583278962634105,-0.252871669612309,undefined,1499022538499
903d185fccf839df,0.34365038658107633,-0.3456419316852378,2.8693699634692083,2.7070456627545676,0.5610527317221516,-1.7715784967861705,1.861299673344357,-0.13395008588706298,-0.0957217213970749,-0.48395780217155804,-0.6682566269400234,0.006131412339485948,-0.6346368092691622,0.20612215340997408,-0.546547762702105,2.0500599579130934,-0.04808900523550865,0.05541717249670439,-0.5588653893874,1.9059891493516603,0.10998066297521587,-0.43522058620874654,-0.23598005631010316,-0.4558023271142299,undefined,1499022540005
903d185fccf839df,0.3561245062650181,-0.18303854338167477,2.6543604470529343,2.52307205740187,0.7423792814504376,-1.7632933926893701,1.9557202201810833,0.51678670744602,0.14355058415508867,0.4759998550054311,-0.5746574071526048,0.004102649288627482,-0.6563962232620321,0.2570430707376189,-0.564442467053417,1.9369058761864404,0.0028761470209094104,0.057089070679502425,-0.5627486177907006,2.126156128885348,0.14951650290576765,-0.3498623852494685,-0.1847747025448455,-0.47597629029981925,undefined,1499022541486
903d185fccf839df,0.20643493203607793,-0.47537233395404144,2.411915830398606,2.4502751264999802,0.7805083525720091,-1.772221366266668,1.8966889526961845,0.014655727809874576,0.1368235794929636,0.8778965524314613,-0.4132180866290578,-0.025461007574370843,-0.7173225824420678,0.17186626686793746,-0.6118109761961834,2.0197509055976983,-0.03518519612584621,-0.0008510316063065745,-0.5957875589644673,2.2833896626474135,0.1395500961151136,-0.351203040859843,0.03075077482094435,-0.6100976279516969,undefined,1499022542985
903d185fccf839df,0.20782094533429368,-0.4301721790986946,2.414467873644716,2.2258014354358386,0.5763784087264529,-1.766871104856467,1.9173855290005577,0.10240467955995329,-0.03416261316944779,0.17887724582362632,-0.7041590398320156,-0.0314386064586025,-0.8826941287878788,0.06909865904492579,-0.6433900411892314,1.9065968804004885,-0.11097149837310277,0.031389983758356006,-0.6484595510850497,2.3633229920301875,0.15076671436372316,-0.3699790697168822,-0.005847565416081434,-0.5204040728180047,undefined,1499022544499
903d185fccf839df,0.3242462004060558,-0.3714706208305712,2.5395182468410447,2.226537639781807,0.6793485224047244,-1.801767766899058,1.9438387561840356,0.36357629739238356,-0.012660230857409862,-0.2410022898038777,-0.793819164350654,0.01613616275739384,-0.9001016599821747,0.05891448075970665,-0.5918109821943426,1.9187203543500946,-0.10073950328431605,0.05503086372966345,-0.6121670931839492,2.6944665625776496,0.23623571541204152,-0.29479793197455434,-0.04580140529243723,-0.5545371073576522,undefined,1499022545996
903d185fccf839df,0.4198811179829427,-0.33507566171905284,3.1264889558571425,2.8862261131676186,0.6572857036115622,-1.785940584075642,1.9542843580633558,0.5026731080329847,-0.2570014996920712,0.4051197478042752,-0.9906490612658586,0.00871302592987699,-0.8957497771836007,-0.0864414124411748,-0.585495157416159,1.963173921263815,-0.11342089841228192,-0.04457367612811384,-0.6431979480089713,2.6258664822179516,0.17336322953282932,-0.386183356467021,-0.09647703692814874,-0.4536489171348131,undefined,1499022547533
903d185fccf839df,0.13990601767844393,-0.36853554583996423,2.9503974636016688,2.609934605469142,0.7051141909634312,-1.7704301795055426,1.905880147849247,0.19868264835408408,-0.23274419527463028,0.5016775533451113,-0.8433823506919245,-0.031146212795545237,-0.8304715352049912,-0.08829301057971711,-0.6107583681820881,2.0056066736465885,-0.0907840987042042,0.01621624901864171,-0.6412038566827872,2.5784546635327708,0.1863307598722785,-0.3466229014513891,0.164392652588848,-0.4428247031731265,undefined,1499022549010
903d185fccf839df,0.2535593841754135,-0.1642541511257674,3.091398234154658,3.077815548674988,0.4886311222479639,-1.7303556194332235,1.9399203504962805,0.32520781334645965,-0.18060107435541528,0.5539528081680112,-0.7951284735350101,-0.09178728335814346,-0.43880208333333337,-0.09384801220773681,-0.5865478537770599,2.110678345191099,-0.09125762701481072,0.018065469314353426,-0.6037359343219566,2.487680824207485,0.17566650064257033,-0.2950130045089996,0.104849341436203,-0.38402793734945373,undefined,1499022550496
903d185fccf839df,0.23692736261846342,-0.16542815189401783,2.447006297964141,2.335314062456442,0.37337988566959474,-1.738100341354318,1.9775476098797802,0.5000207603152776,-0.02725513964135367,0.12395408810766873,-0.7377387082191834,0.005138487827320308,-0.3735238413547237,0.00891944020598029,-0.5897057661661517,2.1652346845823645,-0.08304528951058475,0.03336585923465939,-0.597921584991154,2.491515033475324,0.19224152976663839,-0.33323736319378827,0.06230319215823591,-0.42308486504997644,undefined,1499022551985
903d185fccf839df,0.4836379367333257,-0.2716778957819813,2.9223252420314103,2.7558733513668567,0.3551124925625333,-1.71991597350364,1.9557938487857556,0.5113687040341924,0.08215077342744743,0.2563703857774552,-0.8768051426909443,-0.0013580749711655197,-0.45185773172905525,0.028362049510245603,-0.5833899413879681,2.2096878557899835,-0.11631506398885325,0.04629773001350042,-0.6059329345399034,2.3846344214113686,0.1722275846011436,-0.3232872102654728,0.12897916394302875,-0.1859793404561033,undefined,1499022553492
903d185fccf839df,0.6832239206872135,-0.3033768225925056,2.675414676764865,2.387553109911575,0.6473702877054467,-1.718879460848908,1.9638410651923823,0.6800642174522343,0.13139063570536846,-0.10801627759337012,-0.819350331398339,0.060910409717367935,-0.5911179812834225,0.1987154241356666,-0.5539162102188517,2.2218114993279188,-0.01387527547434897,0.07058456880036876,-0.5915964693410937,2.463905614153214,0.20955798573191875,-0.34427569833111693,0.09117336995410834,-0.13571491422763218,undefined,1499022554979
903d185fccf839df,0.7663847185801587,-0.33624966248730326,2.6683966849065377,2.429970515614167,0.6642696864172541,-1.7549290953570607,1.9273814306903276,0.35038835990058037,0.10111997379471928,-0.26981038212631053,-0.7940285334485753,0.023591731400546552,-0.9740836675579323,-0.004042212991699605,-0.5223372188481417,2.1692759744676002,-0.07657429992374852,0.02922411381495833,-0.581828922329865,2.522419707468369,0.21131076677203056,-0.3736383956663641,-0.3069513838877826,-0.1476191261444492,undefined,1499022556494
903d185fccf839df,0.4739356366133571,-0.27226494000809504,2.378101384456126,2.208898076190237,0.7132296045284188,-1.7188911057072103,1.9331827898323324,0.302230726239385,0.0476297758370073,0.10600113250665164,-0.666677106506842,-0.03507156136392891,-1.013250612745098,0.007067816165888882,-0.5128634816808663,2.2076676065534673,-0.036142075272806384,0.02026933167105621,-0.57374060824073,2.6938352035495865,0.24177223982963558,-0.42681117311042016,-0.2303848175929897,-0.06088553289977064,undefined,1499022557983
903d185fccf839df,0.46839158342049403,-0.36383933817101616,2.678604857890977,2.5411303417441533,0.3732873213480593,-1.7017618797389023,1.940054464711557,0.2197226620839154,-0.10461417431849138,0.4795919316820773,-0.6820758147686554,-0.010078887939583989,-0.9610280191622104,-0.10310639142368479,-0.5065477231627867,1.7409070476957444,-0.18928926881008606,-0.055441008380995034,-0.5871604889024459,2.662191403690477,0.19422602140646275,-0.38855476347059476,-0.322641953217965,-0.13835817857583463,undefined,1499022559486
903d185fccf839df,0.25078721955734307,-0.31218195988034936,2.466785014326916,2.159054549576335,0.2827834666348887,-1.6721362860159716,1.8429488833008394,-0.3520311749997163,-0.16385876733629032,0.5492083204879237,-0.718973134198242,-0.0001704436074033532,-0.9218610739750446,-0.10403221639450505,-0.5118108883912383,1.645938261687665,-0.24938329915469434,-0.10769412810268911,-0.6183242821125757,2.5415907837477425,0.1412470667406947,-0.49558288609587325,-0.40226142415678773,-0.38977529723353393,undefined,1499022560977
903d185fccf839df,0.24385729108790324,-0.5012010815553595,2.2237027680664845,2.194966943015901,0.1817779114024409,-1.6916040669938255,1.9423923620857817,0.19222232079705923,-0.2021230774024639,0.6908655747421163,-0.700506802109044,-0.039940235111116065,-0.7173225824420678,-0.09292221313846565,-0.5518109205683229,1.61562920937227,-0.41442061742714864,-0.10040491086570756,-0.6517130633652798,2.405206755634013,0.10601875074731318,-0.5111128370248392,-0.3718037771567929,-0.3917328679473238,undefined,1499022562481
903d185fccf839df,0.21613688710194925,-0.412561641471076,2.3997937520480592,2.008695295689566,0.08219179440843946,-1.6356836901009904,1.8058765066867988,-0.5849000014311836,-0.15425051376819368,0.6474034107071711,-0.6555291057883955,0.02056623014578052,-0.6302849264705882,-0.0827380348532465,-0.5728635667576619,1.647958963159726,-0.4473329478156446,-0.1323292785482007,-0.6594305460130542,2.2079988609666628,0.04921790656880217,-0.5233790412718111,-0.3126187980742918,-0.40678591236561495,undefined,1499022563415
903d185fccf839df,0.24524344240775792,-0.5516844298497835,2.446368414221088,2.2832180965873254,-0.11030501384141962,-1.602978843160421,1.8306703094548797,-0.45206099249034587,-0.08090082446370582,0.7958538072618649,-0.668339155551393,-0.11145401718090485,-0.7390819964349377,-0.093848064010835,-0.590758344731312,1.3489091080671376,-0.4882079403934638,-0.1361607107796759,-0.6776152577384548,2.0808231002546416,0.02141872712975526,-0.5526574325565434,-0.43314653715891754,-0.5551824479569074,undefined,1499022564984
903d185fccf839df,0.3076138337950084,-0.4548268382477852,2.799827166218141,2.3977234300512817,0.09178836691580285,-1.573774841876814,1.7960725784238911,-0.4988845766410829,-0.08807589488435896,1.178116308658871,-0.6347011580088446,0.05264319588989318,-0.7390819964349377,-0.0938480899123841,-0.5928636343818408,1.5085370059440275,-0.43813275768561577,-0.08267266975939329,-0.6588078308115256,2.120920651725591,0.05911430080414815,-0.5870585692190732,-0.2495955919333942,-0.540340399532891,undefined,1499022566485
903d185fccf839df,0.3977049052114907,-0.4583489282365135,3.4282681967780984,3.2117950669823414,0.2612143574265642,-1.6221647896128102,1.813245214420652,-0.4198662406708022,-0.03945791036092569,1.0828133606615309,-0.5606839545081436,0.019972965796094685,-0.6520443404634582,-0.02996554528860849,-0.6423373890017332,1.5812790367599683,-0.36817572201904175,0.029528095177913206,-0.6630478991692876,2.199899278998474,0.11260926119174092,-0.5359099569116623,-0.05553458381049535,-0.5461455186272901,undefined,1499022567972
903d185fccf839df,0.20920695863250943,-0.35327312666081584,3.167321393657949,2.9630697546011,0.34935249282654407,-1.6180909485812736,1.819575159737822,-0.3271200240900487,0.029655017660913816,0.4595887462535417,-0.5447136587741832,0.002094092593021263,-0.6520443404634582,-0.060518080144265914,-0.6760215816761664,1.443877724486888,-0.3006951850960223,0.03598769673225314,-0.66655330152861,2.1830225767716915,0.10459539295936372,-0.5036561994962188,0.0853342377299672,-0.5894230255861216,undefined,1499022569482
903d185fccf839df,-0.11927846908790174,-0.5323128179998083,2.8355555175267284,2.629362954710907,0.19988074068679576,-1.6199333774082956,1.7753996693031693,-0.7110777039152468,0.06936146934725122,0.3416486929379448,-0.5476597375035003,-0.014839831653986627,-0.678155637254902,-0.0753314350866845,-0.7181269035037798,1.3024351223285715,-0.30700000042056214,0.046690371048745585,-0.6761319350927137,2.1183953016240338,0.08831196221022708,-0.44022030386790556,0.09070566622881997,-0.519279163196768,undefined,1499022570976
903d185fccf839df,-0.2246157557955768,-0.21062836520534933,2.5012375981493977,2.1709209781675787,0.10100434306008219,-1.5410094354948796,1.8312330784921647,-0.23375957782990142,0.09343916643685346,0.4669836345440037,-0.6554058456590273,-0.12906299378299227,-0.7477857620320856,-0.02348464098512126,-0.7286532486851507,1.3024350092696853,-0.22033398255258857,0.060084548183252824,-0.6448981715472069,2.0032919207283593,0.07700825823795636,-0.43274109402199434,0.20667381301184543,-0.4731338721287265,undefined,1499022572719
903d185fccf839df,-0.015327333700081384,-0.4025824449589971,2.4852874549296864,2.2444266135893036,0.0846912334346019,-1.5414869297225462,1.8344677419900581,-0.27357075381855045,0.07794907576418983,0.6229643725610521,-0.5055590066421461,-0.04833596988607968,-0.4083389037433155,-0.0003388095022222231,-0.732863769088338,1.3913417473910248,-0.17209850933318455,0.04349856879182335,-0.6349067263738275,2.050688336296672,0.08210198827314898,-0.4113275878595667,0.11331899898195817,-0.39480421506035523,undefined,1499022574236
903d185fccf839df,0.2854378970668342,-0.5552065198385118,3.0741720693118917,2.582006890903836,0.15545683200403282,-1.5443146259146674,1.8881368297373646,0.13647509587338225,0.07084513031953715,0.19495512602438927,-0.5710372976066811,-0.03974118095488924,-0.49102467691622104,-0.07440550650966787,-0.6907584472607247,1.5469286380298943,-0.1383136993411683,-0.019564884048665996,-0.621311923770237,2.1499467152664904,0.0793626650719505,-0.43833748273528833,-0.0006915691548449362,-0.2794678777684236,undefined,1499022575753
903d185fccf839df,0.3685987639705988,-0.6133209461965445,3.2770595073776194,3.1197217006707363,0.07504324940846532,-1.5846267693449063,1.8337840035647277,-0.319009152839918,0.0629304454879542,0.19189038839403078,-0.43543005300648896,-0.05660312852874423,-0.7347301136363636,-0.0244105177590397,-0.700232154979065,1.615629265901713,-0.175373288991996,-0.02067314992858605,-0.6371107234026508,2.203548702976501,0.08691668676905738,-0.4712479213495337,-0.1108093004191781,-0.3269027311950391,undefined,1499022577236
903d185fccf839df,0.15653845330031085,-0.4759593197241705,3.239416996565975,3.0078031451600524,0.27218920468282837,-1.565617848670104,1.848200606055349,-0.14051173842783238,-0.006615717020451585,1.2379576644107926,-0.389935469913269,0.0959667596275012,-0.8348234180035651,-0.003116310316232071,-0.608653122704962,1.7550512231174116,-0.2935383437358071,0.05008483126827739,-0.5908268194473142,2.2869466822750564,0.15467078942652338,-0.49608783846352345,-0.2997986870767178,-0.38098724248509125,undefined,1499022578724
903d185fccf839df,0.4961120564172675,-0.3990602380582994,3.1647693504118397,3.078306532417729,0.3565010666500257,-1.5569530786818173,1.907442247342121,0.29384679517118906,0.118250005910898,1.4804988040886053,-0.45312811147288484,-0.13321373056953686,-0.673803754456328,-0.08829295877661893,-0.6697058746937234,1.7712159304228103,-0.38220357609354944,0.0695459665743331,-0.6463465134356605,2.3368838453806995,0.15746531879444492,-0.466433936641259,-0.38511532829014156,-0.37405762507645474,undefined,1499022580234
903d185fccf839df,0.32701822700248734,-0.31100804679607597,3.226656780335426,3.116004671611645,0.37188847122804564,-1.545523504053727,1.8426832752460545,-0.09381478596545705,0.048083345471384806,1.370596012400427,-0.526485815235923,-0.068871876921424,-0.41704266934046347,-0.13180722453460353,-0.6507584739815104,1.5994645020668712,-0.5050442890083507,0.056905411636511895,-0.6719478446047001,2.256057408585257,0.12569169816363504,-0.48382367761882705,-0.297178271597503,-0.40893802497929876,undefined,1499022581737
903d185fccf839df,0.2535593841754135,-0.3779278150378988,3.1800816098884983,3.1456096385038514,0.33276167421228364,-1.6005797319060644,1.8997027242258717,0.16751776509482375,0.11568791321560291,0.510969436845673,-0.419127339467028,-0.1146765866122523,-0.7608414104278075,-0.1086613671501554,-0.6833900586418483,1.7267627592151913,-0.4712305644009624,0.04722233950802983,-0.7007607117887397,2.1626042436160002,0.10303083968677598,-0.5055199536742769,-0.24079960377693135,-0.5025208378785107,undefined,1499022583262
903d185fccf839df,0.20782094533429368,-0.18773472182263057,2.9663478609583294,2.858547326195598,0.30159600573204276,-1.6431069809250742,1.7969825032544546,-0.4650398407904537,0.09754848841822215,0.27048782934403826,-0.514725811338159,0.03109615828281602,-0.9349167223707665,-0.1780989134019507,-0.6497058070695447,1.6944331184866215,-0.5330781246358173,0.010687588213825329,-0.7106751934126974,1.9209102491010004,0.04777502582098519,-0.4822824996376574,-0.34117618843491837,-0.5197040550447309,undefined,1499022584720
903d185fccf839df,0.30761390280582784,-0.37792775658191413,2.9102029095439144,2.9073293958333695,0.1391025676432868,-1.7346949931675009,1.8451921127261015,-0.3431366905985153,0.1726635712128638,-0.5208275263845514,-0.5658217120877495,0.0541141871653726,-0.6433405748663101,-0.16606311107664015,-0.6318109996469595,1.6762475966502755,-0.43840750406406465,-0.017823325218393058,-0.6974792081359866,1.8966114997231578,0.025697752249311288,-0.5078060494196718,-0.15556314933627707,-0.3865401572769834,undefined,1499022586226
903d185fccf839df,0.20782094533429368,-0.279309149213544,2.96379556357527,2.8921474104633447,0.0470661576089104,-1.7100656176081015,1.8639321110634344,-0.20298825047145577,0.14504142995691824,-0.6998578873330713,-0.6696513969798324,-0.03336923735922633,-0.6955631684491979,-0.017929665258650657,-0.5781267393483475,1.5449080496167196,-0.37919267797405143,-0.1082894251959306,-0.6319260887818775,1.9693383540119194,0.03295855956785358,-0.6077157748219248,-0.18084478103173635,-0.3614996385553013,undefined,1499022587729
903d185fccf839df,0.0761494749713388,-0.38497199501535545,2.744957728152882,2.522142008868015,-0.24130364290516268,-1.7233166599511371,1.851006603208494,-0.5355195710939037,-0.09960054297962308,-0.9259407448407345,-0.645183199400732,-0.03267516994290772,-0.5388953877005348,0.008919517910627573,-0.5444425172249789,1.276167190310083,-0.3830827323313029,-0.13612271423601818,-0.5959624800010169,1.8496462286054982,0.00853702179609749,-0.5860086568225551,-0.24922840233476684,-0.3913595813702585,undefined,1499022589222
903d185fccf839df,-0.09017218982537095,-0.2035841852278927,2.5790749171557463,2.290637499315993,-0.37380399946461856,-1.7028752563903784,1.9091805521454395,-0.1912803916222025,-0.21398130801889176,-0.5466390645207401,-0.6110918916522659,-0.0618558829360726,-0.7303782308377896,-0.00033882245299677016,-0.559179353360602,1.3489091080671376,-0.48003440128439845,-0.18569699623530925,-0.5554229575552181,1.693182617519616,-0.034789246434175,-0.55306455691697,-0.29324791091157104,-0.4778254750854495,undefined,1499022590731
903d185fccf839df,-0.21214149808999608,-0.15779689846245512,2.0916344030118283,1.8376471394814797,-0.4780186846110991,-1.5810117903034913,1.9109582966680596,-0.03665202263737668,-0.227374783079271,-0.22874925485279868,-0.47045163068020457,-0.04795505178111892,-0.9436204879679144,-0.21050315000234682,-0.5939162571204037,1.1892812101902477,-0.48392351421243457,-0.25190158790510836,-0.5184028296407514,1.7212077914089625,-0.052435411593320574,-0.4515142127131939,-0.2797464105541492,-0.5375771482914347,undefined,1499022592234
903d185fccf839df,0.1745564881554767,-0.21297636674185022,1.8887467108091514,1.6982792526113881,-0.21088884595880647,-1.5839349840799204,1.9670757277736939,0.44867983216176144,-0.29276613936236,-0.17683575631444517,-0.5372636526976795,-0.03198068249172495,-0.9001016599821747,-0.2975314613551487,-0.6065478625033683,0.8781074289125086,-0.5348922126731981,-0.32733961351618457,-0.49896568952694115,1.724811030793574,-0.08260164289148439,-0.4014282025793746,-0.4731267803835188,-0.5590309134178083,undefined,1499022593732
903d185fccf839df,0.12743196700532164,-0.2963325549310719,2.1592635490337377,1.777917626387199,-0.2126271274519673,-1.6203340066606813,1.8705592144824197,-0.21375608820187034,-0.32218144006774635,-0.23876870171390652,-0.6351754375420785,0.00726031097795065,-0.9349167223707665,-0.3225290334351101,-0.5476004001651357,0.8942723058062366,-0.5818349224371683,-0.3229888822894663,-0.4966427477775829,1.6699001699972527,-0.08955314944092402,-0.3844754962580608,-0.38650434103047326,-0.6946089735167119,undefined,1499022595247
903d185fccf839df,0.14545020889294588,-0.20299705331780196,2.274743378851731,2.1632265728567948,0.00910164569284276,-1.6590017062109845,1.9760433622985751,0.5104640533787774,-0.16465588332404374,-0.20098292077905153,-0.7591117620727788,0.02886261813377257,-0.9218610739750446,-0.2679048162241843,-0.5739161747717574,0.9286227045363106,-0.5972402036454246,-0.3228052266293786,-0.5103145157962987,1.6612616505427542,-0.09538028374311694,-0.3798913265262196,-0.4143421542482618,-0.6415497366744596,undefined,1499022596721
903d185fccf839df,0.020708874031889236,-0.4407384198368872,1.964670124449392,2.042744402298297,-0.07312222023766579,-1.5960866258763604,1.9368145374166486,0.2560764840175427,-0.15054333720688462,-0.06362869955543657,-0.5251494019202196,0.017024973099614697,-0.9131573083778967,-0.19661562003074848,-0.5476004001651357,0.7386855847556962,-0.6315033075160903,-0.31739689291159573,-0.5347263888471525,1.7024062975964327,-0.09591564592574321,-0.4622897831483362,-0.41877791466688824,-0.6019371167903043,undefined,1499022598293
903d185fccf839df,0.030410967119399505,-0.44895662981058665,2.009330627119364,2.129697888890074,-0.050750824079668626,-1.6108540017546853,1.977326693294812,0.48849016018401614,-0.06309246503448958,0.29894406674206364,-0.5871625428528264,0.05588937062935339,-0.8087121212121212,-0.1623597464394864,-0.5086529465532114,0.8417363852398166,-0.5629672263635882,-0.27558679885865073,-0.5193683883244377,1.8572222665652318,-0.0433526118040692,-0.45366385065898845,-0.34015452407838287,-0.6264768515311346,undefined,1499022600604
903d185fccf839df,0.12881811832517634,-0.40903955148234766,2.117792719215979,2.197540558021352,0.03555645867583611,-1.6409035164725405,1.9995432965249327,0.598695636649918,0.02677328650454425,0.11742648212618238,-0.5429910017967302,0.07425381421161192,-0.8348234180035651,-0.1577305827330615,-0.4212844788556984,0.9367051712478961,-0.5588835593095886,-0.2457776336169566,-0.5080895275518615,1.9101159259327989,-0.018001593369916188,-0.4448602480238558,-0.2630751108998257,-0.6367659777604981,undefined,1499022601235
903d185fccf839df,0.2743497216702887,-0.3785147715800355,2.5726948090404718,2.4185246079438945,0.23683726122689952,-1.6216570123782075,1.9377639006571121,0.32839597035292883,0.0681698984551838,0.23809313787151595,-0.5319271503978755,0.03487934864503814,-0.9305648395721926,-0.14291725369219202,-0.30338956890370056,1.211507682735171,-0.401271100978828,-0.22682946560268008,-0.5025410573096404,2.0123770118075264,0.030830212184333922,-0.44684327509532656,-0.3403677863220092,-0.6657523002893828,undefined,1499022602706
903d185fccf839df,0.2147508738037335,-0.40551746149361934,2.640962092942383,2.3814243330165663,0.41275353640549645,-1.5677071741877058,1.8837135086916865,0.1471608848019009,0.03921412085460064,0.00858089275843061,-0.5589588213168003,0.0894955480964032,-0.9305648395721926,-0.21790978862123245,-0.32970543185712786,1.522681407483467,-0.34399985634064884,-0.2428581451698291,-0.5074038396455188,2.043143107020814,0.02420715053775542,-0.4825771629276787,-0.29710579438690954,-0.5587154294302699,undefined,1499022604218
903d185fccf839df,0.12188798282327809,-0.5622505829039991,2.2077523707098234,2.0564844949208068,0.2404372469202095,-1.5308702578867166,1.881877901945855,0.11145605755587283,-0.008871148009151472,-0.2567577082167459,-0.4927958786671038,0.02369797044566016,-1.061121323529412,-0.17809895225427433,-0.42865288219904235,1.4923722986386287,-0.27298230413961433,-0.24238317699072112,-0.5240002768678814,1.8858787846471763,-0.0037392818316863714,-0.4861644495002312,-0.3708824260754376,-0.5727910236110615,undefined,1499022605726
903d185fccf839df,0.3949330166366981,-0.4601099732308777,2.4125542224155576,2.402579639159253,0.35109077636623814,-1.48514962155527,1.7470740415309336,-0.4094565692529485,0.14932839191503539,0.24132887101748524,-0.6284295684175086,0.034108174395768444,-0.9566761363636364,-0.07347970744039671,-0.5023371953973657,1.5832995686437001,-0.2389884090701448,-0.19551939418773387,-0.4920528393470007,1.8793344408764798,0.029895975234440122,-0.4830554189824059,-0.46974350274730337,-0.34828694506470864,undefined,1499022607222
903d185fccf839df,0.8065793112608739,-0.4741982747298063,2.87000835548616,2.8577944969803735,0.4795282768720082,-1.4542499341609283,1.710806389490617,-0.4958857804767421,0.10644038371664677,0.036411728784115076,-0.47227642413602705,-0.004876964461794439,-0.9523242535650625,-0.013300488601451213,-0.5939162571204037,1.3691152748461015,-0.34969093857461175,-0.08992389222998678,-0.4815016481351284,1.9671979721546191,0.0685951245896274,-0.44447748491958694,-0.20630900288736959,-0.33840554383861465,undefined,1499022608723
903d185fccf839df,0.8204393062213925,-0.42841104642035344,2.8572478851186616,2.68759923298545,0.2775994744052603,-1.48509604983926,1.8845787080079757,0.4834822613607815,0.0017390491637992694,-0.5219854538307935,-0.5636109182731749,0.008848555534926134,-0.9871393159536542,-0.03644637188744844,-0.5686530905278775,1.2741467149557943,-0.34456184490177016,-0.14905458761155543,-0.454137121597779,1.8558056181865892,0.03235553643009227,-0.44443728936673493,-0.22080278413917345,-0.21804260167543496,undefined,1499022610222
903d185fccf839df,0.21059304094154466,-0.5035490246358757,2.4182959385138805,2.2995964170600147,0.12957800732439875,-1.5236170069795212,1.798786541359743,-0.4461798963253024,-0.16918659125491406,-0.5084559408133847,-0.3329086204111796,0.01701537725856038,-0.8783422459893049,-0.09199634931532176,-0.4928635318524281,1.617649910844331,-0.3101930290115698,-0.18546267793381568,-0.38746450886375006,2.200638407139669,0.10329709211487868,-0.47527098605756896,-0.07707478003588589,-0.23034845969949166,undefined,1499022611718
903d185fccf839df,0.741436755255553,-0.3867329815537349,2.5548305063177033,2.422726022255563,0.6768593805885992,-1.4300980509446062,1.7660875300007899,-0.14564451469711948,-0.043285279593995064,-0.036505226434649124,-0.35002675458132154,0.01116969804185683,-0.8609347147950089,-0.19661560707997391,-0.5539162396677868,1.8621433700162109,-0.20499733815552926,-0.22138313444983615,-0.4158155888849976,2.1789881921959995,0.06791512465954448,-0.45929935041689623,0.056460034035042114,-0.45916343002671556,undefined,1499022613279
903d185fccf839df,0.7040141201604498,-0.40493050495148264,2.1311908191895808,1.775246399104598,0.5494916055782167,-1.4278014215406027,1.7876598277159916,-0.051109337561584284,0.145647011040126,-0.2907499466419499,-0.49098011998366353,0.008221706674640793,-0.8609347147950089,-0.18828309168716983,-0.5307583185523865,2.211708783379817,-0.17602867005099185,-0.24596761937487538,-0.40417989316783315,2.2229199528674766,0.07770592990634698,-0.44178659501568207,-0.050557971711820374,-0.4096072514026863,undefined,1499022614720
903d185fccf839df,0.7719289097946607,-0.3503379932142242,2.135656767801798,1.989225151151903,0.3094337264444529,-1.3775131477176932,1.824755871775563,0.1968006955475258,-0.011687913142002944,0.361822941788997,-0.30171639307581566,0.001019359254039173,-0.8696384803921569,-0.2345748064560661,-0.46654765417453326,2.090472178412135,-0.2196784347469079,-0.26096403053445955,-0.39804368800423995,2.5248526705320717,0.13786923302771048,-0.48815979586673586,-0.21216584712615646,-0.43105935486303054,undefined,1499022616234
903d185fccf839df,0.8938982870701052,-0.3544472151130433,2.494219352154121,2.4554196581994128,0.49638654535693333,-1.3886212884581306,1.8564003392782473,0.4914309475775298,-0.10217934732555665,0.7568905522553272,-0.31310770198119336,0.09616630295324834,-0.6999150512477719,-0.24661063468292574,-0.4054949905325772,1.8884114150935853,-0.27257880153795644,-0.2887656535661169,-0.3620171085433126,2.395813693249629,0.11862408802227786,-0.4892335569246365,-0.30313928630057513,-0.3531642250057015,undefined,1499022617724
903d185fccf839df,1.096256366631244,-0.38790707000596236,2.3009019491928306,2.4158468767276524,0.5600652934915114,-1.443078899006859,1.8454235291457712,0.36199700783558486,-0.16587143421916872,0.9545096990091322,-0.48804714704340174,0.12397437483242733,-0.17768911541889482,-0.32438069632752514,-0.31917910140022454,1.8500198395371616,-0.3098254771400449,-0.3459014718886272,-0.39095591746674374,2.2858072067087236,0.0739634701208266,-0.5140008616813202,-0.43724005847182323,-0.3716321757538435,undefined,1499022619216
903d185fccf839df,0.6458015616353883,-0.5082452030768315,2.083340135393497,2.1431374887544457,0.16747053172241672,-1.5059939813112417,1.8971807385141477,0.2215981724315801,-0.03586253946370447,0.1460827803056565,-0.41484163108092387,0.013118308178644036,-0.43880208333333337,-0.3956698795701864,-0.33075802514675573,1.6115880890753633,-0.36283906698457163,-0.410332839998693,-0.403123370443512,2.2090767571828067,0.015760138126964432,-0.4588653947031736,-0.31111406514247547,-0.3433751193762888,undefined,1499022620724
903d185fccf839df,0.303456069943639,-0.45306567634145173,2.3257844979108757,2.091882965000962,-0.259375612087618,-1.4437334156633417,1.7758756715865025,-0.6213136967428836,-0.1116011272971631,-0.0006436718047409459,-0.09888209705350652,-0.06386736214028964,-0.4779690285204991,-0.37067237224409777,-0.34338963052972027,1.5327845756671135,-0.3422848532839767,-0.4366018907268615,-0.4337064315317495,1.7747636085263596,-0.08995062375093171,-0.4303543922795512,-0.3292898206755291,-0.3780985610090984,undefined,1499022622230
903d185fccf839df,0.04842927801784322,-0.42312796989324564,2.0316608784543497,1.9430069482430479,-0.4133010771006005,-1.420427049201045,1.7565071460312704,-0.7215991059691775,-0.3408580540709202,-0.1324840669896982,-0.06665207325946948,-0.11855204167462764,-0.5388953877005348,-0.38641156510811114,-0.4328634026022296,1.0842094255868509,-0.4241739772788699,-0.45624668100092153,-0.5395611836520224,1.4671796597136508,-0.19972769084386524,-0.3614751738356755,-0.2706207273004241,-0.4452436510669085,undefined,1499022623701
903d185fccf839df,0.00962083665698269,-0.07620175526759759,1.9270271053638488,1.5677924471537596,-0.35992859459383747,-1.4689590775787695,1.9220876288544158,0.3532338411128185,-0.38648776087832926,-0.12981709197218957,-0.08891073376149757,-0.023675697176256966,-0.9262129567736186,-0.5076958018552733,-0.5349687800577035,0.8579013186629878,-0.504711645941975,-0.5326093149881206,-0.6170438660646992,1.4003657969525265,-0.2766604520557929,-0.3402471944040738,-0.29517761485052824,-0.3930545795055489,undefined,1499022625229
903d185fccf839df,0.27573573496850445,-0.29985464491980024,2.527396168490498,2.243228347086607,-0.24051165780673592,-1.4938260369454903,1.8867430346872733,0.08359753646773199,-0.2648831987675003,0.427661531014078,-0.05972532353691816,-0.013444752833397314,-0.9436204879679144,-0.5799108359703039,-0.5876004912400905,0.6073459811926972,-0.6203001305987313,-0.5654772943347847,-0.6943026517099151,1.0687448693324662,-0.39354654667018923,-0.3809247613517364,-0.2558086289712425,-0.3121854596589467,undefined,1499022626726
903d185fccf839df,0.34226430427204113,-0.4119746264729546,2.5395182468410447,2.363372578831713,-0.17625690498853228,-1.4404095948507316,1.8502281876683853,-0.07117000002839208,-0.348305565162833,0.2289397682035137,0.059314771389522326,0.012013540675404253,-0.9740836675579323,-0.6289800386024355,-0.6444426197543917,0.7023146541418905,-0.6675967856731575,-0.6062614517002389,-0.7196241089574418,1.1384382346070427,-0.399843960010439,-0.3928848297986082,-0.3658486359910952,-0.38897874066077137,undefined,1499022628286
903d185fccf839df,0.3769146367274349,-0.28870141841147856,2.579712800898799,2.445774510649652,-0.05898966950602852,-1.4555356723644626,1.9295536531960877,0.49327171727194197,-0.20849869909391275,0.4296563953514288,-0.2598507823515112,0.15063313462252093,-0.843527183600713,-0.5752816593131045,-0.6402320919889706,0.5406659417340534,-0.7612135376127673,-0.5076131878714043,-0.7174341071836271,1.1989849219806803,-0.346697525898645,-0.41015232863508017,-0.3935405107691571,-0.35962364747351655,undefined,1499022629731
903d185fccf839df,0.225839049200279,-0.41843179145228987,3.106072355751315,2.9536203852111704,0.035011323876657896,-1.6109634774933648,1.8894385965934133,0.041145958164243,-0.07142800883062263,0.327181739829118,-0.6994383390154668,0.09698677241141837,-0.147225935828877,-0.4502941226826613,-0.6760216258495693,0.6255314464996001,-0.700500503594394,-0.41881898566141473,-0.7061412564962368,1.2423777385827786,-0.2897590086208562,-0.41749885546844306,-0.4777207541082585,-0.37969964654788385,undefined,1499022631228
903d185fccf839df,0.080307652887625,-0.47654633472229185,3.252814842402627,3.066100076605273,-0.08008562275896516,-1.7049226573172167,1.8297288440049813,-0.6095622786026004,-0.032738340842898804,-0.006200140162699645,-0.6601686044637717,0.10625893921000912,-0.678155637254902,-0.3206773834934696,-0.6718111054463819,0.5245010648403253,-0.6977597966881716,-0.31362879117439757,-0.6566528150617881,1.3994110857959634,-0.20857177482381276,-0.39643412607393314,-0.45928938337184866,-0.4065923666923088,undefined,1499022632733
903d185fccf839df,0.03179698041761526,-0.4700891697429566,2.8234334391761817,3.1002574367041955,-0.2294236609712483,-1.6634761749111266,1.7798203872571894,-0.9813348163916855,-0.25832545526358497,0.1808788195502606,-0.306782956838079,0.06764268322461206,-0.6041736296791445,-0.27808900746017795,-0.7044427048311874,0.7386855847556962,-0.663207648765259,-0.3000066292689608,-0.6947224640511037,1.3390183796727586,-0.21840077615171485,-0.40331446488785194,-0.48345742706639055,-0.46674453381605635,undefined,1499022634221
903d185fccf839df,0.10802798786275951,-0.4066914914898621,2.6377719118162712,2.4653985541632646,-0.046749684448796985,-1.6872204392143793,1.7786553811802288,-0.9050383038377775,-0.0870685239252055,-0.1934274601736053,-0.3372196686128121,0.05835884728303413,-0.4823209113190731,-0.2771631436370341,-0.6781268713266952,0.7306031180441107,-0.565240194147947,-0.2996329867048646,-0.6791545603704472,1.242146754402578,-0.23183597252227667,-0.40707918183021696,-0.5291953264296522,-0.3676162574878217,undefined,1499022635722
903d185fccf839df,0.2189090517200197,-0.3474029182236173,2.4986855549032883,2.547253562580462,-0.01914287522197074,-1.7422766665484546,1.9492245925318552,0.13135619610471838,-0.06264676257192447,0.02723290849086008,-0.44236420568355694,0.05481490794839202,-0.9001016599821747,-0.2669789783025895,-0.7570743423912364,0.9649935786206733,-0.4607751749826214,-0.34015115920672856,-0.6974862051793115,1.4163031796428007,-0.22291834924993706,-0.4307351231580307,-0.4699378359684086,-0.41016380321393103,undefined,1499022637237
903d185fccf839df,0.21059304094154466,-0.4160837606877966,2.070579919162948,2.163998494951675,0.024057056424661334,-1.802769337993216,2.002507093408636,0.3674711029773151,0.17363756449534357,0.1072452654524938,-0.36263143603278647,-0.03562087587593451,-0.8565828319964349,-0.2845698340590179,-0.816021775280534,0.7568709935331561,-0.5517246188266499,-0.3646976484130731,-0.7382636181550171,1.3579430718187069,-0.2501770783392642,-0.4276028036139626,-0.5664508316995727,-0.4711258250451815,undefined,1499022638726
903d185fccf839df,0.08862369817150978,-0.401995371504891,1.8976788621705356,2.1690683165528126,-0.276676155638617,-1.8153355831681026,2.0535332265799346,0.5116836126467668,-0.08060762158645249,0.5074659878749287,-0.2837646165770393,-0.016909098007339314,-0.7173225824420678,-0.2910506736086324,-0.8233902375217482,0.8983134826325863,-0.5104261303794879,-0.3143444125697297,-0.7479542010418202,1.5581844587850455,-0.18617131809122076,-0.43107596117062985,-0.7117411511048578,-0.4548803982292875,undefined,1499022640206
903d185fccf839df,-0.047205777580682624,-0.5211595622634944,2.286865711339227,2.3191084238674624,-0.25920076268990483,-1.8192999479771275,2.0076536344998184,0.16363998789156123,-0.18386297152738712,0.2298903551141928,-0.2714538329651211,-0.04482298269716692,-0.865286597593583,-0.31789983087636153,-0.8739166001557361,0.8801280738551265,-0.534413398788274,-0.2568349524416465,-0.7512916791938208,1.578510410301269,-0.16813239111732325,-0.40235262239899294,-0.6169397943264586,-0.5100327032543447,undefined,1499022641722
903d185fccf839df,-0.052749899784365104,-0.5880793012773249,2.492305700924963,2.5328104209650917,-0.28606700172996175,-1.8381597986829452,1.9557202319657034,-0.16223149549522586,-0.2321224167767513,0.2479366185864861,-0.4724564493629112,0.06628147056091128,-0.9479723707664884,-0.29753152610902145,-0.8265481057374373,0.6760467221234021,-0.4651952371537967,-0.21801400886193353,-0.7283771228447727,1.5338241174293672,-0.16196019051876148,-0.345896644904352,-0.4265527922196285,-0.4797360846946848,undefined,1499022643279
903d185fccf839df,0.1537662886822404,-0.6186041104076293,2.3245082221508713,2.312674188308518,-0.3482234736566575,-1.836659768240666,1.9719145747888576,-0.0969745743889735,-0.17108916529235874,0.3837430617510378,-0.39534647421138375,-0.023307131936445076,-0.9566761363636364,-0.3290098988862737,-0.7812849009696673,0.6639229655265807,-0.4818192805069448,-0.29119117366323105,-0.7118226679129456,1.244779898549464,-0.2474633853111265,-0.3633973938069085,-0.31198544653302446,-0.41507207890222014,undefined,1499022644717
903d185fccf839df,-0.01116939732166333,-0.5375959237549085,2.324508476287821,2.2197019813179883,-0.5363180077491396,-1.77971452971256,1.9329119145760878,-0.3408951866872455,-0.2373032639495959,0.1821644172279705,-0.28796864330554534,-0.04004185261361378,-0.8000083556149733,-0.40585403195385644,-0.7170743102141519,0.7750564588400589,-0.4910356058790764,-0.40748301879874627,-0.7080094056242499,1.1374373370396518,-0.3160606894335407,-0.36835633223879305,-0.1928683921537975,-0.4515295654022352,undefined,1499022646220
903d185fccf839df,0.06506133408020305,-0.503549141547845,2.1707474895042824,2.1826054638667736,-0.48751237947269277,-1.7465042366226884,1.940669838198289,-0.25157157531838353,-0.21281466247061978,0.22138909220483116,-0.24445348509969908,-0.006006447072645482,-0.7956564728163993,-0.37900486173535275,-0.6686531930572901,0.6881703373966158,-0.5716887551865567,-0.40493084102954074,-0.704517997296524,0.9795570776693633,-0.34506591229289013,-0.35755295898523615,-0.10512497040855603,-0.3282043007463146,undefined,1499022647719
903d185fccf839df,0.08169359717502128,-0.5845572112885965,1.9978464325118699,1.90977333396004,-0.31900180353710944,-1.7025212112319377,1.9037973345038994,-0.3638821447018282,-0.13820696612623143,0.10948366319960963,-0.28152017640130594,-0.04620534552862836,-0.8957497771836007,-0.5243608326408815,-0.7107585148849035,0.3426464117712966,-0.8048119990388857,-0.4792669334386144,-0.7693784341906091,0.7800394216103811,-0.4313374513591212,-0.36822585176369355,-0.2656751037486039,-0.3841098627578955,undefined,1499022649242
903d185fccf839df,0.13852014240186714,-0.5910143762679317,1.8153753404150206,2.1186146767965313,-0.16095179315668762,-1.7223313916111256,1.763326240554049,-1.226650151778058,-0.2157314250659675,0.5449355923848223,-0.23388289258887798,-0.12482398447148894,-0.3343568961675579,-0.3947440805009152,-0.7570743497534702,0.34466702844919306,-0.6413355209569821,-0.3975466315254014,-0.7849533343640552,0.7836580604501123,-0.3946753909858277,-0.413527299132887,-0.35645701981513156,-0.42900910312143614,undefined,1499022650729
903d185fccf839df,0.27850762354329706,-0.39436417652931294,1.5850528021112393,1.6814812456666342,-0.1683266383413759,-1.7952691881484297,1.873920099118872,-0.6103754589280941,-0.23830862149912313,0.08692991445922531,-0.1943979944493088,-0.06681673545027654,0.07036820409982177,-0.21698395069963766,-0.7276006259465877,0.562892640396749,-0.5452025211502314,-0.3295244821964911,-0.8021724863352838,0.9549965671042585,-0.33458242771469154,-0.4014367707062288,-0.35208776813241155,-0.37214510347531843,undefined,1499022652223
903d185fccf839df,0.7220322240264352,-0.09146420367473834,1.4925413615082346,1.6203069218930748,0.3118714156651061,-1.5559468451651761,1.8227309324053118,0.46266998759037964,1.3736030753763417,-0.4988529639277588,-0.6612166111924787,-0.19524282902790285,-0.5998217468805704,-0.05681471550711217,-0.6381268244251431,0.93670505818901,-0.24123409876536447,-0.18607064435268145,-0.5400439647219353,1.624197606637053,-0.05910377456432967,0.373126226578267,0.6315432679335052,1.5492069976692728,undefined,1499022653715
903d185fccf839df,0.4573035460455875,1.2803912498785763,1.1601373474970114,0.9527202001057485,0.07119639319664038,-1.1399843171880386,1.6392125520383438,0.602840757265419,0.6720193420657644,-0.45714907991552245,-1.0500654536148366,-0.04013378677113319,-0.8696384803921569,-0.022558841915850104,-0.6086530711693254,1.0397560847909026,-0.25539187893447174,-0.24139523953770764,-0.5044791749684974,1.5456347387912999,-0.08447260524398686,0.3768784057886279,0.7289850260670602,1.633979323877714,undefined,1499022657191
903d185fccf839df,0.8467735588874917,0.8741764619866834,1.0574174797726181,0.9034637792658418,0.19096304743402695,-1.0321172482977712,1.5838419851163845,0.44346774581992304,0.5297077431439253,-0.13416761599920007,-0.7941699143625639,-0.027208450183101744,-0.9088054255793226,0.0052161532734738315,-0.47602134716840594,1.1023950039526398,-0.20776455816833223,-0.21211170700453064,-0.4028924788532194,1.552102085138313,-0.029212517095584586,0.26124152573453124,0.7135025526809546,1.5489040307441784,undefined,1499022658222
903d185fccf839df,0.42958328008127245,0.5935829421487522,0.8315616524919025,0.7837601044471649,0.04993585617380195,-0.9561584284301218,1.5492258480799546,0.25288194579272466,0.6818157781954665,-0.8727804993401073,-0.43925007284201506,-0.05555296055526081,-0.9479723707664884,-0.07533139623436086,-0.2686527534907043,1.0943125089763328,-0.2260447803962164,-0.27145138721312695,-0.3629406886862219,1.5102337141911413,-0.047884700643029354,0.2941347438749001,0.805844568056439,1.497742398564091,undefined,1499022659732
903d185fccf839df,-0.39786741807254583,-0.3644263531691375,0.9132272905043649,0.8658390989163549,-0.5392905782303086,-1.3627690618912123,1.7774851207339497,-0.512305299923569,-0.3806278467981721,-0.040494308617254116,-0.13738481420792378,-0.145846641046537,-0.9001016599821747,-0.080886384911606,-0.2570737266729,0.425491299858947,-0.3173346218675511,-0.23177549504104647,-0.3282924809924683,1.192148020818407,-0.07702232998635176,0.2482612798393574,0.8759129669955531,1.6325906484073618,undefined,1499022661242
903d185fccf839df,-0.39509539147611433,-0.23821812857303923,0.8309237687488498,0.807042183522212,-0.8986316880297418,-1.2449584714762096,1.7728777050656421,-0.3907211904760151,-0.48610673342145805,-0.25356352548345906,-0.13390995503156652,-0.2403784863216167,0.1487020944741533,-0.3928924305592747,-0.40023183266635937,0.18908019433976658,-0.5084112957207674,-0.4193509533455657,-0.5363496481141531,0.4938901124802643,-0.3516715749040424,-0.3923217415212749,0.018891652355355365,0.3021281299769167,undefined,1499022662771
903d185fccf839df,-0.5683472952909515,-0.08735504023190395,0.8468739119685612,0.8831130845600245,-1.0697342627118247,-1.0696436195884567,1.650930970806715,-0.7125945651038333,-0.3323758736461355,-0.34834522940139895,-0.034475336614224326,-0.18138903146308408,0.43157447638146174,-0.4086315716201899,-0.5623372289385249,-0.05945456884970984,-0.517405357108081,-0.4550434234296568,-0.6842972134714349,0.022174132659376435,-0.5137632334216764,-0.4031083086054914,-0.3451358736835648,-0.2587467357947231,undefined,1499022664238
903d185fccf839df,-0.5239948352426377,-0.3702965031503514,0.6216559684308983,0.6965762919168345,-1.076625682516325,-0.9326843510776853,1.5370945577623245,-1.0363674529029303,-0.390032181137588,-0.24049959455419984,0.19280213337430516,-0.1674755463442092,-0.4823209113190731,-0.5151024793264826,-0.774969098278185,-0.2695978130122057,-0.7423751923518876,-0.5011029227842553,-0.7906907193869205,-0.21296013063818753,-0.6176920962678507,-0.3642852685833262,-0.3156335303922801,-0.3904048241663277,undefined,1499022665728
903d185fccf839df,-0.46162413330669966,-0.4489565128986173,0.7837104604219199,0.8729726347253716,-0.9698601488174277,-0.9490332805575391,1.5687731996160137,-0.8779764162243111,-0.3647119450293904,-0.2884551337315997,0.21621038109365848,-0.06475285682022672,-0.8000083556149733,-0.5891691763339282,-0.8823376335998768,-0.45751430198256277,-0.822497360565147,-0.5558828856545991,-0.8896396193126054,-0.38129593781861976,-0.7090776451981164,-0.40372111552548695,-0.47435320976885825,-0.4082226788662323,undefined,1499022667235
903d185fccf839df,-0.4616242023175191,-0.5775130313111398,0.69247504144197,0.8427026099734083,-0.8432123603765541,-1.0192062741366734,1.6382894861778157,-0.6602665639609455,-0.3283791443120666,-0.21652398374114307,0.17564394164580757,0.014647193865031216,-0.9044535427807487,-0.6002791925407421,-0.9718114572080228,-0.4615555494707163,-0.9368017942018397,-0.605944806310249,-0.955962389955184,-0.4383163799196009,-0.7652540610604879,-0.4315955739497376,-0.5530072523628999,-0.49537000311986557,undefined,1499022668774
903d185fccf839df,-0.4685542688085979,-0.43545528485379476,0.7026834685633586,0.9394436581501748,-0.8241323913519298,-1.028444037169166,1.6764795287401444,-0.42659746094814316,-0.3113747760173906,-0.2575690166561109,0.1277486768309863,-0.005329096444439175,-0.9305648395721926,-0.5863916755199183,-0.9854956853295502,-0.4110403303763574,-0.9323927020013935,-0.6045958887699079,-0.9658628776821205,-0.40103674337298034,-0.7599697996592303,-0.4334463572612693,-0.5499442215062775,-0.504476428322297,undefined,1499022670887
903d185fccf839df,-0.2911442905937037,-0.5023748777276635,0.8015752714185873,0.950744970236495,-0.7832570286943716,-1.1217207527258992,1.6795379865020388,-0.6595220367358205,-0.3588187049083677,-0.3307076006625433,0.08050261564722262,-0.029239435894800412,-0.9958430815508021,-0.5956500417850918,-0.9865483080681133,-0.4413494957506386,-0.9473669262790038,-0.5837415048416162,-0.9537653914500144,-0.2586627180555345,-0.7223439503344338,-0.4445068871024445,-0.49659504955028505,-0.5108593108085919,undefined,1499022672040
903d185fccf839df,-0.2911442905937037,-0.4976788746546618,0.818801690398303,0.9012816915575468,-0.7970707176504707,-1.1440185599355897,1.6577631928726144,-0.8499071561918854,-0.3572318669166001,-0.25979078595335636,0.08011364657456979,0.0052426982754882395,-0.9610280191622104,-0.5900949883539739,-0.9760219702489762,-0.4312464406258782,-0.9278825699462356,-0.5730324973765898,-0.9478181021436682,-0.2665775191495491,-0.7140500785689183,-0.45125674633672236,-0.505488494153873,-0.5052980018095833,undefined,1499022673244
903d185fccf839df,-0.4602382235247131,-0.06915751683415627,0.5170219412034479,0.46755456712114785,-0.7361691069900902,-1.327669757522141,1.7265300016838656,-0.8021466964632592,-0.335047188170041,-0.3067771524944869,-0.036932119426615125,-0.009089564895738039,-0.7260263480392157,-0.5817624988627189,-0.8960218617214044,-0.3140511538081539,-0.907889889091592,-0.573982438573852,-0.9044798557815098,-0.16788888139578617,-0.6773371251113992,-0.4891423696109312,-0.5081615196395967,-0.47347732698974293,undefined,1499022674730
903d185fccf839df,-0.3521289447260163,-0.138425374296457,0.046169454022294575,0.04658989122128632,-0.7507439413640352,-1.6529270513039107,1.8959236866971556,-0.44823259679197286,-0.27449515019727977,-0.5434051897588177,0.012000672621330324,0.019575923838270094,-0.3430606617647059,-0.6400900289077003,-0.9623377568519162,-0.2635359629785165,-0.9580330750160249,-0.6343353922512572,-0.9587471211367641,-0.11173075082625461,-0.7094671559035143,-0.4614951075504983,-0.5665229662265223,-0.45849769704404086,undefined,1499022676221
903d185fccf839df,-0.6431920479000118,-0.8134932943798763,-0.680525495649839,-0.7046609111004339,-1.0838153806411452,-1.910885635429508,1.9666365395962868,-0.6353743142711871,-0.31085525635527894,-0.6530363629702963,0.11486018727950931,0.04232579864160393,-0.6172292780748664,-0.8669193354395603,-0.9265482377157852,-0.2655565796564129,-0.8968759855226125,-0.8560580833348906,-0.935594674728823,-0.4201154175501757,-0.8561727209677779,-0.44690821232361205,-0.47247980039945187,-0.433900814349122,undefined,1499022677708
903d185fccf839df,-0.9009907974114196,-0.9361795458992156,-0.8751191743711338,-0.8796680255149545,-1.1988814762072215,-1.8842833940546106,1.9357915386316817,-0.8612736483010596,-0.292726389139904,-0.7120331250412509,0.10964538710195097,-0.1480123609299097,-0.6259330436720143,-1.0113494328088644,-1.036022051644655,-0.8555740563139569,-1.061067942702284,-1.0232477964734052,-1.0345225836713423,-0.8295138850420429,-1.0451348540796181,-0.470890223676599,-0.6512414557690568,-0.5149207240384085,undefined,1499022679267
903d185fccf839df,-0.93009714568477,-0.7330721665672654,-0.8910693175908453,-0.9318420784250083,-1.2649362185312099,-1.9900122217877558,1.9474074009572804,-0.8699393458783865,-0.22156412375668288,-0.682907667539788,0.08504386810381723,-0.30546806895180356,0.7753732174688057,-1.0085719158063862,-1.0854957952211968,-0.8373885980732344,-1.1758816824097018,-1.0598775423657036,-1.0529591808880394,-0.7958990796693974,-1.061004192100137,-0.4697337623725629,-0.6550928592043788,-0.5096746706104541,undefined,1499022680721
