UUID,iqrAccX,iqrAccY,iqrAccZ,iqrAccXYZ,meanAccX,meanAccY,meanAccZ,meanAccXYZ, covarianceAccXY, covarianceAccXZ, covarianceAccYZ,pressureDerivative, pressureIQR, iqrGyroX, iqrGyroY, iqrGyroZ, iqrGyroMagnitude, meanGyroX, meanGyroY, meanGyroZ, meanGyroMagnitude, covarianceGyroXY, covarianceGyroXZ, covarianceGyroYZ, class, timestamp 
903d185fccf839df,0.11842303584126306,-0.6799472653952914,-0.2383838761928448,-0.4872230202708285,-0.46126695152693753,-1.2692324715419,1.7496215657491698,-0.5428303899244276,0.057161596392766606,-0.5701456363850711,-0.21802550262626616,-0.47227773829653186,-0.2886621267825312,-0.3262323851214893,-0.911811372131227,2.611789133190566,0.17831119979176216,-0.5411008919698302,-0.7548590484645314,3.412313505252074,0.13201483801223338,-0.391277417312671,0.08989403178201444,-0.07589848372119352,undefined,1495874727673
903d185fccf839df,-0.2204575778792906,-0.19301785680572306,0.21269014876248304,-0.01780199238996667,-0.8151301743429185,-1.6676807651426697,1.9206765017493692,-0.2973220876014198,0.004611035993757682,-0.6691273994080376,-0.23701786363340077,-0.8572712120547362,2.3094119039661316,-0.4299257402106739,-0.9718114351213213,1.0377354681130062,-0.2274682020063102,-0.5652760644348983,-0.8505161269409376,1.3200340176212961,-0.3576442938476545,-0.45221317554381446,-0.28264043568137304,-0.18335962353649846,undefined,1495874729173
903d185fccf839df,-0.3257947265653267,-0.23704401089281943,0.4270622897096034,0.2899535937972705,-0.7064751422944949,-1.6895109586557633,1.9441225232657762,-0.1781120715704599,-0.19713560647674133,-0.5958580104866015,-0.19692797637707746,-0.4335261541062501,2.7076091800356505,-0.4743657402840569,-0.8907587406663555,0.005204924592841477,-0.7520686197431102,-0.585723587722217,-0.8275944730216706,0.8530981353061271,-0.4601733756402762,-0.4535113225495035,-0.39469023961014227,-0.3693985995373716,undefined,1495874730660
903d185fccf839df,-0.38539336739942354,-0.2446752350963898,0.6605745008655978,0.6700023721459186,-0.6852754746348598,-1.7700039292899743,1.9405725428027865,-0.371538368966311,-0.22954982512656238,-0.49163495582998895,-0.22835740429127452,-0.3668829970565028,0.9146334670231729,-0.3928924046577256,-0.9012850563987912,0.009246044889748105,-0.7366649332615766,-0.5032962325639198,-0.8210674272136383,0.6286934626676102,-0.46132755773341905,-0.46816737073831177,-0.48103262193270396,-0.4592799649340614,undefined,1495874732174
903d185fccf839df,-0.44914997911734816,-0.2881143157293801,1.2583912666091874,1.231261518229904,-0.5380871472736608,-1.8046909607905557,1.9207280160117435,-0.4985676792691244,-0.43377019227870833,-0.5199413547705382,-0.25230032212013653,-0.07555215360892134,-0.5867660984848485,-0.3623398957036173,-0.8560218221820861,-0.06955758157738794,-0.6866345209606232,-0.4920279613519432,-0.7865225531099773,0.45922591325967416,-0.482949898964223,-0.41983612312100443,-0.5143848138685386,-0.4936619820458425,undefined,1495874733699
903d185fccf839df,-0.352128979231426,-0.3256833925211183,1.158223442130904,1.2917371825340622,-0.5212288873689706,-1.814830139283479,1.8914845742604343,-0.7102770818390081,-0.4481347623567789,-0.6710554364524242,-0.10001631503266456,-0.037174803783812514,-0.9392686051693405,-0.35771069314486875,-0.8423376235094937,-0.04733088291469229,-0.6912255724375935,-0.4318585170751948,-0.7992688125802575,0.37039458134727743,-0.47748247630011986,-0.4518845985120964,-0.5277270335275023,-0.4779096397463112,undefined,1495874735204
903d185fccf839df,-0.23570379317048334,-0.5769260163130184,1.5869669616142963,1.4926480031409939,-0.5555008310774541,-1.9020694647470926,1.9731058702584,-0.3242352387412155,-0.45782020588748346,-0.9220995621910288,0.07344192033144124,-0.16328074846342094,-0.0775958110516934,-0.3243806574752015,-0.8223375926964839,-0.09380498171214458,-0.7534582613500881,-0.38373447823125656,-0.8233728260993468,0.19149543894829082,-0.5012647073054809,-0.4615566490584991,-0.4968698619950549,-0.6007078138288927,undefined,1495874736681
903d185fccf839df,-0.16917508584530777,-0.5704688513336832,1.525718177844611,1.5429861936585372,-0.41021536660469926,-1.9104314335355796,1.8932307726642303,-0.8206425935655924,-0.42045007145425095,-0.9984954427326558,0.22035912135726654,-0.0878685898142712,-0.10805899064171122,-0.26790482917495884,-0.8465481291882133,0.013287306510262416,-0.6914260288663666,-0.3642036791052165,-0.8553062702370394,0.19363582252876688,-0.4974622869589873,-0.45414793336676657,-0.4955714821965101,-0.5592804611459561,undefined,1495874738156
903d185fccf839df,-0.18303528783828477,-0.52937778685119,0.9157790796135252,0.8638139664203212,-0.6329315729788471,-1.9083840329263129,1.9215695557389147,-0.7246071518278444,-0.3648603420411879,-1.0707899152180196,0.21911381750318396,-0.13109903688806762,-0.7390819964349377,-0.36048820690965316,-0.8507586422291669,0.07592611261311351,-0.5972117400350493,-0.41211873135039406,-0.8541308059852893,0.2435729790513407,-0.5117971942138192,-0.4588641212099312,-0.49115058871122863,-0.5259584177749161,undefined,1495874739662
903d185fccf839df,-0.3147066546850104,-0.705482447041564,0.17121957308167382,0.10968222854118885,-0.8807654392897492,-1.939651740016504,1.9218667109600447,-0.8343125651828796,-0.2515459742639215,-0.7814360390475106,0.14693398069336347,0.0207032425663057,-0.8348234180035651,-0.4577007613015469,-0.9107587346681963,0.4073058345520441,-0.5789014140929818,-0.5086897889332775,-0.9378406508244903,0.5803677811507855,-0.5102903264847541,-0.471382300500743,-0.562654352204844,-0.5146983513873509,undefined,1495874741157
903d185fccf839df,-0.7388271034985378,-0.8639766426743003,-0.3634337411152746,-0.42102068759600936,-1.1369821460723222,-1.9676398780351623,1.9620711913557012,-0.7133935430316152,-0.2937076568968236,-0.6675227391332539,0.08216862758925239,-0.07624543708320684,-0.865286597593583,-0.6058341682672128,-0.9328640514506181,0.4760065189533059,-0.457718994114754,-0.6774880701257329,-1.013916975241919,0.41937703301364904,-0.6474829088239918,-0.42236498647238946,-0.38619403692922066,-0.39355884652124024,undefined,1495874742673
903d185fccf839df,-1.077014658811869,-0.9972291641598247,-0.7054075360939852,-0.7277633050807276,-1.4149839644997568,-1.949637187883403,1.9384607949086523,-0.9273041688883809,-0.28210584259160465,-0.7128209418494845,0.07235192281971269,0.008012352180658044,-0.8826941287878788,-0.8826585056397183,-1.0802326263116282,-0.05137215866756737,-0.6128068825660217,-0.8884320904835585,-1.0931558581389036,-0.054094366128302054,-0.862892684282372,-0.4267174584037375,-0.4738835408436136,-0.3465457993140604,undefined,1495874744168
903d185fccf839df,-1.0936468528958676,-1.0618008724091619,-0.8106802094753366,-0.8544758044052432,-1.4161051085797578,-1.9020135631567217,1.9314208209879287,-0.9547816666225133,-0.28718288816827403,-0.6778494416048915,0.09497518465473039,0.005158845267356249,-0.843527183600713,-0.9845002399265051,-1.188653817501935,0.2618220414350173,-0.7881435006577819,-0.9817036855953671,-1.1598354661117243,-0.06159341035302524,-0.9291160837264634,-0.4335568459988968,-0.4304685523703167,-0.31326215395570833,undefined,1495874745671
903d185fccf839df,-1.1269111720530458,-1.030689048280736,-0.8712908553650197,-0.9095283958925721,-1.4778090050595167,-1.9191521068049313,1.9252512989196502,-1.0206034808430264,-0.2941608566044863,-0.6835336857231773,0.09533149040235182,0.02913454297671341,-0.7521376448306596,-1.0567152837546165,-1.297075005011125,-0.6474514429617182,-1.1449576118504958,-1.0948227252841092,-1.2621008537384286,-0.5063467109185462,-1.0992915026393515,-0.4681664332053138,-0.583174916204516,-0.47954918492072585,undefined,1495874747147
903d185fccf839df,-1.1560174858209862,-1.0494735282206205,-0.9401960230099838,-0.9891271611493418,-1.453905046494468,-1.9503941918573615,1.9298218962919451,-1.0134936653717306,-0.28758696490677704,-0.6931835844834959,0.09262394042916776,-0.004709850502642712,-0.8609347147950089,-1.1094878089338847,-1.3181276622438147,-0.9060892718752256,-1.2717601222240655,-1.1559799624431235,-1.2961543323792064,-0.9235829910870301,-1.2261200572801998,-0.47555730087721815,-0.6569942123256868,-0.5220646731615818,undefined,1495874748672
903d185fccf839df,-1.1601755257156334,-1.0852815015620096,-0.9567845582466469,-1.0042307095270142,-1.3871508725907749,-1.9696756333281171,1.9335299202232077,-0.9962273491061973,-0.28009503695080873,-0.6912966896568176,0.09211804459408006,-0.05828120681490125,-0.6999150512477719,-1.1252269888471236,-1.3276013552376875,-0.9404395822780448,-1.287861665249725,-1.168120215400707,-1.3032770858027274,-0.9771695804727556,-1.2443416966081775,-0.47574927426185615,-0.6553056808544881,-0.5211288039084935,undefined,1495874750165
903d185fccf839df,-1.0562244593386325,-1.1058270264962582,-0.9542320067266382,-0.9978816345287475,-1.2749956319072677,-1.9738682626264186,1.9314155561433928,-0.9990248188169539,-0.2810942559503371,-0.6958355141658125,0.09136558233979462,0.04372184443197684,-0.5954698640819964,-1.1354111655134957,-1.3328645167850222,-0.9485220277910892,-1.283083215776861,-1.175922401944814,-1.3055860336000111,-0.9470810181110986,-1.2419222161466499,-0.4759672210812065,-0.654562183226203,-0.5224045914647465,undefined,1495874751651
903d185fccf839df,-0.9536593717544377,-1.078237321584553,-0.9287120825394393,-0.9778517554308596,-1.1936151970529343,-1.9534431641882277,1.9306608083106964,-0.9648945347259252,-0.29715960951962883,-0.6719100037916033,0.07835249706933275,0.058643910506153966,-0.36482007575757575,-1.1354111606569555,-1.3160223946799874,-0.9687280956435277,-1.2599907664816463,-1.1533137932158446,-1.2354010242160123,-0.9760454922589257,-1.2140583299822467,-0.43305910225457606,-0.6241589890331118,-0.4684013044066146,undefined,1495874753165
903d185fccf839df,-0.999397879606377,-0.7947087852119996,-0.9363682122777686,-0.9869790395673702,-1.1373832897892218,-1.8860512857932858,1.9209989051476521,-0.9568567593147255,-0.30272270330001055,-0.6593610811030172,0.07437510881563214,0.04542778475847304,-0.2342635918003565,-1.1224494912708072,-1.2391801948603904,-1.0010578282324425,-1.2041385407374021,-1.1352459048045853,-1.196939554857503,-0.9959248849531369,-1.1984400352035087,-0.4295508904114754,-0.6154478953293262,-0.4637532253189579,undefined,1495874754655
903d185fccf839df,-0.8081278374201448,-0.9802057292143044,-0.9306257337685975,-0.9942135929066402,-0.9655092888795272,-1.8021078339556784,1.9106059030039306,-0.9139522743364958,-0.2748596606452545,-0.6521269694957836,0.07197553456292996,0.04602964016288826,-0.1124108734402852,-1.1113394880147678,-1.2307591282861976,-0.9990372115545462,-1.2165456595898239,-1.1285963139820805,-1.18870430844342,-0.9699169107962936,-1.1880022752475847,-0.43022987570803667,-0.6172085869324591,-0.46963910513706325,undefined,1495874756158
903d185fccf839df,-0.9425712653687117,-1.0858685457881234,-0.968906890734143,-1.0262335432128828,-0.6682732167120842,-1.7603538919818915,1.8916187031410152,-0.9575372001910732,-0.2895704712291284,-0.6701097878576392,0.09071332906547105,-0.08639226656405025,-0.38657948975044565,-1.129856157410089,-1.2276012297012941,-1.0798615324275629,-1.2490204936872389,-1.1425604548128765,-1.1927064842893473,-1.013679293198896,-1.2049279600832814,-0.4263334730797696,-0.6147598510165955,-0.46114038204100766,undefined,1495874757650
903d185fccf839df,-1.2918469615731787,-1.0224708090790442,-0.9784766717016306,-1.0380344237860046,-0.4668484090370847,-1.7793278754506094,1.8884234914089242,-0.9649929803357296,-0.29127243192021085,-0.669037513774231,0.0908271789783056,-0.11028095319099172,-0.7390819964349377,-1.153002005081456,-1.2728644445921355,-1.0717791116461497,-1.2974931243948014,-1.1726102724624414,-1.2286630950053337,-1.097877993114588,-1.2490380146438218,-0.4518693907368087,-0.6422233658514309,-0.47290200960217027,undefined,1495874759156
903d185fccf839df,-1.3306553339232197,-1.1028919807336437,-0.9995314096874603,-1.0467346476934793,-0.402418807573364,-1.8072834040314243,1.8922866805534337,-0.9604446101639611,-0.2819085672023814,-0.6752171875796087,0.09194395227604606,0.014397858294902872,-0.8913978943850268,-1.1835545253674922,-1.3349697843488497,-1.1465415913182027,-1.364556963941351,-1.2110765724641168,-1.3085526812893808,-1.243439498820309,-1.3232579247003935,-0.47477714716491837,-0.6698028837054206,-0.5279892205553076,undefined,1495874760656
903d185fccf839df,-1.3167952009410622,-1.1269595956566205,-1.0065491474088382,-1.0544433186114444,-0.4432735954019507,-1.8142385125307507,1.89461406238013,-0.9630484025228206,-0.2833413125664031,-0.6752851925243636,0.0918213287889975,0.037752632538485674,-0.8348234180035651,-1.1872578592465564,-1.3454961129651946,-1.1889743525337015,-1.3868873117118614,-1.2195817157730242,-1.320867068377279,-1.2772390866422196,-1.3384706998201934,-0.47683029460195137,-0.6720329854863482,-0.5291155879383742,undefined,1495874762173
903d185fccf839df,-1.1629475868174748,-1.0946737707599443,-0.9905990041891267,-1.0404802637784438,-0.5825110770339139,-1.767681679321452,1.876268524087126,-1.0415929476268657,-0.30177771739981174,-0.6689785349670995,0.07804710881655076,0.026976301878005284,-0.5258397393048129,-1.1770736833896074,-1.3349697825082911,-1.1707888942929792,-1.379683375423086,-1.2034390422452288,-1.3125128762211118,-1.2463652027954504,-1.3239709062016318,-0.4730173877051699,-0.6639645399799162,-0.5240273437850854,undefined,1495874763654
903d185fccf839df,-0.9190089702882245,-0.8399089692953388,-0.8904309255738937,-0.9227518066279654,-0.7137360002067885,-1.7518964257930254,1.8785643409396064,-0.9483714180695993,-0.3548652624686464,-0.5140017271474053,-0.06677701092502787,0.20568527584777357,-0.0775958110516934,-1.1141169791156968,-1.3012855346171044,-0.9909547943062234,-1.2311434526145737,-1.1022322690766047,-1.195351278360303,-0.9019019796563371,-1.1727748037441328,-0.3471096094501574,-0.4538312851450958,-0.23892953240772785,undefined,1495874765165
903d185fccf839df,-0.75130115417166,-0.5229206364858509,0.16866803810946288,0.20673951656436762,-0.7455290900747787,-1.7666870955992882,1.8735335130339879,-0.8719078098312409,-0.4435512389644835,-0.2795385784704529,-0.11162131172401622,0.24374016292637757,0.2749066956327986,-0.809517641697327,-1.0539168222560713,-0.2453505118039744,-0.5068663587495511,-0.8834227318797149,-1.091490617902653,-0.48083148927765207,-0.9619232688041458,-0.2666046984151812,-0.16069236817707494,-0.16456209007141576,undefined,1495874766644
903d185fccf839df,-0.033345644598525105,-0.38144984657064246,2.1362949056818006,2.196070675098504,-0.3558965975777742,-1.7951923239559784,1.9192500562518366,-0.364774566971097,-0.4744455788085863,0.05876528802545349,-0.17840421426266093,0.035051587829249144,-0.14287405303030304,-0.46881078398374815,-0.834969175992747,0.6517993926504493,-0.14387865175794567,-0.6754361951008246,-0.9886724823023298,-0.044424145834385455,-0.7536954464801634,-0.23749781187717117,-0.027019896821393767,-0.18404658596362267,undefined,1495874768152
903d185fccf839df,0.17039858628246837,-0.42547600065773883,2.8266233661653444,2.996320506865596,-0.2925778444884095,-1.7902683111232025,1.826988572821155,-0.9171945969856484,-0.4895257154124375,0.16120864908819293,-0.0942030538158189,0.06625445128906897,-0.3996351381461676,-0.12995560049451213,-0.7633901524449525,0.6861497065863587,-0.29680214221976636,-0.43139620973953885,-0.8215326640252116,0.2995463279793461,-0.5194237285688545,-0.2047989897626355,-0.1526905398213074,-0.29109439241177887,undefined,1495874769647
903d185fccf839df,0.02209502535174393,-0.4002343557385192,2.9689001583413885,3.036683561605897,-0.2370042222832757,-1.7963709168120972,1.8286664117858429,-0.9133657967044264,-0.4434987384942542,0.1688497573121008,-0.17566197498193356,-0.033426593431892214,-0.27778241978609625,-0.07162805749875621,-0.7928638541651337,0.5285423547255612,-0.5901806660054967,-0.22506890521733527,-0.7365004214531878,0.6200341717336011,-0.33160411450937394,-0.3745089325343832,-0.3781600839843547,-0.532527158445336,undefined,1495874771152
903d185fccf839df,0.09971170104100659,-0.3650134558512359,3.134782715201575,3.152038556092821,-0.17785118361434493,-1.7876339424788408,1.817658054487021,-0.9583664120411963,-0.4281182190223014,0.3723594319195706,-0.22925879952377037,0.14659778563059891,-0.10805899064171122,-0.12625224880813293,-0.7665480501095767,0.5285422981961182,-0.5639708956113116,-0.164025659987011,-0.7389353120358805,0.576364181726852,-0.3119641321962067,-0.40126293413687175,-0.34204176130686537,-0.5939169885434146,undefined,1495874772659
903d185fccf839df,0.15792439758770713,-0.3890810123182281,2.6179934495904456,2.6247722900458776,0.005851363020059525,-1.7525858812574937,1.7856007120306314,-1.1104364669833025,-0.4410183479455216,0.418074203532874,-0.031079166071030152,0.11521082955643057,-0.7738970588235294,-0.15310140607586206,-0.7454953818335363,0.5022744509717944,-0.5986178823936453,-0.21652576380343025,-0.7513336605851482,0.5231163585044273,-0.343513023447692,-0.3813749265901525,-0.4332301035773007,-0.48666578588460147,undefined,1495874774153
903d185fccf839df,0.017936847435457735,-0.45071767480495084,2.22497853555259,2.3893215748906687,-0.14154267784179425,-1.7199811901160065,1.8411395769465684,-0.7512751671295854,-0.5111770018500629,-0.056182927149401964,-0.010828602719798413,-0.009773170425017077,-0.7477857620320856,-0.19291226834436928,-0.7402322239673185,0.4275119165368434,-0.6251684752250052,-0.19025038174275416,-0.741943940052209,0.4923656665426296,-0.33427907428911546,-0.4219944118625354,-0.42427817251127126,-0.47109286609826206,undefined,1495874775716
903d185fccf839df,-0.23154568426501662,-0.47713340817639793,2.239652911286196,2.356426046908163,-0.2582647690106418,-1.6884386314091289,1.8447871157255171,-0.6204473246733265,-0.58473009243743,-0.27696523676711754,-0.02793037866706778,-0.06508817036348946,-0.6607481060606061,-0.19846732177548715,-0.8097059725890517,0.3972028359567268,-0.6172753742593436,-0.13360220122949287,-0.8073641208009962,0.4908566207197677,-0.3190857878385264,-0.5496357093090438,-0.46919275982509556,-0.5110629004455401,undefined,1495874777158
903d185fccf839df,-0.42281565744042937,-0.48769961968659825,2.583541119904913,2.5311038985638588,-0.38586912574969534,-1.722249867371861,1.7917097416139445,-1.0166936812415726,-0.5568789355497571,-0.3240711743579559,-0.2090279796557452,-0.020698744447091192,-0.8261196524064172,-0.24475893293818704,-0.7960217665542255,0.482068312457552,-0.6214024228533653,-0.1485162841655642,-0.7577637277744184,0.5543444128833597,-0.3002641797226932,-0.5183275550003152,-0.5203180178129405,-0.48753404560383273,undefined,1495874778649
903d185fccf839df,-0.30777648467770247,-0.5064840996264827,2.806207020196466,2.837642818549878,-0.05988452768703632,-1.7370125862259649,1.8528395817876149,-0.46565052488670644,-0.5375844437451306,-0.5358242311902172,-0.2838386217218221,0.04074847579712687,-0.8087121212121212,-0.23550060552533725,-0.7991796789433173,0.5042950111202477,-0.6268652248660995,-0.09971462108452177,-0.7654182376133887,0.6241609647118328,-0.2711603584727703,-0.49091976726464387,-0.535469884864656,-0.4339990777121559,undefined,1495874780148
903d185fccf839df,-0.148384817361252,-0.4583488990085212,2.294521841077556,2.2900966622155225,-0.1476009440850267,-1.7542210062289203,1.946823595063569,-0.07738234607073838,-0.49117268346698995,-0.8398500022607637,0.028442040924337848,-0.0021908001306150974,-0.7608414104278075,-0.23179727974050715,-0.8149691378175034,0.5932016927121441,-0.6499921915637339,-0.09754875478978701,-0.7508438806184407,0.6862321000020649,-0.2574064462368123,-0.50108515790383,-0.5015469187887268,-0.48824216261216175,undefined,1495874781644
903d185fccf839df,-0.06938205936295413,-0.45423976479367917,1.9659458919354975,1.9892187177091833,-0.04761368296401899,-1.7825026284542642,1.9840379910161035,0.15546126369024524,-0.44878031958203685,-0.8997098610202141,-0.102402443431031,-0.007324692408231423,-0.8043602384135473,-0.24105563305490604,-0.7391795938665217,0.5830986941168268,-0.6319162844500479,-0.14809831143865965,-0.7547550985346776,0.6603165120753369,-0.284777188559375,-0.4512776626118044,-0.41473558503688274,-0.5021313878180651,undefined,1495874783138
903d185fccf839df,-0.21907156458107485,-0.4254760591137235,2.0488875515710148,2.0139304181440174,-0.26042476023937916,-1.7914678708439271,1.916920075261689,-0.4106585001248557,-0.42185651751672465,-0.7385381660956928,-0.18310283143748535,-0.09904419195749188,-0.8261196524064172,-0.19013474162881033,-0.7718112153380284,0.5285422981961182,-0.6094741398310235,-0.21807733728549766,-0.7831411615337057,0.5506641786463664,-0.35016232756084603,-0.40584826294242166,-0.3966288093093963,-0.4522279398554521,undefined,1495874784646
903d185fccf839df,-0.148384817361252,-0.38497199501535545,2.0456976245818526,1.9955668488847869,-0.31439381573504016,-1.8059440924075951,1.866330495750486,-0.7151062061911417,-0.45182375941806685,-0.7765902863102834,-0.36990247258988984,-0.029943292926741052,-0.691211285650624,-0.14662055357547302,-0.8465481144637458,0.26990443748479903,-0.6426791246805449,-0.20281494336071962,-0.8419843416305011,0.5201290652035252,-0.3611447092505324,-0.4602328999757682,-0.4869193450413568,-0.4539488909125067,undefined,1495874786188
903d185fccf839df,-0.12482252228076475,-0.578100104765246,2.4967716495371803,2.4099815755827403,-0.2783115886456031,-1.7941185444024645,1.7718520801435376,-1.251023553084604,-0.5259685286828358,-0.3878162734598741,-0.4253298390310789,-0.027704831026144423,-0.7390819964349377,-0.09755141569721419,-0.8981271513719332,0.2840486977006306,-0.5642469731456636,-0.1870015839228951,-0.884531948963067,0.5090883768433674,-0.3631738874187346,-0.4708150130964698,-0.5013668842014538,-0.4930784423968825,undefined,1495874787651
903d185fccf839df,-0.1913512986167598,-0.5939494804865311,2.4597670224685886,2.3864765120104177,-0.45264386408365165,-1.828022949505348,1.9323018046244893,-0.3308616284835959,-0.47116821976257883,-0.3132819157330779,-0.3558112541479627,0.005126375717478362,-0.8217677696078431,-0.10403224229605414,-0.9118113794934608,0.30829598477650116,-0.5744995420989586,-0.14831996292263838,-0.8955589230087003,0.5404858013060904,-0.3468805106694574,-0.4501517723595435,-0.5345191680045567,-0.4151775833634061,undefined,1495874789144
903d185fccf839df,-0.16224495034340955,-0.625648290385086,2.35577113312114,2.6150418131316844,-0.40931022269064343,-1.8384393075811711,1.9509918340772088,-0.21103920620921401,-0.5085304111259377,-0.04997165726364244,-0.42402365356657473,0.06427135212989171,-0.9566761363636364,-0.10125479328514247,-0.9191798122857399,0.2921312209416593,-0.5723135007247973,-0.14067610061271962,-0.8643671400654199,0.5896838362166891,-0.32848631156314856,-0.4584828362137089,-0.608827652586992,-0.3921877779404828,undefined,1495874790641
903d185fccf839df,-0.22738764437036937,-0.5170504865046369,2.0584578408124012,2.123397591434717,-0.5233374603971941,-1.7961170321678372,1.9065086587323525,-0.5228672843261598,-0.5737180531084936,-0.21881525705400642,-0.28797317755905194,-0.031136880056301913,-0.9697317847593583,-0.10958726982562293,-0.9391798136498145,0.2456572069383716,-0.5280023261175315,-0.14774999915437295,-0.8677605931203941,0.549478496677676,-0.3451352619510832,-0.4577333813983211,-0.5652072184167863,-0.3755920144731698,undefined,1495874792147
903d185fccf839df,-0.31332060688138497,-0.5827962247502171,2.0463355083249053,1.9316275150494437,-0.612103029652171,-1.764963459210951,1.7782582771908917,-1.3644143501581891,-0.5500348724793273,-0.5392329182417798,-0.18731469315453705,0.037973404807125695,-0.9262129567736186,-0.1836539409315195,-0.8823376556865782,0.3244609464643938,-0.6048751812459978,-0.17816079430564258,-0.8537319870373885,0.5167260032807359,-0.3652254368870288,-0.4528218469357551,-0.4947426071191437,-0.3553892256676142,undefined,1495874793644
903d185fccf839df,-0.02641564711826581,-0.376753697357679,2.6754144226279157,2.3851360444643532,-0.012323465017271468,-1.7139997035114385,1.8251056317080214,-0.5106004590559222,-0.5271405153025718,2.227544052536319,-0.18300849969196564,0.04571326472104461,-0.6650999888591801,-0.04848217421275899,-0.8002322722329452,0.3608317922840349,-0.45609059153310305,0.018743089913868326,-0.6158264265815026,0.6116728178217649,-0.17271213379868816,0.5674454551609963,-0.38893660023930016,-0.17274108430501856,undefined,1495874795145
903d185fccf839df,0.9923051622326042,0.005980402925381321,2.505065408881613,2.1215835002357357,0.5395556125525331,-1.470671071110275,1.7912048048800298,0.22383053888345414,-0.1579853135233882,2.6164300840835226,-0.009799209696357744,0.12088403434390829,-0.3604681929590018,0.09872534302821387,-0.7023374151806586,0.35679072851657134,-0.31136483780124197,0.10716998118017589,-0.4922067704096999,0.6418075792218957,-0.06749214419003564,0.6120831789021596,-0.39704771532841465,-0.23726029739096086,undefined,1495874796645
903d185fccf839df,0.7941051225661127,0.08933664957058769,2.619907863230452,2.1532963060936945,0.6744113904189349,-1.544237760982877,1.8659780842784872,0.6136019899198283,0.17924630457571755,2.6998983190923624,0.05466693195799309,0.02042693878288754,-0.517135973707665,0.0376203510215463,-0.6539162980237968,0.30829601304122267,-0.3457018931469377,0.09845585278401753,-0.4964118534162616,0.5633370994236702,-0.09019852058961379,0.6222580841727305,-0.3120652691441902,-0.18021340241798386,undefined,1495874798178
903d185fccf839df,0.7871750560750339,0.09638082954804433,2.6511702659268224,1.9204956201389627,0.7723723683651404,-1.5974562183217267,1.966310449728164,1.1315636724636347,0.2784729204338517,2.5623617066228226,0.19053804880444292,-0.047814659563689736,-0.5214878565062389,0.08020866230096518,-0.5665477567039459,0.4719652290680701,-0.2709140801512469,0.13848638988508208,-0.47598816112760445,0.6941314949771165,-0.037170537374866475,0.5734317820347287,-0.35013846449741004,-0.2373298519111318,undefined,1495874799668
903d185fccf839df,0.06921947749107951,-0.5064841580824673,2.377463246576124,2.3657363905460302,-0.3172120878892796,-1.8545529850430067,1.8790061620630427,-0.728291801697354,0.03924103433679293,0.5692961747102906,0.07323120189790458,-0.003783723828902644,-0.43880208333333337,0.004290393056526316,-0.4486529056498184,0.6558405553444383,-0.3249218387136498,0.11319894508363615,-0.4579573803303277,0.7872920885001451,-0.031492903444352745,0.5776947303528794,-0.38877843286033564,-0.27418391384015284,undefined,1495874801164
903d185fccf839df,0.14406419559473013,-0.5616636117478663,2.157987527410683,2.2833055905718584,-0.4898780944947655,-1.8938286156481756,1.9055593028245421,-0.681126492365798,-0.4070347601524395,0.2241707158044443,-0.2778383329000906,-0.05471522243016109,-0.7564895276292335,-0.16976643686147025,-0.6128636651948506,0.7225206513325252,-0.5496651332973447,-0.08027248178579863,-0.5996078149749238,0.8489320646388817,-0.16037900519931708,-0.21411778067261727,-0.500803244816204,-0.3226166485395431,undefined,1495874802665
903d185fccf839df,0.03041100162480924,-0.5481622521770781,1.2494588611108537,1.3759883056752642,-0.6221830199617484,-1.8554823508906726,1.9458453081750928,-0.467581397865488,-0.36432027988532595,-0.016283998719656325,-0.22042180031068787,-0.038485800652416,-0.7303782308377896,-0.2577206379389651,-0.7654953979220785,0.597243039126823,-0.6654395964902905,-0.24268082242573552,-0.7948538231003069,0.7239736813904318,-0.33399299786154196,-0.49815219561988777,-0.546810636569919,-0.3800205520754691,undefined,1495874804138
903d185fccf839df,0.12466004392511934,-0.561076611363741,1.3062422045422204,1.3363508239526813,-0.5618471215722062,-1.8333312847174477,1.9480806458330397,-0.41448646159372315,-0.43817254887739376,0.3227309453671596,-0.23730101587782226,-0.02379986761659333,-0.7086188168449198,-0.17346978854784945,-0.8044428147228339,0.5608719954541311,-0.6260262095201402,-0.28269869367820205,-0.8282775889823981,0.906275876907857,-0.32349532000752673,-0.5115395553434409,-0.5309527601223577,-0.414077803280253,undefined,1495874805647
903d185fccf839df,0.06506136858561277,-0.5634246421282342,1.9053347377719156,1.692825058410654,-0.5611168322392133,-1.7878389151005432,1.8883708995297384,-0.7210597545814849,-0.4021375527165726,0.05801357605266034,-0.1660610166163823,-0.028915854425647335,-0.9653799019607844,-0.24846231052611534,-0.8318113004148241,0.5366247366429822,-0.6430306846558531,-0.3585040291976038,-0.8131434879064168,0.7575884893478411,-0.38424608084433165,-0.518423332981386,-0.5522508130903779,-0.40942235241755154,undefined,1495874807154
903d185fccf839df,0.17039858628246837,-0.5076581296227254,1.889384594552204,1.8532625918918981,-0.5515202704846506,-1.7127209501551826,1.8187362555754845,-1.0286986299098135,-0.46443392492422386,0.5216237178611661,-0.16379600655961588,-0.03373698008570964,-0.8913978943850268,-0.20772564918833697,-0.9191798196479737,0.38507919241879157,-0.5925010418670894,-0.3591753204910309,-0.8431038315848666,0.7186150242598476,-0.39533610996222696,-0.5240476955331916,-0.4998733184959433,-0.4033968165351953,undefined,1495874808653
903d185fccf839df,-0.004239296325174835,-0.4501306598068294,2.0610096299215614,2.0932001595017855,-0.7361485329513242,-1.7075174299318523,1.7979081822890377,-1.1708077775406425,-0.4615155211117365,0.3026965602149563,-0.26038120580699603,-0.13341462621151548,-0.5911179812834225,-0.25679482591891944,-0.8886534657402942,0.4659034638285455,-0.6375732240688942,-0.3348124891981969,-0.8419493573559035,0.6117652122638892,-0.3993304598255262,-0.4935934190882354,-0.5265258725828486,-0.37997909231177895,undefined,1495874810171
903d185fccf839df,-0.07076800365035041,-0.41667077568591804,2.1305526813095783,2.1598209366842127,-0.6664835081440983,-1.7347974789120688,1.8823696623614148,-0.6215446660639954,-0.47985618323783086,0.3035049018860905,-0.2927276037460437,-0.12562326723465106,-0.2560230057932264,-0.23364896853447129,-0.9097061045673995,0.5123775343612763,-0.5725590511867449,-0.2709447517244723,-0.8468261344757769,0.6306437052098156,-0.36470161336763535,-0.5037906615569857,-0.47630480378965023,-0.41420093476829783,undefined,1495874811654
903d185fccf839df,-0.18164913651843007,-0.5287907280110801,2.2313586436678645,2.293268969654693,-0.6619372290328294,-1.7892108352018,1.8682476046676135,-0.7500369994198504,-0.5395121583227451,-0.019129603746686194,-0.40911625243372235,-0.10074273553821386,-0.7869527072192514,-0.24290730889809564,-0.8118112622395806,0.5123773930376686,-0.6109273301056679,-0.2537761411160829,-0.825108033019089,0.5756866542332197,-0.3610176190801249,-0.49299905888867573,-0.5439051762281957,-0.4040808945178951,undefined,1495874813146
903d185fccf839df,-0.09571631202905342,-0.5816221362979895,2.4342463358705415,2.318178044360786,-0.5738608064427229,-1.8727280375033786,1.9041786518160406,-0.6233516808627514,-0.4144653955730658,-0.25489129581468917,-0.22127936411675275,0.0814665477739106,-0.852230949197861,-0.363265707723663,-0.8676008121887214,0.3103167145132837,-0.6601757798388822,-0.2723443335949024,-0.8507233576508383,0.4220563593980471,-0.40217012621336024,-0.5126199506565019,-0.5710719732177674,-0.43887559797182385,undefined,1495874814641
903d185fccf839df,-0.3590590802279145,-0.6256483196130783,1.8613121188449966,1.80987716604076,-0.8093004118893297,-1.8884899991515463,1.9442753050320785,-0.5075432113047982,-0.3909502260632694,-0.4431152607725353,-0.06296983019668537,0.02524540838838489,-0.6955631684491979,-0.39289237875617655,-0.8707587024911119,0.11431771643425871,-0.7141673753868104,-0.338143617838265,-0.880291880213813,0.34820541576462144,-0.4593263241659545,-0.49724655570346593,-0.6222107795289096,-0.4544252948621987,undefined,1495874816203
903d185fccf839df,-0.11512046369866423,-0.6356275745811419,2.025919162356027,2.083860546079999,-0.6952526027106818,-1.9012658763262815,1.8937488387089596,-0.8269606328774071,-0.4002144525579604,-0.11746309852997863,-0.12334102766012127,0.03768347319492166,-0.8565828319964349,-0.3447490010948652,-0.8812850182235475,0.3305226834391968,-0.7021387809163215,-0.2879550384253371,-0.8858193611856457,0.48517458638040084,-0.41138987393502136,-0.5198606602765233,-0.6566393883514857,-0.4561323010912133,undefined,1495874817645
903d185fccf839df,-0.10264630950931272,-0.5657727313487121,2.5088934737507778,2.4850573909562437,-0.5885899301612577,-1.8819658002531832,1.9419663360197146,-0.4629890257484924,-0.48775779478088044,0.4300212043227049,-0.20737767726776704,0.014526441395986512,-0.9566761363636364,-0.3410456623592606,-0.8823376704110458,0.31233733119118007,-0.7149722721629419,-0.31867614673714906,-0.8774231880969309,0.5851874928926845,-0.41695982255563,-0.5239139122631296,-0.598649764540781,-0.46494536176952905,undefined,1495874819148
903d185fccf839df,0.03595505481767225,-0.6004066454658663,2.152245303038461,2.189023910656906,-0.5601911212121956,-1.8692388373951307,2.0294073917965765,0.11557844832153358,-0.5213677069600529,0.6812425737118367,-0.20132669160107583,0.046521376141150615,-1.021954378342246,-0.371598197214918,-0.8602323425852734,0.16281231885072123,-0.7553659796133189,-0.34927059726059967,-0.8681804001580905,0.5353735215643144,-0.43910731531579034,-0.4941213433572974,-0.6577479014007301,-0.42314202899415393,undefined,1495874820651
903d185fccf839df,-0.0624519238610559,-0.5199855322672515,2.5005994602693957,2.496490110782789,-0.5798368040960719,-1.8479612385330517,1.9500451027352526,-0.38644326746921986,-0.5340975255446969,0.7752117805862841,-0.21426986317269225,0.011138835990486838,-0.865286597593583,-0.38826321504975164,-0.8644428777129282,0.16281223405655662,-0.8430523082481097,-0.3858560144130129,-0.8874706084363174,0.4463551076315935,-0.4787124577178208,-0.5082732235025414,-0.6262367473985094,-0.4418937029555068,undefined,1495874822190
903d185fccf839df,0.09693970894998481,-0.49474388734803193,2.3404583653705826,2.411572523146268,-0.6898217553405439,-1.8386209892739702,1.826339030482907,-1.1997393030581087,-0.5348529232741154,0.4855687420360284,-0.1490769348705313,0.05138324480890769,-0.7695451760249554,-0.3141965439438551,-0.8749692376187667,0.28404878249479526,-0.7726700714119785,-0.4081289774094504,-0.906592892935417,0.5419178599635492,-0.47619834980961917,-0.5019601700851691,-0.5966210837959515,-0.4355930595628299,undefined,1495874823652
903d185fccf839df,0.24247134680050694,-0.42136689567088914,2.8132252661917425,2.832688281204998,-0.5142963373315866,-1.8034355017767572,1.788461929295143,-1.3232751211440388,-0.697574356428092,0.5724351515319082,-0.2052435589645888,-0.004065647708660747,-0.7216744652406417,-0.2993832149029856,-0.8865481760897654,0.26384267224527447,-0.7540666074178485,-0.4083316322493802,-0.9171720714274985,0.5874972583499343,-0.4672076761470021,-0.48317678120840385,-0.6447607892910306,-0.44262048043210656,undefined,1495874825152
903d185fccf839df,0.4212672347973877,-0.3990603257422764,2.182231938248726,2.137297646546223,-0.5620219636320078,-1.793543222305234,1.8972649032239635,-0.6083454341593775,-0.722049151010079,0.6637830069052139,-0.27777145932940583,-0.04671491957410146,-0.8304715352049912,-0.3743756850781533,-0.8812850329480152,0.11431774469898025,-0.7905902396496888,-0.4776963663908841,-0.9395338784999937,0.5311235490998986,-0.5209008225142819,-0.4510312327847176,-0.6317415398495018,-0.4551640729501317,undefined,1495874826662
903d185fccf839df,0.2909817432272388,-0.40082137073664054,2.182231938248726,2.131007809656503,-0.4335638978897647,-1.7874289699151258,1.9072923474971717,-0.5139829665046493,-0.7219236647714556,0.7411985702834831,-0.3175525198678723,-0.039183355016787345,-0.7826008244206774,-0.31975150671955116,-0.9107587641171315,0.2456572069383716,-0.7467765464113405,-0.4560566965441193,-0.9723559183897741,0.6343239303462875,-0.4957028441582411,-0.4838840224273065,-0.6241256148114873,-0.482037565759588,undefined,1495874828158
903d185fccf839df,0.1329760892090041,-0.4788943654867851,2.1567115057876283,2.1691419510164938,-0.46479127032957335,-1.7978849242145702,1.8363927743620347,-1.0338775721516251,-0.6557046056046556,0.9687335217181264,-0.2833524402806757,-0.031285883938922586,-0.9044535427807487,-0.3012348130415279,-0.9644430244157436,0.23353353513571481,-0.7414352825221181,-0.43625991440373535,-0.9827461822786061,0.6170006803904362,-0.48463307970205194,-0.5087327467282319,-0.6959048568721732,-0.48137920795439276,undefined,1495874829648
903d185fccf839df,0.07753548826955456,-0.45071767480495084,2.210304668092883,2.1909871906023843,-0.4270530535989178,-1.8457880572161134,1.8866720297318746,-0.7523841556163412,-0.61510865216528,0.5986573424119713,-0.2697377383603457,-0.030888255511995363,-0.9436204879679144,-0.3734498471565585,-0.9707588197449921,0.3406258516228433,-0.7429513295017766,-0.48979228772397954,-0.9848592187596366,0.6600701336768551,-0.504001350157052,-0.5145676388290357,-0.6429826168217133,-0.480006362606689,undefined,1495874831143
903d185fccf839df,0.18010057585374942,-0.5364219522146504,1.7585925052575526,1.7253507929466538,-0.45305529614427903,-1.8506748000686224,1.9074659145257724,-0.6275217846825025,-0.6763748190028905,0.47541377750687325,-0.2551041669676538,0.026172845063557524,-0.9175091911764707,-0.3910407029129869,-0.9433903487774694,0.4335737948352541,-0.7405922376421133,-0.46121171211616646,-0.9692843179561332,0.648105543274804,-0.4928195716089815,-0.51405952877878,-0.5723108414085816,-0.4865668797096049,undefined,1495874832657
903d185fccf839df,-0.06106587605743041,-0.4542397940216715,1.9251129458607916,1.764417647627009,-0.6055921826366144,-1.8175902869484422,1.9047309199711022,-0.6549461978123295,-0.6452926784001218,0.052829087987342586,-0.1760550162475235,0.046664465684789706,-0.9131573083778967,-0.4040023561106668,-0.9686535595433985,0.6073460659868619,-0.7405922376421133,-0.4894693054758895,-0.947804109139738,0.6125043359625223,-0.5047426773817515,-0.5407076205102394,-0.5225357561958983,-0.5094125271275899,undefined,1495874834197
903d185fccf839df,-0.05967993177003413,-0.5123543372916736,1.4925416156451838,1.5931803469045325,-0.6555086683537787,-1.8109962101115529,1.9076184457454683,-0.6394991819743238,-0.605792295060164,0.13962712012136574,-0.17099335779156707,0.015305780299246112,-0.9827874331550802,-0.34845233983046986,-0.9570745916234645,0.5366247083782606,-0.7136223424522745,-0.4903052534101254,-0.9314455647778825,0.5807527387194307,-0.5070755542685987,-0.5514741831996578,-0.4851975704234042,-0.5087598769187254,undefined,1495874835656
903d185fccf839df,-0.06245199287187537,-0.40082134150864823,2.0546295218062873,1.9403636492625826,-0.7662136236283077,-1.803701033162097,1.8473169947103685,-1.0488739938832807,-0.6278315097934419,0.2900363081014324,-0.2097123714115715,-0.039744094940784666,-0.9653799019607844,-0.4243707644842033,-0.9370745828971561,0.32850212329074346,-0.7453054595302334,-0.5274289685216939,-0.9233712453809866,0.38371423111184366,-0.5685725109375965,-0.5229283267774845,-0.4627801305394809,-0.49609402662139296,undefined,1495874837158
903d185fccf839df,0.10386987895729279,-0.3556211866533014,1.9818962892921583,1.9285137208271204,-0.7305119674533264,-1.7854421274094368,1.8754191007109338,-0.8153437729064918,-0.6824331194068607,0.404868657480844,-0.19277242302817035,-0.015791883129902803,-0.8565828319964349,-0.3984474192365199,-0.8960218985325733,0.46590349209326704,-0.7413660895666673,-0.5401961812755595,-0.8996100760964533,0.4489574462313222,-0.5531252945167789,-0.5112746714844555,-0.4099361284815624,-0.5303415798119203,undefined,1495874838657
903d185fccf839df,0.30899998511486304,-0.37205760660070025,2.263259438381186,2.097679849340587,-0.5525179856780543,-1.7959143869546728,1.947523126974986,-0.2985661459192064,-0.7507505836471605,0.6997002496041833,-0.24896983603361553,0.0365849542812434,-0.7956564728163993,-0.3512298924475779,-0.9097061119296334,0.4800477240443772,-0.6801314650723942,-0.4488877989030623,-0.9137506309577397,0.48685301906109085,-0.5119696798945841,-0.5067942339101233,-0.3410113020688981,-0.5095008341947683,undefined,1495874840165
903d185fccf839df,0.13574818481625509,-0.34740297667960196,1.9334074676160726,1.843504967896405,-0.7061760157062493,-1.7808838064363155,1.919739217765826,-0.49850323775784056,-0.7145671172107465,0.5776587240258307,-0.2789655822871009,0.019435624091214448,-0.669451871657754,-0.348452365732019,-0.8991797888349639,0.3426464117712966,-0.7030592542546583,-0.4918694878685248,-0.920089741593658,0.3824207604154362,-0.5517932402933992,-0.5108244266763154,-0.3569535951706289,-0.503440340204281,undefined,1495874841656
903d185fccf839df,-0.1788771444274083,-0.5223335630317447,1.5786729481329143,1.5401629143611897,-0.753212508213153,-1.829290055641675,1.9013910564782497,-0.7469925603104229,-0.6176380607047243,0.40981917638835835,-0.14874724682556817,0.08416705696701747,-0.7390819964349377,-0.4012248811982061,-0.921285057762866,0.3103167145132837,-0.7539608742748233,-0.502046529050177,-0.9141354556415958,0.3996824192550397,-0.5546321711783304,-0.46743424983981663,-0.3788033631075704,-0.49368405349571415,undefined,1495874843149
903d185fccf839df,-0.43528988064060037,-0.5845572405165889,1.8855565296830394,1.8435206399731119,-0.783421593699386,-1.8318289263012535,1.889567448059197,-0.8208327548800763,-0.6321729862111548,0.07503754620882185,-0.2277511448830968,-0.0056404698138215895,-0.9610280191622104,-0.3984474062857453,-0.9086534450176675,0.47600649068858436,-0.7100397661883756,-0.4527065659115827,-0.9156887486655332,0.631013263834909,-0.4917616711448651,-0.4514776022910403,-0.28112259673872464,-0.4469404295295111,undefined,1495874844682
903d185fccf839df,-0.44221991262626936,-0.6426717837865908,1.8096331160427988,1.8466295003372588,-0.8983025474949718,-1.8192719985036465,1.8992977224459695,-0.7836921445548082,-0.5719503572487458,-0.11819235241024795,-0.23264960546349167,-0.061905242968579834,-0.8304715352049912,-0.43177744195541257,-0.9149692624336174,0.40124398451835497,-0.8128082899904115,-0.5005962861495108,-0.919795876270885,0.5397466748746084,-0.530839685852129,-0.48424593282733586,-0.3366863168616334,-0.45642876000541593,undefined,1495874846169
903d185fccf839df,-0.23847578526150512,-0.6009936604639877,1.972326000050772,1.9356907304754576,-0.8135175468688916,-1.7949174725929868,1.8436299934939882,-1.0937780954444025,-0.5246830643832884,-0.21934793112362688,-0.22345105414660607,0.029863457027514254,-0.7521376448306596,-0.4715882912731453,-0.8391796890337004,0.35881128866502465,-0.7464744897177361,-0.47995722295957693,-0.8747853913812703,0.5514186971421599,-0.5092084319246427,-0.4714550016489364,-0.31947117870825914,-0.4457431115491824,undefined,1495874847642
903d185fccf839df,-0.142840764168389,-0.31570410832506235,1.4332064831046567,1.407583985260849,-0.9230602177639139,-1.679536277954197,1.8864537628532834,-0.6407084453450397,-0.6005545528514008,0.02221096082876973,-0.21657691843641205,0.0006165510774349577,-0.7477857620320856,-0.4447391210546416,-0.8854955312645011,0.3426462987124105,-0.7862910417170583,-0.4736622776640159,-0.8945793692168148,0.341060535354369,-0.5436799170943338,-0.46976034047970144,-0.37689355236154326,-0.43725877421169973,undefined,1495874849150
903d185fccf839df,-0.0499777696717044,-0.3673614281597445,1.4344822505907622,1.2767794505439531,-0.8575506144742067,-1.6973642755229605,1.8653784964214284,-0.7960722635808128,-0.5900755294516041,-0.10626901136326977,-0.14747700380426707,-0.031247989958931948,-0.6302849264705882,-0.44196162024063174,-0.8518113017788989,0.44973855867009593,-0.7305520187374351,-0.4749605317269145,-0.8585947713123754,0.37695431276664754,-0.5202780061771394,-0.4616205913259771,-0.3583899234868426,-0.4223119677075889,undefined,1495874850657
903d185fccf839df,-0.1636309636416253,-0.5111802196114538,1.441500496586039,1.2156384997157368,-0.9051116809409607,-1.720388805799904,1.8451316138905343,-0.9897882902936287,-0.6160436188898024,0.10517010433962697,-0.14002405260867515,0.022424594210892414,-0.5432472704991087,-0.4502941226826613,-0.8318112636036552,0.42145009476787576,-0.7133250907107151,-0.46378288594807104,-0.8482324953460438,0.374444365203079,-0.5150598213812524,-0.44194667045075214,-0.3628147482956178,-0.4197798491295738,undefined,1495874852155
903d185fccf839df,-0.3424269206493255,-0.5775130313111398,1.4899893182621247,1.523736942789241,-0.7972867199889818,-1.8341814596010786,1.8257367976333188,-1.2812813626604356,-0.5700310634771306,0.1702767208854316,-0.1485522549292334,-0.13011487539428915,-0.852230949197861,-0.41603821023907556,-0.8802323660360494,0.2517189721778961,-0.7352168515314341,-0.46028076821074326,-0.8397103799490505,0.2745546496064806,-0.5294187288914031,-0.38290769893187643,-0.3952590154110283,-0.4019624329785156,undefined,1495874853647
903d185fccf839df,-0.19550926950058758,-0.5692948213374405,1.3815277344394084,1.3653094119574587,-0.7322399682127418,-1.8822313355744165,1.8927337408571225,-0.9132375984717012,-0.4810548544547164,0.18503195487895532,-0.13358464465128367,-0.07473081995164056,-0.8696384803921569,-0.3271582100923095,-0.9054955768019785,0.22747182642563332,-0.7046195459387139,-0.4171090918761922,-0.8637934027602422,0.23622792096386896,-0.5201639255774008,-0.3716068232826025,-0.38908688589175167,-0.3890118736354444,undefined,1495874855152
903d185fccf839df,-0.09294421642180245,-0.4935698281237968,1.4682969506701915,1.5184879200888797,-0.5163020374052621,-1.857569351987898,1.997797127451747,-0.10428605822636133,-0.5447264123090211,0.4865436177509046,-0.16314031968130974,0.01796500358791612,-0.8087121212121212,-0.29660566228587754,-0.9233903253266933,0.4659033790343809,-0.6819819256293834,-0.3752166692786077,-0.8711050710255779,0.4690062199945686,-0.4586183027232888,-0.36245119544200116,-0.2274089537538426,-0.37730424671796026,undefined,1495874856691
903d185fccf839df,-0.23431771086144812,-0.561076611363741,1.4842473480268523,1.5394070361214356,-0.3973273809516064,-1.8739159517089128,2.0391008494586194,0.18270234772558874,-0.5186407574765203,0.5574535127229969,-0.22687934162676424,0.04435453466866528,-0.6607481060606061,-0.17995065399901303,-0.950758796294216,0.756870937003713,-0.6250925646603352,-0.27585278322947776,-0.8584758265612552,0.6318139835500707,-0.381570562651369,-0.2850534060621459,-0.06972471645101617,-0.33823634619874265,undefined,1495874858163
903d185fccf839df,-0.2204575778792906,-0.5569674771488989,1.715207515936737,1.7354859600691066,-0.3062578194570275,-1.8611610378624592,2.0048949654288446,0.005040328327334593,-0.5597672652898595,0.693662711533342,-0.2855622483467775,0.06593322209452278,-0.6259330436720143,-0.1058838792869201,-0.9602324672013874,0.6497787618401921,-0.6271079871276057,-0.20402453514355817,-0.8690620002982457,0.652062939863892,-0.3419256128482055,-0.2951047343456349,-0.14969709948145285,-0.3472653898469274,undefined,1495874859657
903d185fccf839df,-0.1289806311862315,-0.58925336050156,2.075683751518218,2.0726279594146035,-0.49505179218505224,-1.8782995783431085,1.8879921999745601,-0.8336834675337029,-0.465484689153522,0.42454722088881486,-0.3786706809489639,0.02125155982327081,-0.9479723707664884,-0.07440557126354061,-0.9602324966503225,0.6861496924539979,-0.5773601717128799,-0.1524490409656215,-0.8867919182522935,0.640806679648621,-0.32191069742885947,-0.3534553684401774,-0.18762519708600206,-0.3818141697655578,undefined,1495874861146
903d185fccf839df,-0.011169431827073065,-0.5546194171564134,2.2122185734589905,2.1245357863255157,-0.5211260411813942,-1.8705152601911441,1.8920789271273273,-0.7875772399777887,-0.4950687862075109,0.318314435553801,-0.44733748007481716,-0.02210754851704399,-1.0001949643493762,-0.055888890536291924,-0.9886535609074731,0.9023547725178221,-0.5893031981977627,-0.07234996973814464,-0.8774721656874287,0.8101279860586963,-0.2562107616222138,-0.3020481093720195,-0.13840236330024755,-0.35116877997328766,undefined,1495874862657
903d185fccf839df,-0.00008125643052757771,-0.5029620388657466,2.0820638596334926,2.0241012602953465,-0.4623021410647173,-1.8589738788695453,1.9473653298632319,-0.3865835062514846,-0.4828137888523528,0.20030051298703175,-0.4058446095946323,-0.0355568337476715,-0.9610280191622104,0.00984531697989873,-0.9518114484817143,0.9306432929494854,-0.5183171281113451,0.024069098885164612,-0.8456576660439397,0.9899972294168895,-0.1676152797440437,-0.2917298092998466,-0.14320064167712393,-0.3429694153503544,undefined,1495874864155
903d185fccf839df,0.004076783464119679,-0.5340739068361611,2.3136621654233798,2.4969782827721483,-0.22229568642910744,-1.891897675872219,2.0866635199455565,0.5855516652763552,-0.43904265438667284,0.33632826777080566,-0.4582541383300472,-0.0945348074630881,-0.6215811608734403,-0.1743955876171206,-0.9265482229913176,0.7548503485905381,-0.60276286413605,0.01303077828801039,-0.8391996083568861,0.9493145382036645,-0.18724597035336207,-0.3188700577119818,-0.26523975653416904,-0.33638668353745255,undefined,1495874865651
903d185fccf839df,-0.156700966161366,-0.47067618474107803,2.484011179169682,2.558594143973636,-0.2741047338956555,-1.8761403728465493,2.051547721822317,0.36110689828777054,-0.42699377878817296,0.1499056405754092,-0.4243062305822417,-0.03399245797877934,-0.6346368092691622,-0.20957727322842837,-0.8707587024911119,0.7952625408248583,-0.5729807055603428,-0.02998257587752912,-0.8258916749747711,0.8872434026845732,-0.21433266781457533,-0.35528500422651127,-0.3066374473892631,-0.36806488161060524,undefined,1495874867141
903d185fccf839df,-0.1774911656346023,-0.4583489136225174,2.482097019666625,2.525109543230428,-0.34468518156821876,-1.8785860755791812,1.9316049051353406,-0.4346244134712491,-0.3788695779045283,-0.002556200710493998,-0.4437447251900066,-0.09072653285534941,-0.9479723707664884,-0.2216130755537389,-0.8802323954849846,0.7851594574353763,-0.5111146606353952,-0.014726515045918525,-0.8006121982744174,1.0278774024549808,-0.18098378400683576,-0.3498917638375872,-0.2795573142892076,-0.3544820123788067,undefined,1495874868703
903d185fccf839df,-0.12759461788801574,-0.5053100988582322,2.673500517261808,2.780383007443414,-0.37799026839073085,-1.8606136651127683,1.887950123642903,-0.7307660603033056,-0.46492571344579725,0.3341122863765312,-0.4743168188716973,0.031315431419753806,-0.9088054255793226,-0.20865142235605902,-0.8728639479682379,0.8174891546933892,-0.48750628569500537,-0.0038275172829071455,-0.7813849620158938,1.035530428562866,-0.16645628617719413,-0.34489770905622125,-0.4057086689818802,-0.3251866453982533,undefined,1495874870161
903d185fccf839df,-0.08740016322893944,-0.5475752664069491,2.4910291710280092,2.461834584477866,-0.38989082199079295,-1.8664064829229996,1.9036316532193633,-0.6534595745972077,-0.37573487022360885,0.2469962509170514,-0.360423719557029,0.17637947132092086,-0.7956564728163993,-0.20124477078639882,-0.8507586495914007,0.7710151689548231,-0.5063145208244688,-0.01978020128231441,-0.7427275827297044,1.0571960398787863,-0.16287598822559757,-0.3676441519885768,-0.4997705395395924,-0.3740139637720017,undefined,1495874871660
903d185fccf839df,-0.07354009925760138,-0.6062767954470802,2.542070290087154,2.5576563258837695,-0.4223627718443591,-1.8785930619092148,1.9103876193649911,-0.6442599683871265,-0.35099371805968865,0.2486490573360238,-0.2700796865090341,0.10245378734259698,0.24444351604278078,-0.046630472468020295,-0.8676007753775524,0.7790975791369655,-0.361617313506344,0.0495655291448181,-0.7438260826735171,1.1301230809991374,-0.1222778571002556,-0.35968093649551747,-0.40315462787306067,-0.34557381060023323,undefined,1495874873157
903d185fccf839df,-0.054135775060941915,-0.5428791171939856,2.56184875231298,2.4936216475000865,-0.3940256750930108,-1.8811575549653514,2.058816503833443,0.36231158933928004,-0.4101004376182404,0.00463562718053778,-0.21443999912561584,0.23859245993780914,-0.1820409982174688,-0.049407999183579236,-0.8560218516310213,0.6679643119412596,-0.43474578419214205,0.06290904299566605,-0.730252270337396,1.1326946202443708,-0.1165996008704545,-0.3600834558004941,-0.4424115487641037,-0.3545572875673515,undefined,1495874874651
903d185fccf839df,-0.2828282453098189,-0.564011686354348,2.383205470948346,2.366366835609546,-0.5359991489643801,-1.8231035978283938,1.8980143914497327,-0.6521346771959041,-0.4399613782073579,-0.3106561245485261,-0.1670411314463043,0.04994034065040715,-0.7434338792335116,0.013548668666277923,-0.8676008048264876,0.708376419381415,-0.46305876884986336,0.09349716270151907,-0.7809721506329494,1.2249159113549493,-0.09901283119589005,-0.3690798991661071,-0.4970702622009466,-0.3810527370750123,undefined,1495874876157
903d185fccf839df,-0.1109624583094267,-0.4395643313846598,2.733473787682337,2.784049853732565,-0.4792221038086841,-1.8112477701052991,1.8995370507977491,-0.5763364932488263,-0.525363491649073,0.2701110948143891,-0.30466609594600785,-0.015548249983403574,-0.8870460115864528,0.019103722097395807,-0.8307586703140273,0.8053655676848971,-0.3893956235752599,0.16662366185500088,-0.7504450642213543,1.154606611008833,-0.06365211656389189,-0.30532693705648783,-0.4569733620341716,-0.33458231967354224,undefined,1495874877651
903d185fccf839df,-0.2149135246864276,-0.4929828131256754,2.3321646060261503,2.324404221979747,-0.6408412637327546,-1.8269515005650814,1.783673066091779,-1.4308416197081535,-0.44179585385330117,0.29917648540082514,-0.3528561364179358,-0.05571280248937011,-0.843527183600713,-0.005893888834889202,-0.8391797258448694,1.0801683618193874,-0.38670176020352054,0.15916978636050388,-0.7409294016492876,1.215060907305924,-0.05284984715309134,-0.32517198748704634,-0.3649784361106582,-0.3879685667764539,undefined,1495874879203
903d185fccf839df,0.1260460917287448,-0.5023750530956176,2.8674558039661515,2.7499142479225855,-0.4988677913237665,-1.8950468092590858,1.8654495068763166,-0.9384803258578004,-0.47541558673927137,0.4972926593991554,-0.34943860527121506,-0.12008864469143804,-0.5780623328877006,0.009845291078349635,-0.8286533953879661,1.2721259569542902,-0.2855755265735616,0.15305849527442417,-0.726739869277025,1.2110419118059106,-0.051334140272084015,-0.27290189670706505,-0.2194610837326849,-0.26762917473071124,undefined,1495874880659
903d185fccf839df,0.05397333121070623,-0.5786870613073827,2.508255590007725,2.528738306850533,-0.5262277477106826,-1.909248179590234,1.9478991867752435,-0.4606385028104898,-0.5067754623106282,0.46916835229219367,-0.20964665114804323,-0.07962359356574211,-0.36917195855614976,0.03391707703981439,-0.8212849625956871,1.2094871791161608,-0.3152820431344459,0.04202932577008162,-0.7383545756320452,1.0682983182647448,-0.11964623457946601,-0.26329557357617484,-0.2916768465543098,-0.2553450673009341,undefined,1495874882165
903d185fccf839df,-0.1289806311862315,-0.67613163867951,1.7260535726642288,1.833007245880737,-0.7023600221809972,-1.9517894051290963,1.9469392959407517,-0.600967768680284,-0.34113394222899557,0.2087256940839698,0.0032919474203774667,-0.09920954440414266,-0.4823209113190731,0.038546124189268366,-0.820232339857124,1.4398364628663736,-0.17133048202542125,-0.06520641169510615,-0.7554197972318025,0.9246000247138082,-0.1996864690542405,-0.2278942409081143,-0.10317427775429287,-0.19597704645951375,undefined,1495874883637
903d185fccf839df,-0.1289806311862315,-0.669674502928167,0.8334755578580101,0.9878482048999192,-0.7239805562015574,-1.9401082694054992,2.0029278708667544,-0.2688877946301305,-0.1962685314936825,0.6528004161420887,0.1996952157172917,-0.14187957752117702,-0.7738970588235294,-0.16328559731185574,-0.827600743200468,2.2804094112516355,0.18867325170798438,-0.23292175944675073,-0.7668176025414016,1.9401428940280276,-0.029687704296629727,-0.18904619688161522,-0.6380781040419605,-0.46000283612634074,undefined,1495874885152
903d185fccf839df,-0.37707732211553874,-0.6256483196130783,0.762656230709989,0.8316534662208036,-0.919892225158608,-1.8646106401234388,1.9961771606617278,-0.2656955477402285,-0.15764062294078618,0.5024362411100376,0.22761776435159303,0.057311236079446354,-0.6389886920677362,-0.3725240092349637,-0.8802323733982832,2.0379363709046014,0.21351704347879663,-0.32215926748715434,-0.8036907959348952,1.7635843167773437,-0.11364948373508595,-0.21489590711361575,-0.4701004523158233,-0.44617892497111167,undefined,1495874886667
903d185fccf839df,0.02348096963914021,-0.5604895671376273,1.049123466291236,1.0285322745348724,-0.6523715372527378,-1.8330471195597091,1.9509445002336678,-0.38568429612194166,-0.2713810832647112,1.1640836189281707,0.20867616848059473,0.07468057739608192,-0.0036138034759358177,-0.29382817442264225,-0.8686533981161154,2.120781372051138,0.24377036464730056,-0.29359135835911926,-0.8154594314869107,1.8651986579946802,-0.0871923457241553,-0.20383551584197784,-0.24423116053086658,-0.4465326029588661,undefined,1495874888148
903d185fccf839df,0.10525582324468907,-0.48300349970162715,1.331762382866369,1.3664675245509288,-0.4142885083814304,-1.801259992234021,1.981926245740773,-0.04119299117010206,-0.48292020866812546,0.960965435920458,-0.009312186943929499,0.13656332942584115,0.16175774286987524,-0.37993075146004573,-0.8770744757336589,1.9651945379417113,0.13497824768725838,-0.3873252581434477,-0.8336861237533671,1.8433174695598833,-0.13396864066665717,-0.2981101352857011,-0.2555428286599424,-0.5908368902725073,undefined,1495874889662
903d185fccf839df,0.09416771685896305,-0.5563804913787699,1.5474102912995948,1.4712328045052516,-0.47401755106381205,-1.8864053308973634,1.9301637670758927,-0.5068877808439008,-0.43755757656017863,0.5791882227465959,-0.15319950416116265,0.07447789047895867,-0.8348234180035651,-0.33826817449602525,-0.8960218543591706,2.389522203093053,0.16740986482738485,-0.3384602650664279,-0.8038587195488619,2.109279420129345,-0.05669097690625237,-0.2649792703230368,-0.3312955258594946,-0.6582240876238786,undefined,1495874891199
903d185fccf839df,-0.2731261522223087,-0.5880793012773249,1.7585922511206031,1.7050842136328987,-0.5112620515178872,-1.8960576982016712,1.7930851248317543,-1.4758872353215664,-0.3891444077321985,0.4194070613611256,-0.24300266815677263,-0.06177467397464184,-0.8261196524064172,-0.11514224555209353,-0.8223376000587176,1.5570316931546548,-0.13919627770671067,-0.18531702058911886,-0.7598207913282861,1.8114118954550713,-0.0678960169410279,-0.24867406564097758,-0.12732363115275203,-0.6030450728621122,undefined,1495874892653
903d185fccf839df,-0.05967996627544386,-0.6456068295492055,2.430418525138326,2.3412126909993285,-0.33219835573221856,-1.9257228892209899,1.7697403401058165,-1.6132415846819423,-0.3049129305788075,0.8989432330067059,-0.2170063781810771,-0.031582804720932285,-0.7913045900178254,-0.1049580154637762,-0.8581271118326149,1.209487150851439,-0.39571337238874543,-0.09305869699721289,-0.7514735958912396,1.4698897771597612,-0.11967759024712472,-0.27817654304961215,0.0067600168352445695,-0.47775339948332707,undefined,1495874894148
903d185fccf839df,-0.06938205936295413,-0.63386655881477,2.7628220308756504,2.7626748919673263,-0.29425441762085575,-1.9096441517821567,1.8045773848232796,-1.3815324258555985,-0.36021462237170787,0.9775316125045818,-0.10937463964549114,-0.10716648302094291,-0.8087121212121212,-0.09384802515851136,-0.910758749392664,1.181198686949219,-0.31834582147127294,-0.13035340163790082,-0.7574488723309855,1.4459913904194666,-0.13941416168367837,-0.2425437287743512,-0.11981168429179098,-0.4635650563068693,undefined,1495874895648
903d185fccf839df,-0.09710232532726917,-0.6661523837114464,2.4565768413424767,2.280146854682302,-0.08754276476889118,-1.9179176099352033,1.908641426198804,-0.6290225395788613,-0.39641347410176764,1.1157648176332429,-0.11533305020659546,-0.0018294537552301432,-0.7260263480392157,-0.11421639467972418,-0.8970745212711364,0.9730761018617018,-0.4648439931063653,-0.053851440027342795,-0.7471285757189999,1.3382638655926027,-0.1274197151098477,-0.3146333077410874,-0.16667777329791514,-0.46536181934946685,undefined,1495874897166
903d185fccf839df,0.05535927549810252,-0.6755446529093809,2.7232653605609487,2.770222222036891,-0.20122028457303898,-1.9346368891705557,1.9233657099333021,-0.566837989825196,-0.4256361815705171,0.9087750828421267,-0.12908932449611857,-0.061989436179656014,-0.7651932932263815,0.05150785509159555,-0.8812850476724827,0.9609524017943235,-0.4363566554098469,0.08427639482476978,-0.7659849808053136,1.2445489250314128,-0.07554231286282685,-0.297733106761927,-0.22240265109196364,-0.46070004644219753,undefined,1495874898651
903d185fccf839df,0.2771215412342618,-0.6919810728567798,2.644789903674598,2.491240507139599,-0.1488352280697314,-1.9377138133342644,2.011819238996146,0.03510898165097737,-0.4418659781642301,1.262577544069659,-0.14236958365763297,-0.0742245839609201,-0.865286597593583,0.08668959250600151,-0.8686534422895182,1.0539003732714558,-0.40263378186158166,0.07796245099715665,-0.7708897456397075,1.2274104506590482,-0.07654102257388631,-0.2752827800710121,-0.2667365116251674,-0.41493020853116513,undefined,1495874900149
903d185fccf839df,0.22722506249849475,-0.7025473428229647,2.6926408416076315,2.735015159824003,-0.4184233489683884,-1.9448016873994132,1.9425291113421301,-0.5074671113236179,-0.3614014457493557,0.7940395479845329,-0.10818479443711257,0.03303749841410012,-0.865286597593583,0.15612708695469862,-0.8791797727464216,1.0700652501651837,-0.3569547602382122,0.08711988462023239,-0.7763682489537547,1.1841100235045579,-0.07932992567424593,-0.34616768674917087,-0.2748381332306509,-0.44499988240678345,undefined,1495874901650
903d185fccf839df,0.29236775652545455,-0.7084174928041787,2.572694554903522,2.6978117395118906,-0.4132805083792196,-1.9359878462461522,1.9328040887058713,-0.5621488133804875,-0.34290801494479484,0.7394055917103249,-0.0675275705605526,-0.03143945349055671,-0.9175091911764707,0.10798374814571095,-0.8897060884788572,1.01752944265765,-0.39005549874692413,0.0340498164874179,-0.7794608390920953,1.0667122759740235,-0.12923409224533666,-0.3959309753979654,-0.20574862265933003,-0.43834587336113073,undefined,1495874903198
903d185fccf839df,0.15238037890025385,-0.670261488698296,2.2926079357114486,2.4133405908815004,-0.38308170182626355,-1.9327199239619077,1.909514525138822,-0.7178817949341469,-0.39867131349417423,1.0003946239643562,-0.025917500911949096,-0.0012421007485758412,-0.8391753008021391,0.0394720268647359,-0.8897061179277924,0.9286226480068674,-0.5090176156561399,0.06351700068874633,-0.7735765214812481,1.0752430134319602,-0.11734683136480281,-0.4401648483042047,-0.2814459843737175,-0.4602373926516863,undefined,1495874904653
903d185fccf839df,-0.10541837061115396,-0.6966772220697433,2.2926079357114486,2.378062820267526,-0.5705179599125246,-1.948707822235975,1.8671667523014899,-1.0996873229340502,-0.3196582754164051,1.0402550007603266,-0.009576665192865456,0.0677795581708133,-0.6955631684491979,0.034842850207536455,-0.8770744978203603,1.0155088259797538,-0.5035252489535452,0.09585301047986644,-0.7848763722949623,0.9823749907897427,-0.11321796341105751,-0.42868174201910764,-0.3166609519099307,-0.3994283820404103,undefined,1495874906156
903d185fccf839df,-0.2079835272061683,-0.7189837919983559,1.9908284406535426,2.090570064843009,-0.45739585265652327,-1.9450020026761519,1.9223979501150938,-0.7273167486415387,-0.39940485051139524,1.1119824051303309,0.04362642613022823,-0.03676265476958637,-0.6955631684491979,-0.11421639467972418,-0.8833902931496088,0.9488287582563882,-0.5680127975946354,-0.023554641992619,-0.7874442017276592,1.071916951719552,-0.16272547930318815,-0.47797148162648423,-0.3778118015146001,-0.38374998352836054,undefined,1495874907644
903d185fccf839df,0.015164855344435964,-0.7641840053096874,2.1465030786662394,2.153826812125332,-0.43924160025037295,-1.938869115656519,1.9952567341632996,-0.24011832364823008,-0.34865304845059103,1.3327422659617534,0.08328810682812512,-0.03643317947487565,-0.4300983177361854,-0.07255390837112556,-0.8802323954849846,0.9266020030642496,-0.544759358204423,-0.04903840697948776,-0.7896621908734389,0.9714574927125417,-0.1960592386354665,-0.45569519269968517,-0.2812884912944921,-0.364650970363089,undefined,1495874909154
903d185fccf839df,0.015164855344435964,-0.7459864819119397,2.269001154479509,2.381478165347973,-0.42498562329483147,-1.9344738409638425,1.9452904243581117,-0.5570570177742924,-0.4173275152615614,1.444232105711098,0.09795756159700915,-0.08871384798165409,-0.43445020053475936,-0.07255385656802738,-0.8381270662951374,0.8134480343964826,-0.5600631081828019,-0.043370418988709115,-0.7877100809752843,0.9124968396464752,-0.20061261367832678,-0.4305488481027176,-0.3082062220661029,-0.3050731773530926,undefined,1495874910665
903d185fccf839df,0.11634392963041508,-0.7418774353810748,2.4916673089080112,2.597837728354892,-0.4796952497654675,-1.9415850082393356,1.9089123184772783,-0.8149281198965881,-0.3462946676944763,1.7306571004949383,0.12832061900543612,-0.06416283595967859,-0.9131573083778967,-0.10866141895325358,-0.865495544624894,0.9690347554470229,-0.5184547903852929,-0.05730289385536824,-0.8100299070479443,1.0032860753170867,-0.20089580808198051,-0.40185598943287376,-0.25097050346274147,-0.31419829390092796,undefined,1495874912157
903d185fccf839df,0.13713412910365136,-0.7606618860929668,2.78387676886148,2.915125885543264,-0.35676059776943264,-1.939924261784652,1.8776912440946325,-0.9822956410764763,-0.3741786921560584,1.5091323635778393,0.049372385466193686,0.053755184308968695,-0.8957497771836007,-0.1521755552034927,-0.854969199443523,0.8902310441857223,-0.5306105318790524,-0.07770763811262849,-0.8270461508553407,1.0023005716314195,-0.21972558252885863,-0.35068470181611305,-0.24302346575994788,-0.2278680899666032,undefined,1495874913651
903d185fccf839df,0.3353341687701429,-0.6696745175421632,2.6109754577321183,2.6895873390760263,-0.290767573028561,-1.9582996298610793,1.9474179238374616,-0.506468829333641,-0.32403495774973695,1.3167467531323487,0.07088392305611467,-0.06387465375718135,-0.7913045900178254,-0.15773063453615968,-0.8465481586371485,0.8336540598518388,-0.5640035933768384,-0.09678246617976279,-0.8248351586121937,0.9800806170602466,-0.2330805258734852,-0.3641484695997613,-0.25472097566149576,-0.19356086142408246,undefined,1495874915182
903d185fccf839df,0.30345600093281955,-0.6356275891951381,2.3117480059203226,2.518401400399463,-0.2268522502031454,-1.9532335342881566,2.0233062273342433,0.012019983245522918,-0.30638242133696436,1.0835933245319078,0.10371882277069341,-0.01701785219625845,-0.7826008244206774,-0.14662055357547302,-0.801284939144911,0.8558807867792559,-0.5145632875122235,-0.057131907149948154,-0.7942730886722825,1.079985733606281,-0.1926327486174849,-0.34462710502155935,-0.22172999936910076,-0.14232588177794483,undefined,1495874916659
903d185fccf839df,0.22722499348767528,-0.6638043529469532,2.120344508325139,2.268835971413634,-0.21756426328675943,-1.9324800122001513,2.0159980008899665,-0.003277222580472998,-0.2749584583342025,1.2857880127319679,0.16268359604582439,-0.0618644524593597,-0.5606548016934046,-0.14662057947702212,-0.7676006875726074,0.773035813897441,-0.5323423577685109,-0.07899322864125537,-0.7781034589381445,1.082449488364425,-0.19300533187120356,-0.3425156370391863,-0.24701570866353328,-0.07190409477846729,undefined,1495874918154
903d185fccf839df,0.18010067936997864,-0.6814148028905948,1.974240159553829,2.0160589068960015,-0.29829669541067544,-1.9232934925242275,1.890203865735008,-0.8450073743952133,-0.21992478751893113,1.213989224604289,0.11557455507728247,-0.0523114899977892,-0.7738970588235294,-0.2725339928813837,-0.7823375237082304,0.7386855847556962,-0.6346829748832898,-0.17902840916185847,-0.7737444445691477,1.1201140889415993,-0.23396376652268266,-0.37881567956866674,-0.3530414804210882,-0.08955858861272947,undefined,1495874919678
903d185fccf839df,0.18564473256284164,-0.6426717545585986,1.8791761674308156,1.8440180605190828,-0.3204212288701946,-1.9172840554128252,1.850483278604359,-1.118348049747608,-0.2464017338147313,1.2633589111002006,0.12651359481976004,-0.05848710445640919,-0.852230949197861,-0.23550063142688635,-0.7570743497534702,0.7770771037826769,-0.6527278089484913,-0.1981095697795669,-0.7604714935041708,1.1355433337693053,-0.23108096855420346,-0.35952096938581535,-0.4247928676186087,-0.013645485039424223,undefined,1495874921168
903d185fccf839df,0.5390784686619559,-0.6021676904602304,1.8995927675366433,1.9512097280080511,-0.30471496459117664,-1.9417364077388342,1.9278127185893061,-0.6136459350500687,-0.24591379269489475,1.581408734526811,0.07443767354910256,0.009714215871932977,-0.8696384803921569,-0.20494809657122892,-0.7465480045720994,0.8417364982987028,-0.6977547467679344,-0.20090872972781101,-0.7570290624305043,1.1148170284064225,-0.22932294303443762,-0.4179631266272706,-0.5221542689167615,-0.041448771955742744,undefined,1495874922643
903d185fccf839df,0.661047776926581,-0.5886663162754462,1.5282702210907209,1.6749034759615626,-0.28489442754834715,-1.9257834484104723,2.0106805299063,-0.061379374485947366,-0.2568737122907041,1.839961893362646,0.12634521749459113,-0.043807364603528506,-0.7608414104278075,-0.23735232022085048,-0.767600665485906,1.080168248760501,-0.576731154798878,-0.22898266663570324,-0.7159997633028597,1.244810707017943,-0.21625665379411463,-0.3142799596853908,-0.31457481427219497,0.03955074712651632,undefined,1495874924148
903d185fccf839df,0.690154021683702,-0.6180170954095079,1.8861946675630417,2.0168091106033534,-0.17759403605904744,-1.9123903229304386,1.9899418751752265,-0.12837309270796363,-0.2931173317720033,2.1504400833729527,0.04745528156477214,-0.0755661433327003,-1.030658143939394,-0.14847224236943715,-0.7612848775188913,1.1993840957266788,-0.45037992883131384,-0.20849559476950008,-0.7151111676669962,1.2356640321864112,-0.20647546856356863,-0.30404537489720024,-0.2218414495069831,0.11440499932363732,undefined,1495874925675
903d185fccf839df,0.2535594186808232,-0.6338665295867777,2.2122180651850916,2.24809696005367,-0.21616540508063986,-1.8943037815694062,1.9153447973226814,-0.6029415506052825,-0.2592228106987835,1.7054089493299849,0.16573366359188446,-0.05733766681516162,-0.9784355503565063,-0.14013975287818217,-0.7644427604590479,1.35699151824928,-0.37731422313460367,-0.2044425102346194,-0.6905313708370151,1.3178147338901545,-0.18831762739984792,-0.30953358987550694,-0.1866917099909565,0.05646079798821223,undefined,1495874927196
903d185fccf839df,0.34087825646841563,-0.6285833946036853,2.3321643518892006,2.6124141054407914,-0.2024545689698512,-1.8812996393835077,1.9474862866810154,-0.35072519168049365,-0.2859523225686922,1.6907619029246783,0.3216487747622032,-0.05332953733821828,-0.6999150512477719,-0.14754640444784237,-0.797074374568321,1.1993840957266788,-0.3673139175986599,-0.2104208086729741,-0.6867950753336666,1.2807660710365958,-0.2011314292667856,-0.3155014589596589,-0.15103441577683333,0.01217490332250415,undefined,1495874928660
903d185fccf839df,-0.17333305672913554,-0.640323694566113,1.5372023724521051,1.5274029363363149,-0.5502448459863843,-1.9029173084299014,1.9693794225138255,-0.3654937061669385,-0.17601693385138753,0.5827486305387802,0.3676088651638158,-0.06390190791882006,-0.7303782308377896,-0.2040223104527323,-0.7876006815744483,1.1226011142021606,-0.33946597001531126,-0.27202135205550576,-0.7420558890629383,1.0645256972995303,-0.28577028637146834,-0.2964317749139552,-0.0964006350720841,0.018043011840757267,undefined,1495874930142
903d185fccf839df,-0.3022324659902492,-0.6555860845172691,0.7505341523594422,0.6725177992754119,-0.8342432288460425,-1.9149385118044895,1.9790571207342393,-0.44596992877799646,-0.23453308713570664,0.10670694175328524,0.2972760895013193,-0.08655430461774138,-0.9523242535650625,-0.30586404150182556,-0.8654955299004264,0.8760867557051691,-0.3530768764116296,-0.42037055780360905,-0.7955325147096062,0.862759867316878,-0.40780555932613005,-0.2783941899332225,-0.07593157595838228,-0.07671134611146621,undefined,1495874931655
903d185fccf839df,-0.36737509100638954,-0.7994049636529553,0.20950073004721936,0.23322872333503117,-1.0129469279800796,-1.9439189071959486,1.9538951381485956,-0.7213163988151567,-0.2636344808176058,-0.07152801669002103,0.09554674723033942,-0.11603280196297572,-0.2168560606060606,-0.4678849784390897,-0.9433903561397031,0.6598819017591172,-0.5378489270842609,-0.5227109277133132,-0.8541447993562433,0.49858662990051367,-0.5303926985261086,-0.3151432639503745,-0.24312601184866398,-0.18807820960441693,undefined,1495874933130
903d185fccf839df,-0.43390383283697487,-0.7823814994794428,0.43918462219709964,0.43457786836039053,-1.086931946727771,-1.9601769964237736,1.9203703774059926,-0.9731720965967949,-0.34161211527887214,0.12490786915946385,0.056422107775164085,-0.11743695964655383,-0.5258397393048129,-0.6187958603172163,-0.9918114953832663,0.32446091819967227,-0.7334116348839206,-0.6633402740999292,-0.9369940382070925,0.17173923022321327,-0.6782315849006754,-0.44125718808700404,-0.5030185975525949,-0.40897496921438414,undefined,1495874934654
903d185fccf839df,-0.4588521757210876,-0.7436384219194542,0.5674246682456414,0.5660627885027842,-1.0734268252299266,-1.9447783959517944,1.9036027337614374,-1.0021454923219169,-0.40466842025500493,-0.12979866668125148,-0.06198652624901853,-0.05525822234425883,-0.8739903631907309,-0.6576808717133542,-0.9897062204572051,-0.08370188419030188,-0.8033384248183717,-0.6755945205530792,-0.9642396189901238,-0.05936063418822368,-0.7338206046430451,-0.4454696890126773,-0.6387452021157952,-0.4552860975894243,undefined,1495874936155
903d185fccf839df,-0.4047974845636246,-0.6702614740842999,1.077834334015395,1.1055235190641695,-0.9942269565373291,-1.9309636774163215,1.9307344417601562,-0.7666617752803477,-0.44681761588922264,-0.18684922434308485,-0.10776664233623522,0.03394168401827996,-1.0524175579322639,-0.6289800386024355,-0.9570745989856984,-0.07359881493318071,-0.7129267443549799,-0.614500612947109,-0.9423885790932746,-0.06171659667806317,-0.6971170807427745,-0.44117692176691364,-0.6494653467012271,-0.4412436690043388,undefined,1495874937645
903d185fccf839df,-0.48657240717999295,-0.6884589974820476,1.0357253663176345,1.069379049486656,-1.0366657419939138,-1.9269154601531067,1.944761813435244,-0.669752772798001,-0.4181015844319768,-0.5635616974376291,-0.08022132254799809,0.011821110678289478,-0.9871393159536542,-0.6271283498084713,-0.9328640404072674,-0.0008569678379299877,-0.7424013839139016,-0.5946215032420755,-0.9087409157708459,-0.0782237319331203,-0.6868448034932784,-0.42998994413880876,-0.6233689190631353,-0.4130770329747928,undefined,1495874939198
903d185fccf839df,-0.357673032424289,-0.6262353346111997,1.2481830936247482,1.2225982906839326,-1.0160017757453965,-1.9045244833371007,1.8657703224722062,-1.1832357421262618,-0.43066216374665395,-0.36560839938125617,0.007454664853560002,0.035248693633697085,-0.9740836675579323,-0.5419516236434372,-0.8907587112174203,-0.017021802334575706,-0.7112829955174099,-0.5649769924818906,-0.8943064945835884,-0.018831925746672886,-0.6640721587189173,-0.4234681802981581,-0.5834882449376593,-0.39328826862831906,undefined,1495874940657
903d185fccf839df,-0.40756961467628533,-0.724853956593566,1.3623869018196861,1.3466529669706082,-0.8697083099700924,-1.9554416526865972,1.957618925187813,-0.6397730746518215,-0.26843966868203034,-0.0031406181398391363,0.1759252285630901,0.012339198037852486,-0.9653799019607844,-0.5280641843272607,-0.8812850182235475,-0.017021802334575706,-0.7126378813662694,-0.4918568265987494,-0.8834894249988308,0.1422204154856712,-0.5957959159513652,-0.44034244198447264,-0.6201541250420348,-0.39178013878719425,undefined,1495874942160
903d185fccf839df,-0.4546940668156209,-0.7225058966010804,1.5608083912731965,1.5811770865901749,-0.9094419574596522,-1.9533430083565275,1.9207411592676915,-0.8948759610792023,-0.25687312054687184,0.22820046844873823,0.15359469947403884,0.10284109905401859,-0.9653799019607844,-0.5345450238768752,-0.8644428924373958,-0.045310266236795904,-0.6961190515854028,-0.4850679103287953,-0.8641572359776849,0.18678351480327474,-0.5793608663943873,-0.46207489960337983,-0.6331853557178152,-0.325738853610861,undefined,1495874943654
903d185fccf839df,-0.2745121310151147,-0.7624229749293194,1.5665508697823676,1.5673993183593906,-0.8707163080117925,-1.9686274764909981,1.9952251639514746,-0.40054800040387034,-0.19575465318478938,0.3828042216438373,0.1951133105778604,0.07443044912040338,-0.3822276069518717,-0.547506677074555,-0.8318112783281227,0.05774070383565371,-0.6891536818984735,-0.4981771048538666,-0.8478196820668106,0.292232063780672,-0.5694507220848325,-0.43318203640278174,-0.5430782840140975,-0.28327762532721096,undefined,1495874945145
903d185fccf839df,-0.13175262327725326,-0.724853956593566,1.5544287914318209,1.5412929556323292,-0.8933036978840547,-1.9623175678145064,1.891082208569126,-1.0861739711832459,-0.3138322327184228,0.32729013463065293,0.16837345370954163,0.01357681260161308,-0.5127840909090909,-0.5650974810278853,-0.8381270736573713,0.20928627632456584,-0.6815557676888319,-0.5175939102573369,-0.8381081083803537,0.3776010454021961,-0.5664726023872485,-0.4212268992113872,-0.5057160732776351,-0.2306447379817321,undefined,1495874946665
903d185fccf839df,0.029025057337412955,-0.7213318519908415,1.484247093889903,1.4644942146113804,-0.8022341344689758,-1.9713876247136366,1.9332222285041127,-0.8009653021930687,-0.3285381769355905,0.3843533655026976,0.15440568359343357,0.053427051835672736,-0.7042669340463459,-0.5780591601271143,-0.8402323412211987,0.2193893031846047,-0.6695002381042516,-0.5058906308342799,-0.8369046562978592,0.38172782580663034,-0.5614659068760837,-0.4136331687078438,-0.4604152071334878,-0.22452284837804717,undefined,1495874948151
903d185fccf839df,-0.2980744260956019,-0.6960901632296334,1.4127901371357785,1.3992490902441597,-0.7834524515006862,-1.9547615147307864,1.9209042165101338,-0.883263668207528,-0.34062409057225024,0.48667611633986096,0.09782621375035035,-0.06448319416195848,-0.7869527072192514,-0.5576908294582251,-0.8476007519267764,0.37295557714557787,-0.6589132292784093,-0.46644905796029273,-0.8329864426473483,0.42810794319467455,-0.5322514764949694,-0.43529582059710215,-0.4297091235824518,-0.21151875975218257,undefined,1495874949667
903d185fccf839df,-0.5531010799997588,-0.7371812569401189,1.1014403528364864,1.0586305089909236,-0.9586898727432831,-1.9689139718515418,1.9109977358636008,-1.012297940451584,-0.2522702203198764,0.19151085046726532,0.1240302938125545,0.04182956639580077,-0.8391753008021391,-0.4604783009678804,-0.9170745005485097,0.2092862480598443,-0.6612883236642086,-0.47553683073103703,-0.8392625814715433,0.44333700537756954,-0.5370343319206731,-0.4136029743371736,-0.42740185012827875,-0.2569889695582832,undefined,1495874951185
903d185fccf839df,-0.5683473297963613,-0.7154616873956314,0.9904267257676604,0.927464801967454,-1.0087297880492279,-1.9777394594795032,1.8829508573070548,-1.2135228264497728,-0.28592176634648575,-0.1192286619159705,0.09629158562331107,-0.027715816819046432,-0.7477857620320856,-0.41696412586531767,-0.9760219628867424,0.11027651134318747,-0.7311891754569421,-0.47999522176219445,-0.8651507823636575,0.41136983351959117,-0.5480974322445765,-0.43588799568279996,-0.49291000029223975,-0.32451349712384203,undefined,1495874952654
903d185fccf839df,-0.4893443992710147,-0.6726095925327702,0.8392177822302318,0.9270865455480775,-0.9967160921078276,-1.9683712583069408,1.8935358220095997,-1.1195473153402853,-0.27354081443930683,-0.019793268892614062,0.09439584179775798,-0.07317241897987925,-0.7477857620320856,-0.44381325723149767,-0.9981272612635796,0.10219401636688039,-0.7856422324728921,-0.48941864085235715,-0.884091149351769,0.4062729499615936,-0.5566686297294476,-0.44885747987382874,-0.5059745167743641,-0.358303053236164,undefined,1495874954149
903d185fccf839df,-0.3174785777652127,-0.6497159491500514,1.1403593935450849,1.1535464645301075,-0.8157186822041262,-1.9530308887655754,1.849849488113207,-1.3300615109114895,-0.3089406758822043,0.09900883300035457,0.06634330173742818,-0.09341448234943835,-0.5998217468805704,-0.3604881680573295,-0.9528640638580435,0.09815286780525223,-0.7536908730831228,-0.4461329703190832,-0.8645000785667517,0.49188830903923797,-0.5115524397289347,-0.45100551167995234,-0.49481013370851545,-0.3161171440886304,undefined,1495874955653
903d185fccf839df,-0.01948544260554811,-0.6244742603888432,1.3119841747774927,1.2854554872423523,-0.6930926038119468,-1.9405368497296431,1.8783644695912385,-1.0884228447602953,-0.3588664936539827,0.5135667101086002,-0.01628487515763916,0.011163152053351067,-0.8261196524064172,-0.3660431955868983,-0.948653514005921,0.08804981268049182,-0.7830838346878466,-0.42477195179907673,-0.8716088388395329,0.5364514114666352,-0.4938378170106362,-0.45839826235353853,-0.5026301148580418,-0.3271974853350282,undefined,1495874957149
903d185fccf839df,0.14683622219116163,-0.6362145895792632,1.3687670099349607,1.3185383945605065,-0.5428802883152075,-1.9265940248859885,1.8647131383372557,-1.1209665719527093,-0.41775720887289747,0.44840494628482697,-0.06644834212219558,-0.03680647455331707,-0.8261196524064172,-0.3845599410680197,-0.9170745373596786,0.21534809809353347,-0.7885688343981134,-0.39904120147173316,-0.8686211995919937,0.6681235174412333,-0.45824202280638526,-0.4389438309543265,-0.5182006882773769,-0.2988482101420283,undefined,1495874958646
903d185fccf839df,0.20782094533429368,-0.6056898096769512,1.6246099806998398,1.7008252441787926,-0.46794898713641897,-1.9121830218482705,1.9589601286205989,-0.4569128805683095,-0.4353903402489029,0.7609305321746765,-0.08449117456248337,-0.002427645896403875,-0.8870460115864528,-0.3123448940022146,-0.8644428777129282,0.27596631578320974,-0.6265498085789443,-0.2944779693832311,-0.8321888055406474,0.7540622422846972,-0.3892401584981662,-0.39174411459659425,-0.41472790288376393,-0.22398341956768617,undefined,1495874960144
903d185fccf839df,0.26326154627374326,-0.6526510095266621,1.6080214454631767,1.5628943812479323,-0.5046586381122564,-1.9216094529180934,1.930836986287368,-0.6578078834177312,-0.3445987185347471,0.6814267603034845,-0.03519946308983288,-0.032024918679943115,-0.8261196524064172,-0.292902349451822,-0.8697060503036137,0.5447072033545677,-0.5834863164835888,-0.2109464418853277,-0.8259056697832344,0.8893221861155917,-0.31643365950478847,-0.4113924872618831,-0.4618950456225277,-0.2805228402110328,undefined,1495874961671
903d185fccf839df,0.20782094533429368,-0.666152354483454,1.582501013002079,1.5628943812479323,-0.4755295451235801,-1.926971362022542,1.9553572989229258,-0.49535258707769325,-0.32580496142691456,0.8129199895256303,-0.04987682044054365,-0.03748458900211306,-0.865286597593583,-0.26975649206737384,-0.8823376335998768,0.6679642554118166,-0.5900136348759086,-0.15868065745558851,-0.8491280855294714,1.0149427036356033,-0.2771577272499672,-0.3972927375447234,-0.3912044883669324,-0.3184801425287583,undefined,1495874963188
903d185fccf839df,-0.06245195836646564,-0.6538250687508973,1.5199762076093388,1.509205712150378,-0.6441944030358342,-1.9053280705080118,1.9860103294722937,-0.33853136207729195,-0.28420993730796357,1.100509163645831,0.05202044618541679,0.031196902019801177,-0.7608414104278075,-0.2817923202942335,-0.8991797741104962,0.6315933247980108,-0.5704327685856163,-0.17269546334731353,-0.866990944364388,0.9521324468814816,-0.29638945826289087,-0.408177423673764,-0.4168328196517859,-0.3480703783927677,undefined,1495874964660
903d185fccf839df,-0.13313860207005926,-0.6174301096393789,1.2130926260592134,1.1572370943035626,-0.6138927373319254,-1.9263657588161027,1.9021747300540026,-0.9201570765850525,-0.29803380562065024,0.7649343867581364,0.07129624262403371,-0.032977343741559216,-0.6868594028520499,-0.2706823170381941,-0.8686534128405831,0.5669339302819849,-0.5483301299245188,-0.16887036455227875,-0.8460984669092351,0.8497789784518492,-0.3044213605969174,-0.4197977396339575,-0.4039580163031775,-0.389268092416785,undefined,1495874966155
903d185fccf839df,0.04565725142141172,-0.6191911254057507,1.1824678529689467,1.2430229414671816,-0.49070094821731136,-1.9452582182430755,1.947528371392847,-0.6110959621711157,-0.3319052553016419,1.1875847187668804,0.10523581413875827,-0.02405579221945789,-0.7042669340463459,-0.276237370469312,-0.8391797111204019,0.7164588295635576,-0.583634244746763,-0.1466417325436129,-0.8282915843046945,0.9278644970196815,-0.2743185854271382,-0.4431983946727706,-0.4376995745284926,-0.39948507569599695,undefined,1495874967642
903d185fccf839df,-0.009783349518037844,-0.6820018178887162,1.3751473721871845,1.468141069418744,-0.5434357160713152,-1.972226150649496,1.900254969859215,-0.9576333930424492,-0.35019500508622964,1.2094805988536612,0.0912998789066989,-0.024790533218530367,-0.6955631684491979,-0.28086646942186416,-0.8507586643158682,0.7710152254842662,-0.5443365464323427,-0.1901933866615074,-0.8447690745615607,0.8510724506560353,-0.31088917872354743,-0.470788600682288,-0.44178992702022024,-0.3839608115827966,undefined,1495874969148
903d185fccf839df,0.008234754347947466,-0.7213318666048376,1.5659127319023654,1.6860274793464864,-0.7269428346680424,-1.9619076203082344,1.9350709845291434,-0.7534502792434035,-0.3584452700791303,0.8194574761514754,0.10971729099550072,-0.04274223005606447,-0.7434338792335116,-0.25494313712495525,-0.8381270736573713,0.6073460942515834,-0.5059289806446319,-0.26933618448442137,-0.8494919219339031,0.6612096213996539,-0.38953227092304143,-0.4431501942903599,-0.38129998794925546,-0.3339795580523673,undefined,1495874970648
903d185fccf839df,-0.029187535693058375,-0.7407033761568396,1.4619168425549172,1.4986476885598807,-0.8412580711014641,-1.9526023096596192,1.9241678031322793,-0.8442195390498777,-0.345386560453516,0.40284747213490807,0.07031947661056191,0.04312736093627072,-0.7956564728163993,-0.3373423624759796,-0.7991796642188498,0.5992635710105548,-0.5294875195434433,-0.31578199594467043,-0.822540207281097,0.5594104987158014,-0.42407206966880745,-0.42382730772820515,-0.35960297638915195,-0.2844061236992808,undefined,1495874972148
903d185fccf839df,0.1329760892090041,-0.7207448662207124,1.690963105098694,1.7512515827639938,-0.6453155398579452,-1.9499399893400684,1.9715937280291944,-0.4721317049920177,-0.31855136191178707,0.6628250201775013,0.05823739031127886,0.023363924704360193,-0.7434338792335116,-0.3614140189296989,-0.7570743718401716,0.6962528041082013,-0.48947745104134904,-0.2916661471298549,-0.7955605043448838,0.6398211798670234,-0.3937176234184618,-0.4144134656621612,-0.3663827417308721,-0.20208807051909405,undefined,1495874973635
903d185fccf839df,0.17039858628246837,-0.7054824178135717,1.916819186516359,1.9430389989631471,-0.5939693443629835,-1.9369847608035455,1.9205728597024314,-0.7572414224980188,-0.3492156205948955,0.5445056781385619,-0.07671184486050105,-0.03598118953154806,-0.7390819964349377,-0.35215571741839813,-0.7118111302612327,0.8296128830254891,-0.5012376429996165,-0.2848772313415908,-0.7916632797384301,0.699998304321091,-0.37893951783641694,-0.40257976078527524,-0.36816069262269296,-0.1651063258267884,undefined,1495874975198
903d185fccf839df,0.07892153607318005,-0.6614562637264753,2.092272032617932,2.1945907892274525,-0.5578665474178702,-1.9284038434687805,1.8994686717176072,-0.8718877091467575,-0.3738592040332059,0.4426552555343918,-0.013865079278510955,0.08999662449339349,-0.7869527072192514,-0.2808664823726387,-0.7412848540681153,0.6942322156950266,-0.5380736004073401,-0.32463545209706746,-0.8087005135747306,0.6731588139082136,-0.4031303620109797,-0.37879404466571004,-0.4269267165323594,-0.19491821887796731,undefined,1495874976642
903d185fccf839df,0.06367538979280676,-0.6555861137452614,2.1484169840323473,2.2559332457753394,-0.586429930020199,-1.9355173397329675,1.9132909333878352,-0.795411425004466,-0.38557477677344343,0.18992831343175895,-0.031836767903356426,0.01635630851576921,-0.8304715352049912,-0.301234838943077,-0.7191795483290442,0.7144382411503827,-0.5526949080736636,-0.30858777247528296,-0.7918941738244837,0.6925146602784519,-0.38781428575584426,-0.3579801434864794,-0.44002887797726264,-0.1765430732296509,undefined,1495874978927
903d185fccf839df,-0.09987438642911042,-0.6608692487283538,1.9748777891599325,2.0724363748267214,-0.6140778819951691,-1.9295707918045544,1.9466842060523,-0.5719951038271994,-0.42916548667207227,0.1945879810442259,-0.033971066513221376,0.02117833148292919,-0.7564895276292335,-0.3030865147862666,-0.6960216419381114,0.6214901848790858,-0.5534405383500158,-0.30084891449315687,-0.7727019212288516,0.814685925601164,-0.3603108123176882,-0.33122356039453493,-0.4200230074840594,-0.17496520494088766,undefined,1495874979649
903d185fccf839df,-0.00008129093593731222,-0.6062767954470802,1.877262262064708,1.8345301002619434,-0.5552231243372595,-1.9312874418071357,1.9660053914788593,-0.44988120838677254,-0.45116211284182595,0.6144490710270132,-0.017043247827411512,-0.09421453272403718,-0.5388953877005348,-0.23087144181891237,-0.7181269108660135,0.5891604593563513,-0.5453460775983902,-0.25151528309678334,-0.74840899332061,0.9413689353454012,-0.3063732361111141,-0.34612517594299097,-0.47860405639013015,-0.14419914814561244,undefined,1495874981142
903d185fccf839df,0.260489485171902,-0.6062767954470802,1.5135958453571148,1.700639801478548,-0.48269867190433646,-1.941345096875789,1.9395285003525011,-0.6078148584354633,-0.46558936665676864,1.0905496639093635,-0.07533266557236078,-0.07714602143391126,-0.5693585672905526,-0.22809395395567705,-0.6981269021397051,0.5608719954541311,-0.5466301623835701,-0.17840144714537343,-0.7309519488681322,1.0876387676165413,-0.2452759934171978,-0.33291011918563185,-0.4902247984285001,-0.11917762483998873,undefined,1495874982651
903d185fccf839df,0.39077487322582166,-0.6051027800648335,1.4287400262185406,1.486312141794421,-0.4952677924730293,-1.9236056109210025,1.9219061784386748,-0.6919949232563839,-0.4347612090125849,1.0280743022560805,-0.12874480642590774,-0.022665936645026537,-0.7869527072192514,-0.19291229424591838,-0.7728638380765914,0.6659436104691987,-0.5156443826953641,-0.15113179043584712,-0.7687487205265974,1.1955202730072607,-0.22267072450772799,-0.3057785532111506,-0.48135229189884793,-0.1275234596256354,undefined,1495874984137
903d185fccf839df,0.070605525294705,-0.5487492817891957,1.4976457021374034,1.607017898452655,-0.4999786428649471,-1.9266895238810204,1.898884851682351,-0.8298377772614941,-0.38930261320848886,0.6984765692934082,-0.1581281335434112,-0.029754354526575245,-0.7173225824420678,-0.14384305276146317,-0.7718112079757946,0.6012842724826157,-0.5179122693102222,-0.12189258982060164,-0.7799226280900058,1.2436250155044752,-0.20139379728612766,-0.34509976445599927,-0.46076406622798805,-0.1427613760820766,undefined,1495874985641
903d185fccf839df,0.250787357578982,-0.5792740616915079,1.278169728835013,1.3991782950936686,-0.3592600181667433,-1.9265847073501494,1.859251047542242,-1.054146672318997,-0.3789631653619406,0.630264830259595,-0.1472396945991846,0.0008980249148292597,-0.9653799019607844,-0.23735228136852685,-0.7223374533559022,0.692211542487687,-0.5398285407009503,-0.13859256081959445,-0.7516135313624916,1.3212177808832426,-0.1860183812678498,-0.3786105070419637,-0.4880963686864806,-0.10075415311118463,undefined,1495874987157
903d185fccf839df,0.2244531049128827,-0.5352479368324038,1.5231661345985013,1.647339280754532,-0.3595274451974589,-1.9129540005037,1.8125088736409185,-1.3651679602162583,-0.37240093539744545,0.9867928499775046,-0.0996868157794796,-0.01938231750757655,-1.0001949643493762,-0.20494812247277802,-0.6802321388905227,0.9205401812952819,-0.4568816014427716,-0.16698947985377016,-0.7500812302820984,1.3544168306116675,-0.1919986970042362,-0.38888951533129845,-0.4181729668833011,-0.07927490484842682,undefined,1495874988688
903d185fccf839df,0.31454400380231634,-0.4965049031144037,1.2941201261916737,1.308623545547949,-0.4462873026977176,-1.912015316427065,1.807357093369484,-1.4066121083058174,-0.39554942300751744,0.38707069335511696,-0.1084550319568548,-0.015258696401004485,-1.0393619095365418,-0.18828310463794437,-0.7644427899079831,0.7750564023106159,-0.4493239471362236,-0.24171188169428462,-0.7504100805951652,1.3489657786485516,-0.22214224673184582,-0.43554587085405516,-0.4573618357246603,-0.1759262728090208,undefined,1495874990153
903d185fccf839df,0.16762645616980765,-0.5464012364107064,1.5863290778712436,1.4472572724040793,-0.4366907433137722,-1.9060664414081383,1.8904852625620319,-0.8550180075478584,-0.410627951947108,0.6853616870391512,-0.1770105225666303,-0.020041507183490393,-0.8957497771836007,-0.1512497949865452,-0.7781270180295107,0.8437571997707638,-0.4813572690660317,-0.2619013050858437,-0.7455822809740339,1.4356436317409091,-0.21753688041815483,-0.4216064561104049,-0.3842219819341105,-0.15669400298209052,undefined,1495874991652
903d185fccf839df,0.1523803443948441,-0.5129413230618026,1.5888813752543027,1.5454259207440826,-0.5032803464809585,-1.8868968024123092,1.8172504265699818,-1.3257535674852052,-0.4308184334925973,0.623306429698997,-0.20946200568629836,-0.05166325356588663,-0.9305648395721926,-0.18643145469630387,-0.7539164594510798,0.8922516608636186,-0.48489267203839204,-0.27026712340684517,-0.7539294760624078,1.387970045554643,-0.23228327970899704,-0.4084927097325725,-0.3853518008591871,-0.13672747179284064,undefined,1495874993532
903d185fccf839df,0.1412922380091181,-0.5041360980899817,1.5888813752543027,1.5447793112473207,-0.47043812085643566,-1.8841110316861986,1.8588855132409694,-1.0262291100447831,-0.42113903466818725,0.9491022559163002,-0.17709605292145195,-0.0434992398577301,-0.7869527072192514,-0.164211422282676,-0.7423375062556135,0.9063959493441718,-0.42735769383304595,-0.1940438134054154,-0.7362555333110695,1.3214641600625385,-0.19804585861153365,-0.4155094831250392,-0.41821775998862015,-0.11981921139220333,undefined,1495874994636
903d185fccf839df,0.14545024339835563,-0.5710558371038122,2.7239032443040014,2.5756279220238323,-0.33938805484129525,-1.8859418130300833,1.8790087772012014,-0.8631770433010082,-0.28314599174634747,1.4741232159472573,-0.15254575515694277,-0.03352845649823728,-0.7913045900178254,-0.05588885168396828,-0.7360216667529622,1.080168192231058,-0.342839923775829,-0.1415817079265339,-0.7502351605923989,1.3505364251459013,-0.16776902287898543,-0.4029913099621087,-0.390230780386795,-0.045190964481226656,undefined,1495874996158
903d185fccf839df,0.32286008359161084,-0.5411180721996215,2.3851193763144534,2.361202511681503,-0.2767173104378994,-1.8847632169357322,1.89051943900808,-0.769496417483639,-0.24801026852420482,1.8246406981560839,-0.06472823982251648,-0.038682430081958576,-0.7086188168449198,0.1357586915319367,-0.7097058626974052,0.837695208413467,-0.3661268273785567,-0.07405986253230404,-0.7623746284972173,1.3115013665992183,-0.14757217965437874,-0.4006526359134267,-0.3629064819956337,-0.052771071052803126,undefined,1495874997642
903d185fccf839df,0.28127965013972855,-0.4982659481087679,2.8062067660595167,2.9397107748413625,-0.28226130002334265,-1.8704337377494882,1.9170462932576826,-0.5589417155503218,-0.2115876897687857,1.6272046234543187,-0.016483947976596938,0.0004155997797991963,-0.8348234180035651,0.14872038358194023,-0.6381268097006756,1.0559210182140737,-0.3380943689170334,0.1080059322537013,-0.7517954504639155,1.4193982760760913,-0.040576334426785876,-0.4073928483194279,-0.31013454072999724,0.012705612896942784,undefined,1495874999155
903d185fccf839df,0.20366287093423668,-0.4589358701646541,2.13629515981875,2.2872982789466074,-0.39472511086980877,-1.8756116364424469,1.8445109881295276,-1.0768371605299891,-0.19372858040723911,1.6281137469536395,0.03210399743953245,0.029170985759562625,-0.8174158868092692,0.1089095731165312,-0.6476005100567821,1.0316737311382032,-0.34653357622723574,0.12210306480759904,-0.7563363811938927,1.2662299366909646,-0.05134868744176647,-0.4366340344636135,-0.40336376193845286,0.10987335222845976,undefined,1495875000626
903d185fccf839df,0.21613695611276873,-0.4448475102097408,1.4281021424754878,1.511035224656694,-0.35843717594319235,-1.8795270887777002,1.9587629111686957,-0.35103827573200863,-0.31478848142394983,0.31428456225364526,-0.053246980688026795,-0.00999412372410393,-0.8391753008021391,-0.04477884842792889,-0.7202321931543085,0.6619023771134058,-0.5340781226105298,-0.17101723313438785,-0.7919711373005007,0.9303590446434876,-0.2580819208278275,-0.46390852884917794,-0.3581730768887918,-0.07806766384256533,undefined,1495875002121
903d185fccf839df,-0.0028533520377785515,-0.49709190349852894,1.3285724558772063,1.3992296074935946,-0.48228725040446013,-1.8816723183451531,1.8770653472039582,-0.9480698628328588,-0.36755935265530715,0.26404611410451667,-0.057908356481415735,-0.06304297325363162,-0.852230949197861,-0.3253065342491199,-0.8307586261406246,0.530562886609293,-0.693798060863782,-0.35648382007592916,-0.8559849598460597,1.0382713482174812,-0.33806197329289095,-0.4963002129774324,-0.6193397777824748,-0.3130113270943609,undefined,1495875003637
903d185fccf839df,0.28682370333259155,-0.559902566753502,1.8026148700475222,1.8046534898093503,-0.44010560302670476,-1.906073428355194,1.9147478340314772,-0.7175639903883898,-0.3325325386763722,0.7236649178868017,-0.022130494380356053,-0.004568220112630966,-0.9479723707664884,-0.13180726338692716,-0.8865481981764668,0.5447071185604031,-0.5929948923484408,-0.2671893141582626,-0.9119594473671933,1.157362922943157,-0.27553617439148176,-0.5229344883776139,-0.5593369078590019,-0.46934683902063823,undefined,1495875005135
903d185fccf839df,0.29513985213270555,-0.6773056686757527,1.7668865187389347,1.7681737228996142,-0.5239546031557462,-1.915662904746858,1.9735423998254944,-0.3896206221766441,-0.2794903428495778,0.694687365356205,0.15222118392073103,0.06286008529502492,-0.9088054255793226,-0.08551552271648181,-0.9518114190327791,1.1690749303523975,-0.5176177062846041,-0.19612735404565046,-0.9617697444753889,1.4287297238390348,-0.19601580406633232,-0.4609960291384891,-0.5829230080887875,-0.6225550672370409,undefined,1495875006628
903d185fccf839df,-0.162245019354229,-0.7213318227628491,1.0095667959765344,0.9768889821545664,-0.6288892820896155,-1.945570336182747,1.916167925806802,-0.8554956528821946,-0.2639675398090132,0.3790472721110558,0.11868978231000477,0.06837092318454645,-0.6085255124777184,-0.14199145462292084,-0.9802324980143973,1.3024351788580146,-0.5027613403663256,-0.23369437559666645,-0.9652331658899295,1.385552484100029,-0.22712996995302842,-0.4485953259496415,-0.5709364957659905,-0.6476592149502828,undefined,1495875008134
903d185fccf839df,0.21890898270920023,-0.6990252820622288,0.5080897898420637,0.4397117513580837,-0.4522118666465148,-1.8905443904983406,1.9669547421490616,-0.4077444305559784,-0.24435059737216047,-0.5032139522400783,0.05744165113532974,0.040919251298972906,-0.7260263480392157,-0.1531014449281857,-0.9739166990040319,1.3327442311734097,-0.3540593067362366,-0.28336998604020563,-0.9883926099590187,1.2437635999787882,-0.2809137226839012,-0.4271847603896613,-0.5037868931748819,-0.5804130195870931,undefined,1495875009642
903d185fccf839df,0.11911602523766605,-0.6420847395604772,0.020011137818144037,-0.07876610416364707,-0.11193014824800646,-1.8167820434872126,1.9113343507069473,-0.5889466416334074,-0.2436170385348967,-0.5793964658479805,-0.02777496788595463,-0.049468284516290796,-0.7129706996434938,-0.24661067353524938,-0.9633903869527131,0.7407060883747065,-0.5087553017915138,-0.36313974642219776,-0.9698510609156099,0.7935284547729621,-0.40458220064953077,-0.4360674066548247,-0.44391042021192484,-0.630603017331811,undefined,1495875011165
903d185fccf839df,0.2521734398880172,-0.7542047211136315,-0.20456866783951663,-0.25318998541197246,-0.2325196570061468,-1.8495963648164429,1.9096828372743433,-0.6843446486680432,-0.3121736299468055,-0.45386617702894466,-0.014612486830995686,-0.012645580623517531,-0.7303782308377896,-0.6252766933914435,-0.9697061822819615,0.39922345263462317,-0.7233968010729525,-0.627191832912639,-0.9925697056425518,0.7421746411481691,-0.5444445947131491,-0.3972318746704505,-0.5511340600499568,-0.6173643812476045,undefined,1495875012632
903d185fccf839df,0.02209502535174393,-0.8651506726705431,-0.35641600339389684,-0.42188871062966465,-0.14475180627544135,-1.9135363109741135,1.9429183322062067,-0.5309527939481351,-0.26999210009216223,-0.4018959849238646,0.015345290226907622,-0.0009089363446962367,-0.7303782308377896,-0.6882333806674625,-1.0149694091364327,0.10825583813584802,-0.7914086370881751,-0.7653513319405455,-1.0328573427071615,0.2932021703671239,-0.7156159854155735,-0.39750818972777907,-0.5499687488528787,-0.4968882002919589,undefined,1495875014135
903d185fccf839df,-0.5683472607855418,-1.0271669582920078,-0.7137020578492661,-0.734038136591731,-0.4332141825660334,-1.9606731239816855,1.9170936265774627,-0.901438232768983,-0.3046830880460555,-0.6672883682892999,0.07029577135087246,0.08071201671878826,-0.7260263480392157,-0.8206276433345195,-1.1697064278330727,0.20322445455559823,-0.7066542688066231,-0.9134978832584323,-1.1168750473350433,-0.07278808121561121,-0.8826212341861057,-0.3759901315323054,-0.4298876627994916,-0.43232257065180113,undefined,1495875015626
903d185fccf839df,-1.14492941394067,-1.084694457335896,-0.8942592445800078,-0.9305169343259614,-0.8099792684500134,-1.950317325878174,1.9295746937188405,-0.9204087839935593,-0.29999124247281284,-0.6698229724668765,0.08707022118658414,0.0925845040898704,-0.8739903631907309,-0.9798710632693056,-1.245495993870756,-0.4777204122320836,-0.8663870043768742,-0.9979033561200957,-1.1700228228582734,-0.5350494122746002,-1.0322313112506143,-0.37626812534984266,-0.42530922292877443,-0.42393720939483825,undefined,1495875017151
903d185fccf839df,-1.1352273208531598,-1.022470867535029,-0.9191417932980529,-0.9621589301109408,-0.8315277998505906,-1.979253464694765,1.9267976170711434,-0.9663437473324222,-0.29506078543685205,-0.6887406320120408,0.09126747853928924,0.036997513146045415,-0.517135973707665,-1.0622702918580236,-1.2949697374472975,-0.9101304875655675,-1.2276091985231965,-1.1117760158185406,-1.2754927499276663,-0.9014400233177782,-1.1982512096742515,-0.4705254882598379,-0.615633560055848,-0.5174655096163309,undefined,1495875018649
903d185fccf839df,-1.1241392144674336,-0.9919460437907283,-0.9280736905224877,-0.9754156210675321,-0.7272514058392641,-2.0402585693346444,1.9287699707163992,-0.9671866799974375,-0.3034550438533236,-0.6869105116410665,0.08947950227131665,0.11361317640051269,-0.7477857620320856,-1.141891996968876,-1.3076013262652362,-1.0960264022551105,-1.3102858808495026,-1.169481798479593,-1.2883249010449072,-1.1324321041979493,-1.2762768332376895,-0.4699656672672736,-0.6612384476240994,-0.5188133788724216,undefined,1495875020144
903d185fccf839df,-1.2183882567677438,-1.084107471565767,-0.9727347014663582,-1.0258183956821005,-0.6650126541777822,-2.076918465105904,1.9319599238890843,-0.9593190066717487,-0.2883396131465992,-0.6900238757085279,0.09209409156351567,-0.02232881023162578,-0.8957497771836007,-1.1687411801381544,-1.3349697843488497,-1.1263355252323093,-1.3397313417844197,-1.1928313618126005,-1.311701246220588,-1.1916699246106277,-1.3058790879005158,-0.47503166194158236,-0.6711488128136563,-0.5293163050772061,undefined,1495875021639
903d185fccf839df,-1.150473467133533,-1.091738666541345,-0.9810292232216392,-1.0333814104142438,-0.7203188473996917,-2.0899412417310557,1.9290645066092844,-0.9942213430559073,-0.27108058347248226,-0.6786553472401867,0.09334799637352448,-0.06516870746265817,-0.9044535427807487,-1.163186176891288,-1.3286539890196012,-1.0535936357399762,-1.3241996643930176,-1.1911531316827249,-1.2985822257534134,-1.1438115560558706,-1.2908314263328078,-0.47525123284241366,-0.669108851857562,-0.5199715950504897,undefined,1495875023209
903d185fccf839df,-0.8621824250613787,-1.0623879020212794,-0.8929829688200035,-0.913583990356297,-0.8895597064106378,-1.9875082879288033,1.9332958797614437,-0.8385013593129367,-0.19854740136653276,-0.7671575162325674,0.018507643499722743,-0.04748757052961057,-0.9001016599821747,-1.1307819904751433,-1.2918118379421148,-0.8899244126469485,-1.232508371175304,-1.1178936391119214,-1.186409353894749,-0.8265419849228244,-1.1602425630104936,-0.40377981640441896,-0.535927025381333,-0.27301111684964374,undefined,1495875024636
903d185fccf839df,-0.6265599055741277,-0.17658140763033187,-0.7481543875347987,-0.7979386747287609,-1.3672789032797676,-1.7659650295639577,1.902800641086221,-0.8467857373865516,-0.3196872107339997,-0.740561261022626,-0.007990146443133837,-0.026392616314018076,-0.9349167223707665,-1.0724544539547745,-1.2107591121976553,-0.9262953361945739,-1.2261848575907632,-1.0891484076218227,-1.1659226916233698,-0.8352575056108394,-1.1411845465931212,-0.4086671676580827,-0.5477540531220886,-0.2825586099301014,undefined,1495875026144
903d185fccf839df,-1.0201880790796134,-0.9807928026684104,-0.7436886930595308,-0.8317378167169527,-1.5363449070834876,-1.566626407988399,1.8577652132991298,-0.9559278289166497,-0.25719186386211285,-0.7157364973417841,0.01976362403420253,0.02562271554455985,-0.9044535427807487,-1.0604186127771404,-1.188653817501935,-0.9606456713290245,-1.185690778987578,-1.06781905317795,-1.1438337596122954,-0.8269885401369373,-1.122046657763271,-0.41478641300032926,-0.5574824568537211,-0.29330168806148615,undefined,1495875027636
903d185fccf839df,-1.2073000468657886,-0.9696394007921347,-0.8834131878525159,-0.9526056084995725,-1.7080440479687011,-1.5243111187995433,1.8470092961823825,-1.0103324534484384,-0.2870155311194466,-0.6985933384063028,0.08235505252318617,-0.06295816721053599,-0.7695451760249554,-1.0706027845869723,-1.19286435262959,-0.9384189867986895,-1.193822360875041,-1.058762943724816,-1.1439177213672835,-0.836027427411973,-1.1198210746343784,-0.4175051419311088,-0.5601847587510788,-0.290734068750573,undefined,1495875029135
903d185fccf839df,-1.2280902635917297,-0.9860758207395336,-0.8834131878525159,-0.9573336716091131,-1.6895400786664103,-1.5201068403011344,1.8480507067341605,-0.99640196851723,-0.27821693024831473,-0.6922093510299296,0.08450451719290084,-0.022510049382132302,-0.6389886920677362,-1.0835644636862012,-1.2318117547058776,-1.0111608621586619,-1.2721013007624082,-1.0687056654367382,-1.1902925838884855,-0.9521163081834817,-1.1647015765018145,-0.41429907724332676,-0.5673569027160265,-0.3680825970662234,undefined,1495875030633
903d185fccf839df,-1.1920538833327103,-0.7929477694456277,-0.8974491715691703,-0.9836161653437445,-1.7564073942032574,-1.601686114196255,1.8708353427985809,-0.9842274254178742,-0.2606309156230546,-0.6829484369949078,0.07789511132268091,-0.041353806466242864,-0.7564895276292335,-1.0974519742316378,-1.2633907497577044,-1.094005785577214,-1.3031852038102718,-1.120078504326275,-1.2358418225671954,-1.1401775233344162,-1.2382221288925492,-0.45463180435064726,-0.6520799300301573,-0.4932183154031485,undefined,1495875032157
903d185fccf839df,-1.2156161266550831,-0.8498882242634024,-0.9044674175644469,-0.9750819564787442,-1.820466715318829,-1.6241795774839365,1.8784460013550248,-0.9796171724559397,-0.2760569211971758,-0.6780763053739195,0.08131746517376728,-0.031094943334155474,-0.5998217468805704,-1.093748635496033,-1.2644433835396183,-1.1000676214785425,-1.2949666731702185,-1.1087425354095033,-1.2328891684445253,-1.141455594306458,-1.2307341698229153,-0.454206561111627,-0.6523712115621954,-0.4928969635888519,undefined,1495875033640
903d185fccf839df,-1.0922608309712996,-0.8046880694080555,-0.8279061201811535,-0.9242580242449917,-1.6848600875681818,-1.7042099075877588,1.9263505515298454,-0.7544535581132237,-0.3156414657401469,-0.6515136858321267,0.056803210575924815,-0.08646660972618839,-0.2212079434046346,-1.0233852675111113,-1.260232855774197,-0.9727693289993204,-1.163893370953565,-1.0331208550574258,-1.2135849675844455,-0.9090776536322918,-1.1435176129497189,-0.4378003929323272,-0.5409280889477953,-0.46024861176539084,undefined,1495875035153
903d185fccf839df,-1.0492943583421441,-0.8293426993291538,-0.8183358309397671,-0.8804912803938177,-1.6585184176867247,-1.7163499038934715,1.896646891553593,-0.9597020991394821,-0.3210676752412316,-0.7083084786833121,0.06634532176023993,-0.027193793167415138,-0.16898534982174687,-1.02523693364122,-1.2581275882103697,-0.9202335073594259,-1.0745955524493813,-1.0235391109357954,-1.20465004021727,-0.8403543920901582,-1.12109916325835,-0.43075706247292517,-0.5410427059437876,-0.4382529916306844,undefined,1495875037478
903d185fccf839df,-0.7138788123725396,-0.7823814994794428,-0.7628292715423035,-0.8044253842431882,-1.529052348277316,-1.720845335619274,1.8962708333246183,-0.9507319043663427,-0.31438198544147833,-0.7285305233758328,0.05748353302892396,-0.06140089631179092,-0.12546652183600712,-0.9622802301767327,-1.2118117386173353,-0.5322768081527922,-0.9009236824230441,-1.0024884061798278,-1.1839324832542484,-0.4604439429161212,-1.016526087979289,-0.4284033460118856,-0.48570667452703453,-0.318510316819502,undefined,1495875038194
903d185fccf839df,-0.08047020025408988,-0.6573471295116332,-0.4974162656729875,-0.60901112852498,-0.7356239671095886,-1.685140429782026,1.857673176986794,-0.8675630174793266,-0.26168786248334797,-0.7345549073210991,0.04867853812906306,-0.052370304973046074,-0.32565313057041,-0.7641517794196468,-0.9907588358335344,0.6396757632448749,-0.49130871501421136,-0.8811175401153842,-1.0394623332085282,0.28562613216506916,-0.7722999924171953,-0.3082548475215278,-0.22944971813625809,0.11538606395282018,undefined,1495875039643
903d185fccf839df,-0.21768558578826883,-0.10144345864280194,-0.30984083294696924,-0.5139345297358437,-0.7417028142093625,-1.5215439842849252,1.8158645196208794,-0.7853261201459549,-0.5494524352156297,-0.6815509098174698,0.0016888292547339568,-0.09131975413901573,-0.29518995098039214,-0.7437834293245958,-1.0012851699715546,0.8538600994395558,-0.4585979487461496,-0.845627723525813,-1.0237265056264029,0.4454619944301314,-0.7169428481876262,-0.31817788197779795,-0.24549329288003455,0.06345217715418716,undefined,1495875041135
903d185fccf839df,-0.34935698714040425,-0.8176023993667261,-0.6811638876667906,-0.7223451368328426,-1.0095732231724572,-1.2999471503678426,1.7479865938080363,-0.8508966148480247,-0.6939869089858582,-0.5088965038435748,0.05404426208426504,-0.12564531730825038,-0.2516711229946524,-0.7567451019484376,-1.017074650932442,0.8942722563429739,-0.43169591859880047,-0.8704908605195238,-1.0300656164152475,0.4341595359033511,-0.7323830301339815,-0.3086522493629457,-0.20443111132005654,0.07631777181041736,undefined,1495875042641
903d185fccf839df,-1.101962967190572,-0.9760966826834393,-0.7538968660439699,-0.8256615501710463,-1.5043358185359392,-1.2288168408650368,1.760375606829208,-0.8315999626184584,-0.29374842056613015,-0.6144459401836198,0.043976523183406564,-0.05372085515212584,-0.49102467691622104,-0.678049205619937,-0.9497061441067178,0.8760867981022514,-0.2690100805220887,-0.8129117362669395,-0.9799824444597284,0.4938593085216593,-0.6767877086757886,-0.28895282093405733,-0.2697570038525892,0.05105521256919034,undefined,1495875044133
903d185fccf839df,-1.113051073576298,-0.589840346271689,-0.6983897983726074,-0.8043575997590691,-1.4516010495056293,-1.364308688319727,1.7935348254141248,-0.8735395313404969,-0.3978836363163238,-0.678515845915337,0.011800805323298356,-0.05476225314709937,-0.9044535427807487,-0.5975016787759577,-0.7486532758170437,0.5083363080716639,-0.25811945797937746,-0.7668015733573853,-0.8794662576926067,0.2017353982639066,-0.7047001558085726,-0.18955341569711887,-0.14806684963019784,0.18134449964220883,undefined,1495875045652
903d185fccf839df,-1.0312761854653394,-0.9232652159405451,-0.7213581875875954,-0.8436688543412223,-1.6003322280397172,-1.4727673840193514,1.8373053130213544,-0.8818599635150023,-0.3788655397465563,-0.6990332875498272,0.050618017237689626,-0.10585634662126188,-0.7564895276292335,-0.9113593662710329,-1.0833905276573694,-0.7808115713422686,-0.937976284345263,-0.928050985891246,-1.0427018543015951,-0.7403414879607031,-1.0137593629337718,-0.24508110483914916,-0.35400289410583174,-0.10056384116249592,undefined,1495875047142
903d185fccf839df,-1.187895843438063,-1.0048604175913873,-0.7462407363056405,-0.8011566986278763,-1.7388908530989933,-1.4406797842134602,1.8812704081799372,-0.5688124241818003,-0.36461826667611213,-0.6173465445287194,0.05927895948987145,-0.06224175170612635,-0.5127840909090909,-0.9215435364620179,-1.0749694610831766,-0.9141716926566387,-0.8696971226406696,-0.9371324271356992,-1.042659873417984,-0.7728784034175659,-1.023621728951124,-0.23691014808314634,-0.3484568619863024,-0.09538943914257635,undefined,1495875048890
903d185fccf839df,-1.3209532235830046,-1.0459514674598844,-0.8042998472231128,-0.8736956967714332,-1.923004829171342,-1.3754727323199378,1.8574759223478672,-0.6505020779115042,-0.2859617911721052,-0.675992990902312,0.09559942316686548,-0.35447544315978424,-0.6650999888591801,-0.935431050245148,-1.056022078776548,-0.9545838495600568,-0.8701946964785644,-0.9351375498773209,-1.0434994903683956,-0.7809933841946834,-1.0250682332155898,-0.2358220301813812,-0.34740152024878107,-0.09236109742420417,undefined,1495875050214
903d185fccf839df,-1.2364063347546719,-0.9878368657338977,-0.8834126795786171,-0.9189366653398483,-1.8301969843871344,-1.4078235372931844,1.871263997096829,-0.6156707489509663,-0.3349974569063724,-0.6781787062228393,0.0947076684958235,-0.7820537756180976,1.6588054255793228,-1.0094977602033683,-1.1307589981484083,-1.1061294361813296,-1.141726859534997,-1.0015891286316447,-1.0963533996635275,-0.9404134895769924,-1.1017356827255658,-0.2796258401100448,-0.4072088382312172,-0.20551421670621753,undefined,1495875051743
903d185fccf839df,-1.0728566016645167,-0.8997844991037203,-0.8508745093961415,-0.8598868980106076,-1.7300451511592627,-1.4305056693539102,1.893412221770569,-0.48821687155936994,-0.32318729743471514,-0.681568563276613,0.07781272349618495,-1.2369300354219241,6.70263758912656,-1.034495267529457,-1.169706420470839,-1.1121912579502973,-1.1625548594881114,-1.0691109740646312,-1.1511034458990659,-1.0141412467911441,-1.159733322507159,-0.41203038539541914,-0.5907556238086284,-0.4341470336562684,undefined,1495875053250
903d185fccf839df,-1.0423642832247129,-0.33859775170778117,-0.8527881606252997,-0.8999706145699764,-1.712312608820775,-1.5914397952744235,1.875742563394397,-0.8501030126782497,-0.2638872953317108,-0.6717307968081051,0.061524124169615946,-1.4968859815935958,7.503384024064172,-1.0372727796753944,-1.2318117694303452,-1.0778409228158468,-1.1903409067394999,-1.0752475967593207,-1.187130025451749,-1.0343748048076047,-1.1777149710065338,-0.43265341410756175,-0.6000748496201211,-0.48086461607387176,undefined,1495875054622
903d185fccf839df,-1.1463153754807711,-0.987249909191761,-0.6358644847059683,-0.6352993224171734,-1.7747673611863428,-1.824470861597654,1.7734325972627978,-1.9059705187094138,-0.19754194437852562,-0.6430194802669781,0.10390246878143859,-1.63204439252799,6.924583611853833,-1.0696769579973051,-1.2518117965622382,-1.0576348549634083,-1.2224091315894168,-1.082289830034457,-1.2020472264365707,-1.0337280700046243,-1.185924367277254,-0.43753153011072227,-0.5991244133980822,-0.47897730595328825,undefined,1495875056132
903d185fccf839df,-1.2364063520073767,-1.0852814723340174,-0.6792492198898347,-0.7337292760963446,-1.8385695432868412,-1.9150223650487572,1.7748158749321972,-2.04802861519982,-0.2823050568034897,-0.6583208563990169,0.08520860137052781,-1.1782511598883232,6.8810647838680925,-1.097451970993944,-1.262338112294674,-1.0333875572882674,-1.2746931505936567,-1.104999765906558,-1.2267249780682898,-1.0569489258587852,-1.2114743677649025,-0.455482804963771,-0.6138973451125123,-0.4829608199234962,undefined,1495875057621
903d185fccf839df,-1.2308622988145137,-1.0306890190527438,-0.8700150878789144,-0.9336760514326969,-1.8282529887911618,-1.8895218524480653,1.897249113927964,-1.207751595784915,-0.28751221632173357,-0.6636466588470609,0.09280930079930029,-0.7275299203022922,2.7119610628342246,-1.1215236533492126,-1.2760223422567598,-1.1243149050213228,-1.3419141739792135,-1.1524968432766045,-1.25728704757389,-1.165769739168039,-1.2641644197136226,-0.4709380531790309,-0.6669390503883276,-0.5148087152123487,undefined,1495875059119
903d185fccf839df,-1.2364063520073767,-1.037146184032079,-0.8534265526422513,-0.9061800919592863,-1.863512356736641,-1.8615896156569038,1.9174355020752585,-1.0451135638458597,-0.27510941551409607,-0.6857005912667389,0.07945931064173901,-0.2604699628335948,-0.8261196524064172,-1.0733802983517566,-1.26128547851276,-1.0515730119958995,-1.2849123701749976,-1.0983755063493894,-1.2351561346180333,-1.0887467151264876,-1.2159529690545028,-0.46670768082040814,-0.6579594204081873,-0.512266457672292,undefined,1495875060660
903d185fccf839df,-0.8968327402640676,-0.9162210359630885,-0.718168260598433,-0.7834465413761039,-1.5855619658201447,-1.8642263148737401,1.9382214875073083,-0.8534560256975814,-0.2546163694414162,-0.6874608018663005,0.05005855800256613,-0.012912823431798058,-0.9218610739750446,-1.0548636192433547,-1.1876011855605797,-1.047531799838648,-1.2544119587028926,-1.0796109941502272,-1.1972963916616781,-1.0810474931303091,-1.186676820062315,-0.4542115977261868,-0.6662174571486976,-0.5210489441903879,undefined,1495875062124
903d185fccf839df,-0.851094266917538,-0.7125266270190207,-0.5305928278724147,-0.5979659232455284,-1.532621483511238,-1.8720106327792578,1.9398098950844809,-0.8230075899083283,-0.26346942009726787,-0.6478756383081226,0.03473425736045309,0.0333885196968331,-0.7651932932263815,-1.0030169141783665,-1.1570748224501082,-1.0192433147378865,-1.1987687729446734,-1.0383898640585993,-1.1796924152206905,-1.0314644987528796,-1.1516202977224768,-0.4529049558902392,-0.6565191404293441,-0.5188688707083098,undefined,1495875063644
903d185fccf839df,-0.7942676871852824,-0.6573471587396256,-0.5037966279252114,-0.5790028375304381,-1.495459260433335,-1.8833447106058703,1.9685878652890516,-0.6310885353762858,-0.29758606776282853,-0.5720139600342508,0.035897795844611884,-0.0014737215859378769,-0.6999150512477719,-0.9909810730007323,-1.1391800720848348,-0.9687280744449865,-1.1255247125116705,-1.0272375503534454,-1.170344675809928,-0.8723985577100712,-1.1079634222974255,-0.45577228803663417,-0.6392705873382971,-0.5200399230295926,undefined,1495875066268
903d185fccf839df,-0.7887236339924194,-0.6262353638391921,-0.5171942196249142,-0.5830193889922208,-1.482951852434453,-1.882084592602622,1.9639646634673091,-0.6577935387221423,-0.2923756660073305,-0.5683428021966822,0.032664130469262254,-0.038651992562203474,-0.5475991532976827,-0.9650577148022743,-1.1349695314355046,-0.9363983771869735,-1.1077551776973866,-1.0166742003992157,-1.1656148317123478,-0.8301760209156198,-1.0928645201816605,-0.45536669488801995,-0.6278686210695915,-0.5117906046403593,undefined,1495875066950
903d185fccf839df,-0.7762495143084777,-0.6379756638016197,-0.4750857602010522,-0.561216335156774,-1.4826227102092426,-1.8954730597555305,1.928559581201699,-0.9047700445052173,-0.28291628429654364,-0.5314688106143802,0.04504402895420906,0.0028129951239071367,-0.22555982620320855,-0.9548735494678298,-1.1318116374519973,-0.9000274607055285,-1.0754222607383297,-1.0102652615028918,-1.1552245676828232,-0.7622842749698672,-1.0738424419714316,-0.45530504677966516,-0.6205713502455528,-0.5049138083725737,undefined,1495875068147
903d185fccf839df,-0.7707054093575,-0.6409107534062229,0.09402039195532767,0.15214262880812507,-1.4252490920846537,-1.919913767034778,1.9664314254013402,-0.6663226673508972,-0.28478634961152727,-0.4369832598365004,0.08621894000868674,0.0010589994469202826,-0.7042669340463459,-0.8419218443019398,-1.1349695351166216,-0.6716987653684906,-0.9783945348748916,-0.9199574848736756,-1.0960455413429413,-0.6135044948524497,-0.9874442449034425,-0.4630240737979406,-0.6028484006837624,-0.5109209843637312,undefined,1495875069630
903d185fccf839df,-0.6265599228268326,-0.7894256502289071,0.6675927468608743,0.6214508860804975,-1.2071100333898794,-1.9758318125958663,1.8868981980673571,-1.2243514865110676,-0.21686353359316446,-0.6265244656916383,0.16821638396533994,-0.16435721832324637,-0.9131573083778967,-0.7493384374280028,-1.0812852637746588,-0.38073123566388006,-0.944748528135584,-0.8147166274185892,-1.077692906505173,-0.3875169072749299,-0.8878040253684859,-0.46879876389607716,-0.625300372424158,-0.5171395225428891,undefined,1495875071122
