UUID,iqrAccX,iqrAccY,iqrAccZ,iqrAccXYZ,meanAccX,meanAccY,meanAccZ,meanAccXYZ, covarianceAccXY, covarianceAccXZ, covarianceAccYZ,pressureDerivative, pressureIQR, iqrGyroX, iqrGyroY, iqrGyroZ, iqrGyroMagnitude, meanGyroX, meanGyroY, meanGyroZ, meanGyroMagnitude, covarianceGyroXY, covarianceGyroXZ, covarianceGyroYZ, class, timestamp 
903d185fccf839df,-0.3403479352074116,-0.8889248385504439,-0.17968662739537042,-0.401327469968434,-0.941333499007757,-1.4385265664385525,1.7897730854631462,-0.9218965398691249,0.11714762581388166,-0.7615305024912039,-0.013270899851430715,-3.374815701553085,1.45861881684492,-0.7039725735314759,-0.6570742251373561,0.1668534744785298,-0.8390680283314809,-0.6827032462847172,-0.6423128492737491,0.052339703679013604,-0.5783940080953603,-0.41485348226799024,-0.6046970170998531,-0.35533550334185,undefined,1495814784714
903d185fccf839df,-0.660517317643938,-0.32245482464544684,0.031814274297164415,-0.10614693451847013,-1.0624670970366117,-1.765190411085734,1.8954243725692046,-0.7710985563763291,-0.19656286999259956,-0.8611068285399355,-0.08008033391129535,-0.018244479341468174,2.4008014427361855,-0.5910208521771179,-0.6991795396027357,-0.24737111434951004,-0.8590587743661574,-0.6146699324811185,-0.8302186524057855,-0.1691953125098378,-0.661556147138217,-0.3910107664260257,-0.675432632887706,-0.4073852282356222,undefined,1495814786100
903d185fccf839df,-0.5849794721222454,-0.2593505954354283,0.6474953427635225,0.5662392907372634,-1.0237237704875297,-1.7035652931166878,1.9292946275063756,-0.42636765055946263,-0.27196410033967144,-0.9250424440374145,-0.06068114962036509,-0.02585604620323407,1.6631573083778968,-0.3262323333183911,-0.8023375766079416,-0.035207295906200115,-0.7260939648114104,-0.47727497277367803,-0.9024073405855496,0.020952892734313354,-0.5928900978107556,-0.4507158398034819,-0.5082553447620233,-0.5263626234309904,undefined,1495814787604
903d185fccf839df,-0.004239296325174835,-0.2992676299216788,1.2213863854036462,1.1487113015394184,-0.7454673815400189,-1.7577008887587442,1.8683580713402723,-0.7901367918836399,-0.34479644889499583,-0.893850173914686,-0.0772888434269497,0.01131903131796145,-0.5432472704991087,-0.20402229750195777,-0.8276007137515328,0.22343050827567595,-0.6276057332587575,-0.3252949004758888,-0.9044941668109315,0.12928355350153475,-0.4923577837007792,-0.40645024563789633,-0.5455501613306363,-0.5453245675095014,undefined,1495814789103
903d185fccf839df,0.38245882794193686,-0.21825953095293504,1.6896870834756392,1.5312195177600028,-0.16001578896468627,-1.7204027794684082,1.886193406810893,-0.4247899485542613,-0.3584096784636324,-0.7310796250458963,-0.008904346092984737,0.04866962769905218,-0.678155637254902,-0.21420646283640235,-0.8812850182235475,0.3487081204813781,-0.6198869492111572,-0.30789935719428624,-0.9119579172584921,0.2225827367546994,-0.4725009846902113,-0.4088004498494739,-0.5107484760205643,-0.5295715794238353,undefined,1495814790617
903d185fccf839df,0.2521732328555588,-0.2922234499442222,1.798787059315307,1.8270725429382004,0.3539604983652331,-1.733444189460047,1.9097643499208572,-0.10978356247139773,-0.048750805830138785,-0.08811197271576109,0.10001115178554361,-0.06731316253127952,-0.6389886920677362,-0.12254891007252827,-0.8486534188387421,0.22545106842412926,-0.6439982564265361,-0.24386508433847762,-0.9117145596593864,0.2846098380908046,-0.43644002243293084,-0.39523320007208607,-0.5119326126210626,-0.5604458759102452,undefined,1495814792100
903d185fccf839df,0.25494539747362926,-0.3068988248972569,1.5327364238398877,1.595694798142688,0.48461971020951505,-1.6828088594616522,1.8172162181745184,-0.6376139990359211,-0.1241246462862777,0.002640774185231646,0.10766802347737665,-0.00863569916518377,-0.45185773172905525,-0.12069724718011322,-0.9476008691806567,0.14866803037016807,-0.5720791118386117,-0.25060966991410344,-0.9351958567229497,0.46529519658058616,-0.41605278867946466,-0.37374988377437746,-0.5508842137978476,-0.5687395433444385,undefined,1495814793633
903d185fccf839df,0.6166952823728574,-0.46950215474483525,1.6246099806998398,1.6919201613408381,0.694015926777684,-1.6842413418828037,1.7883777661566103,-0.7082726472838619,-0.3722366484168356,0.4299623548342991,0.07081423946906824,-0.024746038899658224,-0.4779690285204991,-0.06329552915517757,-0.9212850724873335,0.23353353513571481,-0.4937048535193236,-0.22658248105394835,-0.9185364501723906,0.4643250980715198,-0.4009862459530558,-0.34586227214372667,-0.40370602242109954,-0.515967293986973,undefined,1495814795112
903d185fccf839df,0.5972910961978369,-0.4360422706239238,1.3247446451449911,1.4303467518686837,0.608366929976991,-1.701403177117711,1.798912774021042,-0.7201377802045572,-0.46425972645970465,0.014764071819635245,-0.09920929257663962,0.058138557272362765,-0.3038937165775401,-0.16698892309668584,-0.9191798196479737,0.2880899875858665,-0.4980367891078205,-0.25415611889942624,-0.9312916360763689,0.5109669878878546,-0.41769713279853177,-0.3893292393038583,-0.3185043319126278,-0.4333781097191655,undefined,1495814796589
903d185fccf839df,0.7331205374446196,-0.44426050982561555,1.4542604586796384,1.5329494435880011,0.651350852589368,-1.7767726990197292,1.9103350232957186,-0.06894227948524326,-0.4668181438242327,-0.20360038708724784,-0.14102082584933182,-0.019428492442798293,-0.3604681929590018,-0.2679048162241843,-0.8991797961971976,0.16483287899917456,-0.5639384571535282,-0.26746163390889993,-0.9346291139898042,0.49690820660305335,-0.42898957424962647,-0.3545997069000072,-0.34723280950566926,-0.3820597979494714,undefined,1495814798106
903d185fccf839df,0.33810633338821333,-0.517637472274766,1.6195056400706707,1.6766830532438064,0.19442932700590496,-1.8034774280672756,1.8892045320386486,-0.48302915714476713,-0.3958828945572551,-0.46179515597879855,-0.013944038507231051,-0.08857813825886973,0.1356464460784314,-0.3651173706160781,-0.9149692845203188,0.21130692126718376,-0.6242378607437254,-0.3662238899432577,-0.9530027392173831,0.4172674468356332,-0.49607312996237424,-0.3843722518675297,-0.26854734059889057,-0.32625206095820836,undefined,1495814799605
903d185fccf839df,-0.11927867612036015,-0.525268667250344,1.6195056400706707,1.8503868080275363,0.022143902775859748,-1.8270609748903184,1.9068584178791697,-0.4979922895279466,-0.49173752822926636,-0.017310501735643524,0.10799326580184894,0.0490899931595933,0.19657280525846704,-0.3947440545993661,-0.9128640243187252,0.16079173043754638,-0.675067525265792,-0.34479954063553075,-0.9373298834102788,0.30746112947722987,-0.49749974440853145,-0.43543371008094184,-0.33144449729053416,-0.2702740143634972,undefined,1495814801116
903d185fccf839df,0.0636754242982165,-0.5499232971714423,1.6577865428992669,1.9112904188814634,0.0490821474266787,-1.8358445352773118,1.8694836238182673,-0.7314159574767645,-0.5135933618025728,0.011228586436220921,0.09463406338671586,0.15245762064034962,0.6535204991087344,-0.41881574990540904,-0.9149692697958512,0.039555238528750834,-0.7155131499586083,-0.38050467634675345,-0.945313244271895,0.3104330284656145,-0.5147760129461706,-0.4763287700882151,-0.517733270667412,-0.30177107775290396,undefined,1495814802655
903d185fccf839df,0.11357190303398358,-0.6068638104452015,1.571016818394585,1.725273476662685,0.3110177107649851,-1.8600499880586747,1.9354286404190038,-0.2427398327126823,-0.4206388227132254,-0.13592911828526918,0.05346843585277959,0.2700003433974008,0.7362062722816399,-0.44381327018227223,-0.9191798122857399,-0.004898187061361993,-0.728599373164675,-0.46608174437008437,-0.9460968871206681,0.24001593727819853,-0.5694246417147697,-0.490237940514783,-0.53765292836822,-0.35046168590746346,undefined,1495814804089
903d185fccf839df,-0.17471927705980972,-0.6097988854358085,1.8791761674308156,1.9461778215443648,0.5166082305878269,-1.867627004719841,1.8826221371117078,-0.4943172253879357,-0.3703450669932804,-0.6358434361342583,-0.00370353592954974,0.1406275031652324,-0.7869527072192514,-0.4169641129145431,-0.9223376878636628,-0.126134650705436,-0.7112769206927019,-0.4596221407727147,-0.9375677743010921,0.23200874802895813,-0.5704961697334319,-0.5151858279135407,-0.5307316090122737,-0.3610362771070307,undefined,1495814805603
903d185fccf839df,-0.18303508080582637,-0.5094192038450819,2.0271951839790816,1.9989097538119005,0.39929985500987036,-1.8430442161039229,1.7608752595358437,-1.2883375982367606,-0.40924974700952815,-0.6970174405955615,0.045296864170161814,0.03715024289241728,-0.9610280191622104,-0.4539974225659423,-0.9633903943149468,-0.19887648366832597,-0.7404991189833005,-0.45665199133410767,-0.950259987891748,0.22494086170373584,-0.5803288797735948,-0.4862183707145424,-0.5084287861938709,-0.39723462054603,undefined,1495814807099
903d185fccf839df,-0.1913512986167598,-0.3603173066382725,2.034213175837409,2.047862073099968,0.1459117046722089,-1.7769031391123422,1.8325453645620677,-0.7998684079661614,-0.3851915819269206,-0.6846227606458594,0.06364350925718024,0.05635299057841444,-0.7260263480392157,-0.4938082848344495,-0.9760219923356775,-0.18271160677459794,-0.7352714989583625,-0.45921683401067803,-0.9480070157131342,0.28759713969795164,-0.5740740317735535,-0.49939373697672823,-0.4917043937932552,-0.40185627143537705,undefined,1495814808598
903d185fccf839df,-0.33688283295105276,-0.23528296589845527,1.5863290778712436,1.513438732124714,-0.44592731161953786,-1.6973968891204922,1.8250109676872652,-0.9389139365076269,-0.41561473882182864,-0.7611031514746393,-0.042785279330428784,-0.04209359350892583,-0.7086188168449198,-0.48084661868599504,-0.9623377568519162,-0.21302080041360066,-0.729157453461222,-0.4443724135325714,-0.9551227725765778,0.19874810881322505,-0.5873493016121581,-0.47581711172228436,-0.4562354719286638,-0.38888100304517376,undefined,1495814810097
903d185fccf839df,-0.24263385966156212,-0.3738186515950644,1.3113460368974907,1.2582126853072777,-0.5572082684568797,-1.6677177208039278,1.8550065384667866,-0.7289526785765611,-0.5577918313606762,-0.5115948618421254,-0.1824241335568038,0.00691272677857784,-0.7129706996434938,-0.47529161705797535,-0.9339166705080643,-0.21706194897522885,-0.719383772247361,-0.4526749025995089,-0.9464117438364499,0.08119637731287152,-0.611416993115462,-0.4443796421942485,-0.44152538717020534,-0.4171638226264279,undefined,1495814811591
903d185fccf839df,-0.1691750168344883,-0.40434343149737656,1.0720921096431735,0.9158390742267535,-0.6889886142005114,-1.686223526652114,1.8048666558716278,-1.1333506269284799,-0.5489408936536367,-0.7007466451394224,-0.14266158581219762,-0.003698015756935075,-0.6476924576648841,-0.4364066056618375,-0.9612851267511194,-0.13623764930075333,-0.6666412387930517,-0.43363807383882863,-0.9641836438791701,0.03951278649944729,-0.6087107020639042,-0.4589712243618479,-0.43746374478930455,-0.44037205621938114,undefined,1495814813133
903d185fccf839df,-0.29530243400458017,-0.4219539983529875,1.5652748481593126,1.5732874212422088,-0.4776895404733909,-1.7009652801918684,1.8667828167086244,-0.6827941961615206,-0.46124015658768214,-0.42956804836126067,-0.10765070377775417,-0.10175672374081482,-0.843527183600713,-0.22809392805412795,-0.9307587433945048,0.09007048588783129,-0.5269990059776086,-0.29865138081136217,-0.9486717146794098,0.1475174838424495,-0.5150813234975115,-0.47710041426640537,-0.3503854957947672,-0.45199798369904126,undefined,1495814814629
903d185fccf839df,-0.10680434940395997,-0.35444709820107395,2.0259189082190776,1.8857683904261913,-0.32252980292268485,-1.7774062521214167,1.935276106056742,-0.3002197360197276,-0.33873605637214554,-0.600428018595942,-0.16942422809520677,-0.19903996718833852,-0.10370710784313725,-0.2299456168480921,-0.9339166631458304,-0.025104184251996644,-0.48351973171714074,-0.29535191592630106,-0.9460269197398317,0.12575948136920834,-0.5192316771878888,-0.46127535062830033,-0.258290963209859,-0.4513753811393169,undefined,1495814816108
903d185fccf839df,-0.2592659502293317,-0.35209900898059604,2.132466840812636,2.0701717082083944,-0.3794508531222963,-1.7834995423194333,1.9019854014887299,-0.5189712123507179,-0.36472774782348094,-0.7944307096304289,-0.10424580942593323,-0.2391182461080212,0.8188920454545455,-0.2660531662825438,-0.9370745681726885,-0.012980597243504468,-0.5191053255515602,-0.28254037124896714,-0.9571728394357931,0.13949489025127149,-0.5149019627126442,-0.4516315236012997,-0.25367244781122184,-0.44450946590792023,undefined,1495814817593
903d185fccf839df,-0.3257947955761462,-0.4389773602285269,1.8912984999183118,1.9797186832486875,-0.3425766264966722,-1.84760952196283,1.9724536852845465,-0.14424442392978004,-0.3998219032618914,-1.127269431600623,0.016394583853493468,-0.22267366339690545,0.07472008689839574,-0.24012985988718397,-0.9518114116705453,0.07188502058092841,-0.5438765225004145,-0.22946396913158187,-0.9544300890583025,0.33588666537139544,-0.45627593714959075,-0.4663001302995562,-0.2861198126255355,-0.4402980411379026,undefined,1495814819079
903d185fccf839df,-0.4144997156727738,-0.3814498173426501,1.9563756026941113,1.8985954610778768,-0.4997215071827418,-1.813651544072076,1.9117156858269593,-0.5561903466306114,-0.4687357473691152,-1.0154757158950576,0.01651252840184305,0.09852319947044592,-0.5780623328877006,-0.28734733487302777,-0.9865483080681133,0.15877100070076386,-0.5563691180545176,-0.29099484987343877,-0.9673462014166985,0.25632289803314157,-0.507288790312551,-0.43674931747952694,-0.23581366663973263,-0.42083153530877254,undefined,1495814820600
903d185fccf839df,-0.4228157264512489,-0.2793091638275402,1.808995232299746,1.743108306413841,-0.48475581679745905,-1.8129341392963103,1.8694546933613625,-0.8593061807295672,-0.47682153416422474,-0.9119455034341144,0.06131308896507726,0.2189865303082063,0.4837970699643494,-0.31975150671955116,-0.9833903956790215,0.05774059077676756,-0.6557919511251689,-0.35170877979018905,-0.9788419610876069,0.2952347655564409,-0.5334367486427647,-0.43161282475141266,-0.31616464750985673,-0.4540751615192238,undefined,1495814822090
903d185fccf839df,-0.2232296044757221,-0.3339015732668254,1.4836092101468503,1.3961506519021643,-0.3915879722107992,-1.8186524213881463,1.8246007125855666,-1.1142633476651864,-0.4460737087286427,-1.1340512998300116,0.09882877393142027,0.24932816052802423,0.2749066956327986,-0.4215932507194189,-1.016022031874996,0.27192513895686,-0.5920129835788459,-0.4026193143726263,-1.008746330970271,0.5100122852933203,-0.5205633410755045,-0.4252831209923397,-0.32853335950339585,-0.4928450236171907,undefined,1495814823614
903d185fccf839df,-0.23570372415966387,-0.46656713821021295,0.998082347232091,0.9282988197975548,-0.2097059919256759,-1.8485714997354534,1.9051963731862098,-0.6220631983343903,-0.4330468538971686,-1.1821502188652075,0.13765417178948802,0.08568030517132937,-0.6085255124777184,-0.40863155866941536,-0.9844430257798183,0.4517591470832708,-0.5715297106250179,-0.4394137158039372,-0.9866923829891118,0.5637220641273394,-0.5203521678545415,-0.42266728828251315,-0.3448194023326067,-0.5347068510001577,undefined,1495814825102
903d185fccf839df,-0.2661960857312299,-0.568707806339319,0.16037351635418196,0.12183044939193174,-0.15468779467592003,-1.8941873207637303,1.9505789402681113,-0.39881493648387367,-0.3822918237827518,-1.1716461866605898,0.12200924886609323,-0.05823850177043297,-0.8696384803921569,-0.3938182037269968,-0.9981272759880473,0.5245010931050469,-0.42660078046433797,-0.5243828222640583,-0.9941369899331741,0.5261344577294316,-0.5617378247500178,-0.42511967770622794,-0.28321987609925703,-0.5462795947711334,undefined,1495814826598
903d185fccf839df,-0.31886466007424796,-0.6679134287058105,-0.06356840556042598,-0.15434581440528397,-0.1163530006192367,-1.9138274655642107,1.9058959129540405,-0.7754187657377002,-0.4243693687201003,-0.8488934842529063,0.11470617114816618,-0.051776649084461744,-0.6999150512477719,-0.45955243714473654,-1.0307588864162034,0.4901507791691376,-0.43460067880173026,-0.5610822323694444,-1.0221452241355466,0.6182171595731147,-0.5668900860217185,-0.43356064824053764,-0.31526692111704563,-0.514640710012314,undefined,1495814828093
903d185fccf839df,0.015164889849845698,-0.6315184988222845,-0.24859128676643563,-0.29714161629418023,-0.05982281198440962,-1.9137575868754728,1.8668932658352928,-0.9728226290557949,-0.5379045468361873,-0.933374487619386,0.07815628236723203,0.0015868213024148182,-0.8565828319964349,-0.4891790952264755,-1.0307588900973204,0.5972429260679368,-0.47254323451318714,-0.5854893971083298,-1.0133082523530927,0.5749321305005879,-0.584558212994278,-0.44285303420587196,-0.2891420703934826,-0.5081236871174833,undefined,1495814829617
903d185fccf839df,-0.20659730687549413,-0.7025473720509571,0.01299289182286743,-0.03925123410981609,-0.0804353509540487,-1.9153274942342506,1.947978076165305,-0.4603776064312343,-0.5038439855282119,-0.7712376242553987,0.06768779264073785,-0.009176471878908975,-0.673803754456328,-0.5391741228294273,-1.0370746927888026,0.10825586640056956,-0.650503691817016,-0.6529985762663949,-1.0440032625315812,0.25678484556735004,-0.6871570438922502,-0.4480260328606959,-0.44524663037810386,-0.4822483630075802,undefined,1495814831105
903d185fccf839df,-0.3618310723189363,-0.6996122970603501,0.5782712332470321,0.5450574031714666,-0.14926723968856212,-1.9224666121814793,1.8885523439222294,-0.8834878839291946,-0.4025078375197435,-0.6312023833675455,0.07448032836406243,0.01466400906691623,-0.7913045900178254,-0.6150925215816117,-1.057074701515111,0.14462682527909684,-0.6870508949963202,-0.6945553538899708,-1.0443041251056595,0.3212427376131638,-0.6967710354277933,-0.46053775480655906,-0.4294588922086185,-0.4426644889309573,undefined,1495814832605
903d185fccf839df,-0.3549010058278575,-0.7518566903491383,1.0287073744593072,1.080161728038983,-0.1827060426831242,-1.9435602037126483,2.003322337719975,-0.1880766591406514,-0.22179160845181367,-0.5680617424222281,0.120319338858317,0.0989102154190407,-0.9349167223707665,-0.5993533416683728,-1.0760220948650903,-0.11199036222488284,-0.7663985081515149,-0.6884947261761367,-1.0449968090337778,0.06980152237846958,-0.7467396914933364,-0.4678592174480262,-0.4581455212880435,-0.4473687775286547,undefined,1495814834094
903d185fccf839df,-0.041661655377000145,-0.738355316164354,1.1339787771559116,1.1701043126149961,-0.21341913093118148,-1.985439923844021,1.9725877989760612,-0.41110635746925006,-0.31305519370307366,-0.29012805504726163,0.19173986201510756,-0.01148463648945064,-0.7303782308377896,-0.6067600450411312,-1.0465483784204415,0.1365444433616759,-0.798983940434485,-0.6417512685278867,-1.0079626895773586,0.25943337837258373,-0.677427356531598,-0.46831680302457634,-0.4905012192775316,-0.47237202263286737,undefined,1495814835613
903d185fccf839df,0.3977048362006712,-0.6943291328492653,1.3151741017666554,1.2390931030602064,-0.12053928456526113,-1.9555045414935741,1.9403910800786646,-0.4953616660329986,-0.3104698551858456,-0.002914343362296916,0.0700877370162452,-0.23789146806061415,-0.7173225824420678,-0.6437933805940795,-0.97602197761121,0.22747176989619025,-0.758749916945294,-0.6180470609967351,-0.9693682810691091,0.25712360918627414,-0.6521151940835177,-0.3939927410774513,-0.5684492365622076,-0.4948166418162827,undefined,1495814837088
903d185fccf839df,0.820439375232212,-0.5687078355673114,1.132703009669806,1.0297169440546983,-0.052509677979170076,-1.9031339262976967,1.8480980442440278,-0.9803197980036185,-0.19752231418755103,0.028837944601679443,0.04182280862782761,-0.2687327202028726,1.3454698640819964,-0.4993632605609201,-0.9665482846173372,0.3285020667613004,-0.6691637402841042,-0.5223309495922331,-0.920222680608823,0.3693474806219459,-0.5783825417713404,-0.3409931344769662,-0.49333421447234904,-0.4552033993821517,undefined,1495814838582
903d185fccf839df,0.8148953565447586,-0.5481622521770781,1.1709836583614528,1.125753713448292,0.0032285177311918794,-1.8577417121482593,1.8845497830505602,-0.634964150083672,-0.11669296175901402,0.053831833013629524,0.0175146538290371,-0.18289125060829442,0.9407447638146168,-0.45029408383033764,-0.9454956310657644,0.4234707679752152,-0.6486625524322182,-0.47442856317904375,-0.8647589609729147,0.45701082926873565,-0.5189120905608665,-0.3612135065163874,-0.5180399342897061,-0.42604774471749135,undefined,1495814840093
903d185fccf839df,0.7234182373246509,-0.4624579747673786,1.0044624553473653,1.0109852351212738,-0.1653540560851401,-1.838041007975274,1.8477877258640347,-0.8659736023002174,-0.11215160075035675,-0.19477515160811368,-0.051254481058141524,-0.16751206497784638,-0.4866727941176471,-0.35493323118318254,-0.9054955841642123,0.3123373029264585,-0.6135943158608561,-0.4242209867289635,-0.8436076014969737,0.4932433713499986,-0.47867817498406895,-0.3547548798809226,-0.5478976536444693,-0.457711718532079,undefined,1495814841591
903d185fccf839df,0.06367535528739703,-0.45717485439828226,0.9113128768643585,0.9767209844510841,-0.5044220624931768,-1.8885528900750628,1.9504606090637044,-0.42492791694677146,-0.10253838497350591,-0.5300447752316587,0.05832965946397707,-0.008106974033473817,-0.6825075200534759,-0.4206674127978241,-0.8897060958410911,0.3103166579838406,-0.7299399417266544,-0.41288501796721844,-0.8495758814011106,0.5037451125309839,-0.47371752951622026,-0.3453567923188132,-0.576548005762169,-0.45065695832303626,undefined,1495814843079
903d185fccf839df,-0.13868272427374176,-0.5152893976682843,1.1027166285964909,1.0408491241744706,-0.6157853077235602,-1.9131449983524202,1.9123494574627193,-0.7746133771035703,-0.2842149519258768,-0.7756778337084462,0.06580344789570909,0.0023546003281603293,-0.6433405748663101,-0.39752155541337597,-0.9349693006088611,0.288090015850588,-0.5768250927017364,-0.42464529381139543,-0.8504294925972159,0.31563770291876075,-0.5146382571445414,-0.3566499069296006,-0.4901146047707129,-0.40103896247451404,undefined,1495814844598
903d185fccf839df,-0.2758981788187402,-0.5164634422785233,1.1563092826278467,1.114642990038759,-0.4666118411160103,-1.8874814398028985,1.9525670722103883,-0.47391786504777267,-0.2853198595509755,-0.5771552032765654,0.10097144864571436,0.0008578530416955558,-0.9131573083778967,-0.4928824598636293,-0.9412851106625771,-0.0008569819702907558,-0.7320539554810851,-0.5202347451021364,-0.8903113145942758,0.12064718873053985,-0.6112431421569867,-0.4290813254695885,-0.47908672716559586,-0.36662194339270227,undefined,1495814846118
903d185fccf839df,-0.3895514072940708,-0.5229205780298661,0.8098692848999693,0.809812215354677,-0.6902023230361612,-1.8449774825101184,1.8948086395533517,-0.8950348394583145,-0.26930349838933254,-0.13202758185818483,0.067005485805402,-0.016498944163641626,-0.8696384803921569,-0.5752816852146535,-1.0002325435518746,-0.15846437622817053,-0.7857223061548837,-0.604481895816935,-0.9756234295218449,0.08222806979219552,-0.6777045596835598,-0.45362632184312596,-0.49085294532167767,-0.4655726307619486,undefined,1495814847621
903d185fccf839df,-0.48934443377642445,-0.5487492525612033,0.31413450313772034,0.3080209447698457,-0.8865254205149171,-1.8977091291808794,1.9314287004468629,-0.7443314426988581,-0.23562254168723257,-0.6276963269640333,-0.008338821916566081,-0.017220149891281837,-0.8261196524064172,-0.6576808846641288,-0.9412850885758758,0.6982733642566546,-0.44771608736877916,-0.6642775490056599,-0.937952600177775,1.002947316598443,-0.47743963769700193,-0.4617059268825552,-0.6385400606417623,-0.21191610789988138,undefined,1495814849086
903d185fccf839df,-0.3909373515814671,-0.652064023756533,0.11379834590725434,0.027930236018461917,-0.8903619894612951,-1.913077449381749,1.897409532463007,-1.0053185051803708,-0.24871885326697182,-0.3348128115408494,-0.006801518078860911,0.02036635815988727,-0.8826941287878788,-0.6632358992429229,-0.965495632429839,0.8356747613238998,-0.4671399769632878,-0.6978421497317775,-0.9612449828216008,1.091534573129769,-0.48006622547857236,-0.4989981404403335,-0.6269122185189228,-0.19815251441604,undefined,1495814850585
903d185fccf839df,-0.1802631922310338,-0.6825888036588452,0.29052772190578074,0.28895176824755314,-0.543805995851316,-1.9323845124082457,1.8992714375053552,-0.9208988215893714,-0.2540428042041073,-0.24759569284737956,-0.0054504759452503534,0.0006532940893733164,-0.8826941287878788,-0.6826783919902174,-0.9718114645702565,0.6760466373292375,-0.6355827259347443,-0.70863348639477,-0.975980265530802,1.0594596113459278,-0.49366230698046043,-0.5006255909925562,-0.6596974769831259,-0.18106523937308822,undefined,1495814852076
903d185fccf839df,-0.17471913903817077,-0.5851442262867179,0.8826022632771486,0.9318518903093153,-0.1951414338043094,-1.8436125466477256,1.8647841613624052,-0.9659021441152855,-0.15620526107993435,0.12685619810414422,0.04853623065151305,0.026614408975564774,-0.852230949197861,-0.6919367323538417,-0.9465482464420936,0.6295726798553929,-0.6127152256672534,-0.7239402109861931,-0.9489515855118069,0.9946321569863481,-0.5007400341139978,-0.48588079664097794,-0.6088428738538386,-0.26160671841424576,undefined,1495814853588
903d185fccf839df,-0.23847581976691484,-0.48241654315949045,1.073367877129279,1.1477408186010432,-0.09558617001441089,-1.8313933592139826,1.8977934921488733,-0.673191204273655,-0.13157462682228793,-0.1775738059425061,0.039964079574868215,0.004808370093377034,-0.9349167223707665,-0.71878591552312,-0.9497061588311855,0.33254327185237165,-0.6832778984033931,-0.748765349182823,-0.9267367119815548,0.7918962213326803,-0.5521124789461529,-0.48594469311293575,-0.6468297716485908,-0.2730807050394659,undefined,1495814855144
903d185fccf839df,-0.2149135246864276,-0.44895660058259435,0.7460682037472248,0.9360440969556116,-0.23060651860931783,-1.808284977225813,1.9057986149397337,-0.6379375618161565,-0.14913067198279248,-0.21206544535666727,0.06895881365201263,-0.009926818102939968,-0.9305648395721926,-0.6928625702754365,-0.966548291979571,-0.0695575533126664,-0.9324176343117413,-0.7455798792937648,-0.9593418506546366,-0.05489508553383045,-0.7608060379465148,-0.48830341247365766,-0.582664419697261,-0.5297828839506217,undefined,1495814856567
903d185fccf839df,-0.05552189187538687,-0.5534453871601707,0.5942213764667434,0.6374187420395316,-0.7179942754158379,-1.8672962532129922,1.9339874934556203,-0.6474337367046958,-0.23448198802047096,-0.5502553814332506,0.04759972715353292,-0.08161371125887565,-0.8174158868092692,-0.7039725864822505,-0.9844430257798183,-0.1766498415350734,-0.966471221582992,-0.7450352469790823,-0.9568719765497449,-0.06009975977157997,-0.7640491670540122,-0.47717458934762386,-0.557280937410295,-0.5064033022112847,undefined,1495814858135
903d185fccf839df,-0.6071556676409926,-0.48065549816512626,0.2949939246549476,0.2698697185200389,-1.1057239131545158,-1.836475759969273,1.940422631435097,-0.6872937446474737,-0.3072048897129304,-0.4150130460313894,0.03389493442611087,0.0053982855601671376,-0.8174158868092692,-0.7252667485973472,-1.0107588519220767,-0.11401097890277923,-0.9647885378179226,-0.7572514953272347,-0.9659958176270789,0.04471745870438785,-0.7563346502497215,-0.4621837221357121,-0.560793223930597,-0.5217560596337917,undefined,1495814859595
903d185fccf839df,-0.7457571354842067,-0.6197781404038721,0.3938857275101763,0.3681648480418424,-1.3591737737013732,-1.8565701069341387,1.951446786410093,-0.6964409420678316,-0.32010467689022587,-0.3690922382879399,0.01609446843886229,0.05788549440420867,-0.6650999888591801,-0.7178601099784615,-1.0370746854265687,-0.0473309677088569,-0.9238859380870168,-0.7899991478249417,-0.9903237291125732,-0.04363882208760511,-0.7931695576942325,-0.4631554105869677,-0.554713096190166,-0.5165332499953625,undefined,1495814861089
903d185fccf839df,-0.7152648601761651,-0.6520640529845254,0.3989903222762947,0.36375029693275907,-1.355830924750545,-1.7959027432053791,1.916572938061922,-0.8489852882469247,-0.2958653043396218,-0.42371764023319075,0.02176162460927194,0.05080541308145307,-0.7782489416221035,-0.7039725864822505,-1.0581273426592586,-0.04733091117941383,-0.8733716680582113,-0.7488793454245756,-1.0319967344799652,-0.14166532530055972,-0.8020968627799049,-0.45632377009317426,-0.5806053572074055,-0.5002037239775219,undefined,1495814862622
903d185fccf839df,-0.6875445079483257,-0.6350405888110129,0.416216487119061,0.47112351832909316,-1.355800067593412,-1.8281743520129419,1.8878501963488932,-1.0732784077396502,-0.3228221196159286,-0.5365730705273827,0.044781140098444056,-0.07638150056275896,-0.7782489416221035,-0.7178600905522997,-1.0739168309823797,-0.21302081454596145,-0.9397889548761093,-0.7579354549441495,-1.059914009572054,-0.30119322110683683,-0.8438212474274268,-0.4562969018134972,-0.615712628772818,-0.5109273333134853,undefined,1495814864091
903d185fccf839df,-0.5447850002104643,-0.5188114438150241,0.1297489974008646,0.17538541818694522,-1.2390985467503632,-1.7974493570566272,1.8850152556448214,-1.0303141917954874,-0.2888115101567629,-0.7294720829535325,0.004893238533879198,-0.0646171732462427,-0.7260263480392157,-0.7308217567007541,-1.039179956671513,0.1244207291619368,-0.8314412645263867,-0.7420081018446586,-1.0295338559564209,0.13812442696415023,-0.7318187391898288,-0.46440774612911734,-0.6000285194506084,-0.24048555148465836,undefined,1495814865605
903d185fccf839df,-0.47132626089961965,-0.7407033761568396,-0.16628852742176878,-0.18687988789734702,-1.0703514018854428,-1.7184252567002671,1.9065717729679585,-0.7763858617955988,-0.19632575227631635,-0.7922892385124894,0.022957099911959353,-0.017369685113986334,-0.8826941287878788,-0.774335957704866,-0.8739165927935023,1.0397561554527064,-0.5211729285329122,-0.7602533127287149,-0.9562422623290805,0.6932999830020967,-0.5931523672559388,-0.4749067583856527,-0.6295553169139078,0.046198071155178405,undefined,1495814867095
903d185fccf839df,-0.56557526869452,-0.6708485329244098,-0.23264165182062307,-0.35770654588613215,-0.9985983800972821,-1.7247328371582091,1.8837950257901679,-0.9026566039020286,-0.21337858694838643,-0.8731089880525721,-0.017243797943249546,-0.046429397168877756,-0.7956564728163993,-0.8067401554529384,-0.8960218911703396,0.9367051429831745,-0.5976019634420553,-0.7402918742354287,-0.9761411926152769,0.8133616635334108,-0.5707680378887647,-0.48600801101065255,-0.6498590211980376,0.058789623674244416,undefined,1495814868610
903d185fccf839df,-0.4394479205352476,-0.518224458044895,-0.19691304637508614,-0.2695679592494534,-0.9250453623416535,-1.7874173220179224,1.8988270001962382,-0.8597922968529178,-0.22597570996249194,-0.8922059953976829,-0.005127049097996326,0.040445577914396735,-0.8087121212121212,-0.8058143045805691,-0.9307587581189725,0.8255716779344179,-0.6404489902082907,-0.7778905608702515,-0.9694242540513256,1.327561952603965,-0.4806346174661187,-0.47414499270778643,-0.6029474219177082,-0.004265936289819789,undefined,1495814870115
903d185fccf839df,-0.3812352584939568,-0.48241657238748276,-0.0737765785448651,-0.07128081884505019,-0.9877058249790348,-1.8313910310824142,1.884749650208841,-1.001261660908408,-0.30079039463377377,-0.8166213189816807,-0.06539496853570242,-0.04468738203423498,-0.7477857620320856,-0.8206276336214386,-0.9191798196479737,0.6396757349801533,-0.6941363005363388,-0.769613402625717,-0.9594747893761826,1.4473002643673645,-0.4476997671023117,-0.4715756034007568,-0.6127707727869138,-0.06736742582300005,undefined,1495814871596
903d185fccf839df,-0.43251785404416887,-0.46128391554314346,0.013630775565920164,-0.02254892555226809,-1.050757149621315,-1.770041198869766,1.911336985224259,-0.761735003740494,-0.32216039990180945,-0.8168131375826406,-0.04497595836429488,0.03873150648551328,-0.847879066399287,-0.8122951376547963,-0.9991799060888441,0.783138897286923,-0.6566269359200058,-0.7982889713588711,-0.9805421871766571,1.1557768911126505,-0.5260991424752826,-0.4614175015584623,-0.6053305398859756,-0.06301336376576487,undefined,1495814873087
903d185fccf839df,-0.5808213804694835,-0.4295851348725809,-0.04378994333460047,-0.06558405975336949,-1.1792563602722643,-1.74655082135087,1.930008605528972,-0.6442553688739999,-0.2980069009408289,-0.6646803754611985,-0.045182006294711974,-0.01722788255256289,-0.6433405748663101,-0.8048884731343616,-1.0707589369988724,1.1751367803860868,-0.5199698433479457,-0.7938559102863969,-1.029673793629815,1.1900230335697948,-0.5233701024492886,-0.46969094647106213,-0.6194027143807477,-0.3513014084710693,undefined,1495814874585
903d185fccf839df,-0.6917025823483827,-0.5540324313862843,-0.05080818932987708,-0.07555407768884842,-1.2732882044584286,-1.7538879238555825,1.9549023408286712,-0.5344411752217963,-0.33678258050131776,-0.6603880740961974,-0.0000914746577301726,0.06202162736749217,-0.6172292780748664,-0.802110978795739,-1.0012851442037363,1.5731965700483828,-0.3736918314420694,-0.810517885699575,-1.000182236004835,1.4724613195955625,-0.4612098272544081,-0.46455572382536525,-0.5955656494280648,-0.2353446389065648,undefined,1495814876090
903d185fccf839df,-0.7083347419269717,-0.6444328287809551,-0.01826951087350267,-0.08566565035503619,-1.2295842753113426,-1.8157501874263267,1.946523782803408,-0.6554594196321564,-0.332316772916164,-0.6376778217048116,-0.0147631496999325,0.03859426980669257,-0.8000083556149733,-0.7993334650309546,-0.9718114424835551,1.7328245527194375,-0.2770866046303476,-0.8050398899612242,-1.001224760672533,1.1815384898731074,-0.5214654063864779,-0.45408707563568435,-0.6146736965054301,-0.21280607967341128,undefined,1495814877584
903d185fccf839df,-0.5142927766605372,-0.5352479222184077,0.055739234989782116,-0.07557001708349032,-1.117573036758992,-1.7659324196241615,1.904888697703703,-0.8225700816699069,-0.27068514612060124,-0.7676131518659716,-0.037208755296961556,-0.04659031155291771,-0.7564895276292335,-0.8076659739483715,-0.9086534744666027,1.6196705275222274,-0.33119395905425575,-0.8083710188449057,-0.9711874513832122,1.158717993573625,-0.5237123347788173,-0.45503379257644466,-0.6175242615394827,-0.2412383381204953,undefined,1495814879098
903d185fccf839df,-0.2218436256829161,-0.38673292309775026,0.2764917381891264,0.2027434595597942,-0.8753860146312998,-1.7569019600934506,1.9480096359019126,-0.451272735428828,-0.30568068603238446,-0.6679812624345105,-0.03236568376105109,0.0639213354582735,-0.6825075200534759,-0.7928526319567274,-0.8854955607134363,1.520660875599735,-0.45453186500790155,-0.7869910014385003,-0.9104481362851187,1.4781895413419677,-0.43153232486046844,-0.446964534551869,-0.6094906382910569,-0.35645452688379375,undefined,1495814880628
903d185fccf839df,-0.04859175637348864,-0.3656003831653803,0.31860019761298836,0.2159235006933578,-0.7142399980233248,-1.7499119135617198,1.929277527498731,-0.504816950253542,-0.38316592000241306,-0.6287676363673335,-0.02932116410419209,0.009652979885192444,-0.7434338792335116,-0.7835942851177158,-0.8791797506597202,0.9973233324081293,-0.5823637149466262,-0.7695310750998241,-0.9109728975718832,1.223422262765926,-0.4841754803530892,-0.45047283295929763,-0.6031338903603511,-0.34391794420530475,undefined,1495814882113
903d185fccf839df,-0.10126039972732617,-0.38144984657064246,0.3562434708354812,0.4145515589900128,-0.683681191535882,-1.7370545128322428,1.8744697364229483,-0.8490444942053148,-0.43707434696262376,-0.49227337788403724,0.028067100909747653,0.04073973411215011,-0.9088054255793226,-0.7956301133445755,-0.9728640799465857,-0.0008569819702907558,-0.8105923412844299,-0.7923803362089809,-0.9881617143375826,0.33892015334898307,-0.713588559915846,-0.4382677665716716,-0.5863501796259326,-0.5177449280933707,undefined,1495814883603
903d185fccf839df,-0.2412478808687561,-0.4143226864654401,0.13740563541309278,0.28187287767487135,-0.7376502450650309,-1.7579151793702184,1.903607987083234,-0.6985505658913624,-0.37970045022058835,-0.6241654277312074,-0.03348168890179537,-0.03896309604841364,-0.9392686051693405,-0.7548934390560225,-0.9697061822819615,-0.055413349626277836,-0.8397818852110651,-0.7707596655475949,-0.9867973362778013,0.5494323015701962,-0.661212105544519,-0.459019457913102,-0.5480141296661719,-0.583724977672938,undefined,1495814885094
903d185fccf839df,-0.5517151012069528,-0.5640116278983632,0.014268659308972897,0.03336854162805597,-0.9727092810795682,-1.7932474096145252,1.888015871348298,-0.9497728157304214,-0.3079705398029652,-0.6721696135997376,-0.02122536657554049,0.04892761732594337,-0.9175091911764707,-0.7521159317666254,-1.0076009837063875,0.009246101419191178,-0.9017478060201827,-0.7769849491547879,-1.004961057478816,0.7796852560458102,-0.6207420576739466,-0.45219868153492637,-0.5534302578052421,-0.5346652112122846,undefined,1495814886592
903d185fccf839df,-0.7901095955325206,-0.5334868187680588,0.16420183536029606,0.1861857478607289,-0.9992258062242659,-1.7969578865564604,1.8771311027657673,-1.0346590182215463,-0.347030362179811,-0.697253981488961,0.025662436525537482,0.013478431362390953,-0.8130640040106952,-0.7706326254446486,-1.0802326373549789,0.06784378722513563,-0.8722855578522304,-0.8059771654593783,-1.0562546775324886,0.8559691544905429,-0.6241992759923868,-0.4577330869982527,-0.5517157979023066,-0.5471065823715068,undefined,1495814888120
903d185fccf839df,-0.7208088271055038,-0.37792778580990644,0.2318307272452558,0.23772870774041172,-1.1068964794960885,-1.7832829216238473,1.946579016532558,-0.5602479483154815,-0.42767198419552455,-0.5479007278021399,-0.03496069349651892,0.020232234260913234,-0.7782489416221035,-0.7484125865556335,-1.130758992626733,0.1769565225371098,-0.8175093103107771,-0.8100302491748325,-1.0881531378665974,0.7977322340011593,-0.646137584700301,-0.47072914075125555,-0.5383351259328105,-0.5298591601849735,undefined,1495814889589
903d185fccf839df,-0.6598242419840107,-0.20886732021098517,0.2873380490535677,0.39998064764626307,-1.1856129191075342,-1.7588701655794474,1.891942167395761,-0.8732620340279822,-0.49636658604430284,-0.45471544684062176,-0.04101689928885738,-0.02584467246666051,-0.7390819964349377,-0.7502642753495976,-1.1286537324251393,0.31839906816598307,-0.7830315582900368,-0.8265212339017278,-1.0856342857858328,0.6934847602818347,-0.6758128450052479,-0.4666347782882789,-0.5061909152543148,-0.5009221928624451,undefined,1495814891105
903d185fccf839df,-0.5738913312311097,-0.30278969068241485,0.4040939004946154,0.4427270076645926,-1.2578185163826423,-1.7276793232787961,1.8706854455724358,-0.9821467761213014,-0.4444129794057569,-0.6011714843267827,-0.07444912787868654,0.02694426961172464,-0.6999150512477719,-0.7197117534447147,-1.0854958062645474,0.39114098592303764,-0.7505589735065247,-0.8060848238575041,-1.074656289685487,0.5816458518266564,-0.6896485937022556,-0.46160709483484713,-0.5132000180558971,-0.4945893995208476,undefined,1495814892627
903d185fccf839df,-0.3798492279430362,-0.4207799099007601,0.42833856546960775,0.3302770993485734,-1.0877650865594628,-1.7900097664520624,1.8631352656867641,-1.0788688998310787,-0.419061186230163,-0.8985798424806496,-0.02994227174253615,0.057180242032298684,-0.7608414104278075,-0.7067500743454858,-1.0928642353757096,0.9872202490186474,-0.5717492316680425,-0.7809810342510658,-1.072718173433554,0.8936645517297505,-0.6010558464317917,-0.4615238817779032,-0.450368997419215,-0.49938246945743214,undefined,1495814894108
903d185fccf839df,-0.5156787554533432,-0.47419830395779866,0.3383786598388139,0.2805639791782903,-0.9377481969838495,-1.8370557397113705,1.8585778084278521,-1.156289681634712,-0.32851981320159307,-1.0701124259069101,-0.027118622895369832,0.06311406345273078,-0.7608414104278075,-0.7178600840769124,-1.1002326644868718,0.9629730467369414,-0.5629991093752729,-0.7783401963168068,-1.0845987588649215,0.9262014665942715,-0.5951644918832761,-0.46254665806701944,-0.4593033856681045,-0.49286227005681343,undefined,1495814895602
903d185fccf839df,-0.5960675957606762,-0.39729930997590457,0.31222034363466333,0.3066400662108523,-0.9488670353463986,-1.8406963415697521,1.9071213992730558,-0.8606928797347249,-0.3204501267377,-0.9519277108279949,0.03808939318038843,0.04649510701837123,-0.7564895276292335,-0.7345250954363588,-1.092864228013476,0.9528698785532949,-0.5875356763270873,-0.7880359329374038,-1.0868307416508056,0.8823620924894677,-0.6063258636652923,-0.4524463052554548,-0.4945916551804542,-0.48583650896740666,undefined,1495814897087
903d185fccf839df,-0.7748634492521472,-0.2628727584941375,0.5157461737173424,0.5427773477527718,-1.025536622371482,-1.744093472672673,1.8855832984305776,-0.8898095170903405,-0.2842557518068896,-0.6176228343686647,0.012872087380451556,-0.058022404284758675,-0.7738970588235294,-0.7447092737215779,-1.0886536965669378,0.8316334149092209,-0.6607994592503226,-0.7729065307966312,-1.0873345122235554,0.9110647949225066,-0.593923617572334,-0.4391705801619209,-0.5423755680214906,-0.50250482474085,undefined,1495814898588
903d185fccf839df,-0.7221949439199487,-0.3955382065255557,0.420682181594329,0.380697965318367,-0.9874692594745896,-1.668106701637224,1.8883577437035286,-0.7728532431428009,-0.2821841244461715,-0.5598335990688973,-0.00743230164498584,0.009226798962239303,-0.8261196524064172,-0.79933345208018,-1.0854958025834305,0.5649132288099239,-0.666841671938546,-0.7981053137111205,-1.0813592353372639,0.8177040192527719,-0.6195775908383566,-0.4358277789969504,-0.56334607353291,-0.5117352020300799,undefined,1495814900099
903d185fccf839df,-0.6598242074786009,-0.30396380836263465,0.23821108949747968,0.2167704013571117,-0.859309475759632,-1.684301901347726,1.9047729936839555,-0.6633730312432118,-0.34369650900569454,-0.5404998987858516,0.0035781293289131847,-0.06272835957114488,-0.7826008244206774,-0.8187759836797981,-1.097074755778897,0.15068873184222906,-0.8242356837316696,-0.8342347580882615,-1.0920853462460494,0.25030210152877963,-0.7666221870671052,-0.44779827946458123,-0.6365203131288147,-0.551224622247544,undefined,1495814901610
903d185fccf839df,-0.5558730720907805,-0.27226494000809504,-0.0016809756368396718,0.05399830816750043,-0.8116764124123899,-1.7053093114305746,1.9246885157408211,-0.552354761864433,-0.30620843866649017,-0.6297597161696216,0.015865310842387702,-0.03103719390896446,-0.9349167223707665,-0.8234051473862231,-1.1076010862358001,-0.1301758840612288,-0.8873211305524072,-0.8402573880791279,-1.0948071053406385,0.09744173257382013,-0.8060064000120442,-0.4506886071317012,-0.6232884768644326,-0.5638698435865169,undefined,1495814903097
903d185fccf839df,-0.4200436998548173,-0.2963325549310719,-0.06867249205264554,-0.02956880609807965,-0.8675997424072923,-1.7152924302408252,1.9405120562756009,-0.4625288307896519,-0.3532041819478957,-0.7875091203565967,-0.0032031335391105183,-0.031665729919235004,-0.9001016599821747,-0.7724842753862892,-1.1002326534435212,0.17897719574444926,-0.8041298828628699,-0.8280538052639835,-1.0931698517117203,0.2686262467499669,-0.7590953210055374,-0.44392582466537317,-0.5995631953612329,-0.5805937450412405,undefined,1495814904619
903d185fccf839df,-0.586365502673166,-0.27402598500245917,0.27585334617217483,0.1519542134809682,-1.0277583324356618,-1.7173747695045019,1.9203282827427035,-0.6190020905218624,-0.31456557861648704,-1.0433242378573095,0.0033321608749579427,-0.00225188727392523,-0.9262129567736186,-0.7382284341719634,-1.0644431490318578,0.4355943832484289,-0.6987600171500562,-0.7809493708836254,-1.0773780498260934,0.5065168299246176,-0.6849553015683509,-0.44692500032780025,-0.5749830077281514,-0.5821562660142374,undefined,1495814906106
903d185fccf839df,-0.769319430564694,-0.2851792407387732,0.4589630844229251,0.458214884365501,-1.1493044121846838,-1.748358307682272,1.9221665179825969,-0.6674364710818648,-0.38874817381565424,-0.9966026237671914,-0.01699358623791735,0.050440128428944415,-0.9001016599821747,-0.7261925800435547,-1.0760220948650903,0.3749761372940312,-0.7308082564896324,-0.7828555873236236,-1.0647697963571705,0.6169390817756819,-0.6573591872397585,-0.4553579962955585,-0.58198028275599,-0.6055405853596494,undefined,1495814907606
903d185fccf839df,-0.722194909414539,-0.3016157775981414,0.39771353824239153,0.33151206385364085,-1.2542699520286635,-1.752150309380828,1.9436809689255332,-0.5476890942119053,-0.3731812603397856,-0.8869899817614062,-0.007288645537223401,0.10837368394583666,-0.4300983177361854,-0.7363767583287738,-1.068653662072811,0.8073862408922365,-0.6672895501825904,-0.7815636667636057,-1.0645948757916346,1.0690990303737011,-0.5482519160724862,-0.46522274647897194,-0.5808989361717368,-0.606650284763541,undefined,1495814909095
903d185fccf839df,-0.5115206292951716,-0.43075916486882365,-0.006785062129059233,-0.06972391626090323,-1.230941991449496,-1.8051032348115446,1.9524066725307372,-0.5539580155854875,-0.3255945637717589,-0.6469855253089585,-0.03269581427591511,0.04472215216094891,-0.41704266934046347,-0.6641617047875814,-1.0612852292805321,1.108456797456886,-0.5924810333583383,-0.7586004125630591,-1.0316189059769285,1.2726048836955735,-0.4806872144346565,-0.4581147910865805,-0.6036150189510057,-0.6308882979751015,undefined,1495814910589
903d185fccf839df,-0.3798492797011508,-0.4718502439653131,0.06275798925895758,-0.024122064241678436,-1.0558999986766888,-1.7797913942964263,1.9170831178388261,-0.7092986520801989,-0.28447363953955707,-0.6916586089304254,-0.0219602892911504,-0.02903979214468655,-0.4779690285204991,-0.6743459024989623,-1.0160220539616973,1.318600027487021,-0.517121502296267,-0.7565675380467929,-0.9895400856215085,1.2923148997363867,-0.4675098846441861,-0.4724490837124374,-0.6414518571512817,-0.5572128465920657,undefined,1495814912095
903d185fccf839df,-0.5004325056567407,-0.524681681480215,0.17696205159084497,0.09603703180382915,-1.0188509168758468,-1.7994781243379143,1.9241651749000985,-0.6906441629137297,-0.250459744033942,-0.6986531591131866,-0.03605038294586876,-0.10078363421137736,-0.2168560606060606,-0.7373025962503686,-0.9381271835490177,2.001565553349682,-0.3282397364130644,-0.7992579114923621,-0.9367421506604636,1.960499646191128,-0.3122058387567935,-0.47373468965065285,-0.6501123815375005,-0.36201037427772986,undefined,1495814913606
903d185fccf839df,-0.7693193960592842,-0.6385626495717488,-0.15352780291732104,-0.15345557049301992,-1.2143203016184407,-1.8456180228678256,1.8837739884099804,-1.0827768043479642,-0.24997450404882696,-0.7556169517654596,0.001356282922754353,-0.11553170619502791,-0.5780623328877006,-0.7493384374280028,-0.9297061353804094,1.6075467426606844,-0.5201478658362244,-0.8012907863906583,-0.9556825177647993,2.333511589207003,-0.22214769082431474,-0.47719720531135545,-0.7513570596638256,-0.4451805667197575,undefined,1495814915126
903d185fccf839df,-0.8122858428093823,-0.8410829992915815,-0.4623255439705033,-0.5260224321902921,-1.340114380836067,-1.94502762256838,1.9307791468477558,-0.9451258760852788,-0.2823589103612512,-0.719015980887961,0.05413021442309016,-0.03800582371113417,-0.8696384803921569,-0.8085917924438044,-0.9707588197449921,1.7570720376483586,-0.44828204655641674,-0.8385538271766793,-0.9881897014098117,2.180605027123523,-0.28408637578299534,-0.45504012704339697,-0.6832976419884405,-0.3109861372089196,undefined,1495814916660
903d185fccf839df,-0.8538663107666744,-0.8545844027043581,-0.5790816495485005,-0.6470039715815764,-1.3950091478888837,-1.9376881894934581,1.9331775317966882,-0.9457724989533012,-0.2958641983040368,-0.722063479170976,0.08889897745074615,-0.006193006459582825,-0.8957497771836007,-0.8613643597130898,-1.0097062255023967,2.175337852766011,-0.015413617636439022,-0.9047267558499944,-1.0374962280186624,1.4367523267057443,-0.49965518139562065,-0.4543254911573363,-0.5873570024671441,-0.0880166980775855,undefined,1495814918139
903d185fccf839df,-0.8413921565773229,-0.9279613651535086,-0.7219960713306481,-0.7337605501281386,-1.405325701908439,-1.9348372018396747,1.9336245931478988,-0.9483883044844799,-0.28801263061822063,-0.7106515876511299,0.08013858954873025,-0.012720896155989675,-0.8870460115864528,-0.9122851960983936,-1.1181274314171712,2.413769320580594,0.05954443670136703,-0.9618309091440643,-1.0968291844853333,1.0775219920950496,-0.6159094078337481,-0.45014777795779326,-0.4703910161250022,-0.029503415257054938,undefined,1495814919587
903d185fccf839df,-0.9799936244205371,-0.9408756658841867,-0.651176744182627,-0.7053289445929702,-1.5667185690457226,-1.9121387663380143,1.930929040931335,-0.9759032848074018,-0.30288629315387655,-0.7275921276136891,0.09210692299185413,-0.0027485981905631114,-0.8348234180035651,-0.9854260778480999,-1.2076012034896804,-0.13825829424337127,-0.8332072227802233,-1.0258886340090243,-1.209204964097987,-0.0968558514346948,-0.9417748389863927,-0.4772689539691568,-0.5999758002059989,-0.5104000649033034,undefined,1495814921104
903d185fccf839df,-0.9592034076945959,-1.030102062510607,-0.7009418416187172,-0.7573839520695008,-1.5812728297810061,-1.9344808292237687,1.9195945764802815,-1.0731257981428852,-0.30078310967389094,-0.7333006969229724,0.09618784576624662,0.1127663356355144,-0.669451871657754,-1.0409761070790715,-1.220232805191528,-0.7626260848368246,-1.1992982174171345,-1.0663624766249131,-1.2168384848684317,-0.3480506915826353,-1.020702518265766,-0.47612100538685215,-0.6340622042411409,-0.5087042226455499,undefined,1495814922594
903d185fccf839df,-0.8857446079992842,-1.0001642099224393,-0.6613849171670662,-0.7152521700297277,-1.7004120570751962,-1.9078017229569466,1.9382951261943775,-0.9345050106888914,-0.31590790516379136,-0.7473072764233347,0.10520782528449024,0.14313753015294625,-0.16028158422459893,-1.0733802886386756,-1.240232832323421,-0.974789931544856,-1.27508648477673,-1.0988124800776995,-1.2363805777387469,-0.9480049232223986,-1.1883657288629563,-0.4770563623724425,-0.6688731938789916,-0.5310016113705441,undefined,1495814924101
903d185fccf839df,-0.96197540841197,-1.0072084191278883,-0.7545347497870226,-0.7870481023812768,-1.711664612005898,-1.8901018338409912,1.9565354576835308,-0.7945867850741108,-0.30967496377976755,-0.7160722464985032,0.09636771399943989,0.15999295137007868,0.21833221925133692,-1.0798611346636775,-1.2318117620681113,-0.9060892330112335,-1.2505813920850009,-1.1049934329961006,-1.2333929395433425,-0.7713385599768466,-1.146496459686207,-0.4772291910164533,-0.6718237861469611,-0.5201785869148542,undefined,1495814925581
903d185fccf839df,-0.8704984789716158,-0.9537900542988419,-0.8151459039506046,-0.8724160011411466,-1.5965882330133752,-1.8604925453131127,1.9679304060429654,-0.6625771075637803,-0.2612200135756636,-0.6782655414330641,0.06895983204045006,0.1584009453866134,-0.5388953877005348,-1.0622702853826362,-1.2307591319673146,-0.5646065478078874,-1.1086613718724065,-1.0912889425792445,-1.217797047903483,-0.2851172467533754,-1.0255294810524516,-0.46886686531802135,-0.5647936357756297,-0.39375607485130704,undefined,1495814927118
903d185fccf839df,-0.8940607136676361,-0.832277803547753,-0.6543666711717896,-0.7200160861273859,-1.495664973711932,-1.90481563834217,1.9455796870262858,-0.8318964419775043,-0.22757576821789613,-0.6200374952877866,0.08928942514924096,0.030127286965202407,-0.8304715352049912,-0.9909810891892005,-1.19286435262959,0.6578612002870562,-0.5067232525049173,-1.034919411316492,-1.1851429311138364,0.21072809331239664,-0.8863106828721047,-0.4591594283436086,-0.4930746855410028,-0.28398468301663077,undefined,1495814928622
903d185fccf839df,-0.8261460448023593,-0.7606618860929668,-0.38831628983331967,-0.47635324305897414,-1.4750010103701716,-1.964730658623992,1.9329539854082554,-0.9585439083494075,-0.21720296411553083,-0.6493984528196378,0.08415388784984028,-0.006417429381994758,-0.9262129567736186,-0.9132110307822948,-1.1791801245080622,0.5972429684650191,-0.5292121008403704,-1.002292085086392,-1.1725626648761858,0.30184069372569244,-0.8460533743094071,-0.4555491551297844,-0.5397625649824591,-0.30717583014925615,undefined,1495814930103
903d185fccf839df,-0.9896957175080473,-0.8980235125653407,-0.5376110738676912,-0.6038774489830705,-1.6388521641229576,-2.006074655155042,1.9397862179493732,-0.9797059239962653,-0.2691861091103535,-0.6629042389602395,0.10085153356277,-0.017055539522003567,-1.013250612745098,-0.9048785186271843,-1.1686538014133927,0.6699848579573522,-0.5164855880770919,-0.9995942509580162,-1.1546298385686768,0.31817844344222773,-0.8383494017001993,-0.4557024841157799,-0.5292327319068857,-0.32337947757717755,undefined,1495814931598
903d185fccf839df,-0.5184507820497747,-0.8234725493479399,-0.5459050873490733,-0.6009650783918734,-1.3950605726971181,-1.9677773034285333,1.9447118372179772,-0.8738464196288037,-0.2507468235656453,-0.6820358074556049,0.06849266542158092,-0.021621146098356584,-1.013250612745098,-0.8696968362535702,-1.1181274277360542,0.5346040634356427,-0.6019830357071261,-0.9668339331487676,-1.1075482982468037,0.33148270064437707,-0.8096403189803819,-0.4608496025087399,-0.5581750683969207,-0.3786126709157686,undefined,1495814933098
903d185fccf839df,-0.5683472607855418,-0.6186041396356217,-0.6422443386842934,-0.7475579691075933,-1.4425907768233899,-1.8180631217816539,1.9269895827725323,-0.8286321904034665,-0.3542331128406302,-0.6304225370064392,0.048943550493658075,0.02844661251937476,-1.030658143939394,-0.8798810113010956,-1.1076010862358001,0.0718849357867638,-0.8554268871683817,-0.9542630398660946,-1.118785176496396,0.02557718545471991,-0.881475499473923,-0.45904431811887625,-0.5321503177819129,-0.37006044870177024,undefined,1495814934599
903d185fccf839df,-0.697246661420303,-0.690807042860537,-0.8381142931655926,-0.9072036139485404,-1.5748854133384866,-1.617019493001452,1.8871927465305036,-0.834759184778892,-0.5062397322772009,-0.5805562949784735,0.04307548871062548,0.0008019957382919279,-0.8261196524064172,-0.9567252155979384,-1.1928643471079146,-0.6373483949031382,-0.9798657097454273,-1.0530442950636845,-1.1867521976644084,-0.799317535433523,-1.1250967616756675,-0.4490546052386064,-0.6140801652278635,-0.47274669874468117,undefined,1495814936099
903d185fccf839df,-1.3167951923147097,-1.102891922277659,-0.9657164554710816,-1.0062251877895323,-1.9618127636633709,-1.492798837969531,1.8419837642850734,-0.9991472694986094,-0.2934418769895365,-0.6626125420105986,0.08577920788180653,-0.05920474225640745,-0.8174158868092692,-1.0409761038413778,-1.2339170277913802,-0.8798213504560077,-1.0712125609362433,-1.115316130686413,-1.2130672034021766,-0.9680075042879187,-1.1979938476271441,-0.45034943605888067,-0.6137538876696463,-0.464371873082927,undefined,1495814937599
903d185fccf839df,-1.318181214239278,-1.1140452072419653,-0.9797529474616349,-1.022049325807451,-1.9734047443037452,-1.4845906004535372,1.8449843590381148,-0.9626785715529771,-0.2949296707141397,-0.6640766566556323,0.0820181776405599,-0.02966512916882401,-0.7390819964349377,-1.1011553032541614,-1.2739170746929325,-0.9626662774076502,-1.150482824769834,-1.1210727767050923,-1.2311539594939191,-1.038640172984618,-1.218754890549989,-0.4487704171726275,-0.619285772211233,-0.47285161076413695,undefined,1495814939155
903d185fccf839df,-1.3195672275374937,-1.0735411723715897,-0.9555082824866425,-1.0164195737405,-1.973085887585524,-1.5041585407368974,1.848434652802244,-0.9777176076388567,-0.29661159273739424,-0.6625473735287657,0.08085113182936043,-0.04580292057603319,-0.852230949197861,-1.151150336523077,-1.317075028461901,-1.1768507125288565,-1.3625781946005544,-1.159292091842446,-1.279669845861999,-1.2002468587511337,-1.2810155292208556,-0.4638183047330238,-0.6506992729341459,-0.5142648901127095,undefined,1495814940597
903d185fccf839df,-1.2211601798479461,-0.900958529099963,-0.9299878500255447,-0.9937049343005189,-1.8524140880457198,-1.5498582147475928,1.8656414636737704,-0.9346212046028306,-0.3082065203991863,-0.67752502212023,0.07350162013051141,-0.060291048904450605,-0.9784355503565063,-1.149298669583545,-1.3128644933342462,-1.1425003738613158,-1.3184362848664677,-1.1606663410301532,-1.278249493400843,-1.1252102341856156,-1.2664166652782087,-0.4639034092384927,-0.638704763085701,-0.5057856946645406,undefined,1495814942090
903d185fccf839df,-1.1532454592245547,-0.8228855343498185,-0.847684582406979,-0.9216524212710274,-1.804883881766888,-1.6135862015603002,1.8905562604466588,-0.8746414730551075,-0.3007525867022982,-0.6743789880997589,0.06407987517120835,0.03178088363322729,-0.9218610739750446,-1.1122653178421287,-1.2823381375860083,-1.043490580615216,-1.222792304688302,-1.1263987827530288,-1.2548311675801163,-1.0157272870490561,-1.2222657644611665,-0.45343242436435904,-0.6276033241969375,-0.48549293130446086,undefined,1495814943578
903d185fccf839df,-1.2668986531944757,-0.9731615492368477,-0.8004715282169986,-0.880275044102443,-1.7822450634674483,-1.7147473902326993,1.9780209844546937,-0.45925793657552255,-0.2817039306735078,-0.6801413716042635,0.06808272903531537,-0.0773683489670522,-0.6041736296791445,-1.109487815409272,-1.2844434033092773,-1.0273257178538486,-1.2143420516502357,-1.1270764078649262,-1.2536137225487454,-1.0352987109689649,-1.2259502403255014,-0.45355838830761624,-0.6251705860262693,-0.4845677076285482,undefined,1495814945090
903d185fccf839df,-1.329269320625004,-1.1334168190919405,-0.8330102066733731,-0.8781408719778514,-1.8199318584126567,-1.766377303844531,1.9886822234091412,-0.47206766590661237,-0.28311346648958385,-0.6687787233354919,0.08961387282716314,-0.3836276819844297,-0.08629957664884134,-1.1363370018162438,-1.303390802180932,-1.1465415913182027,-1.268080905883139,-1.1583421507891372,-1.2697273779671474,-1.0890238872926064,-1.2569035317256,-0.45890214621734904,-0.6309950777067947,-0.4831874384769288,undefined,1495814946588
903d185fccf839df,-1.2738287283119067,-1.1334168190919405,-0.8419426121717067,-0.8887130299600863,-1.9317682424839702,-1.7678703475146225,1.8933754202349047,-1.1103626022922095,-0.2839650290086405,-0.662853171591705,0.08938527872661534,-0.7094403135288755,2.189735127005348,-1.140040334076461,-1.3181276622438147,-1.1808919299857434,-1.307077319710752,-1.1599760501859278,-1.2774168731267326,-1.1151704476065514,-1.2656270118172974,-0.45848920277118993,-0.6314470384355024,-0.4826566824076472,undefined,1495814948101
903d185fccf839df,-1.3195672189111414,-1.0782373508125453,-0.8336485986903246,-0.8903513507695515,-1.987989862660282,-1.739882208920621,1.81988811473017,-1.5596045823367803,-0.28226143797771963,-0.6682259153088758,0.09021135615370503,-0.8067081118185602,3.9130807152406417,-1.1668895140080457,-1.3286539890196012,-1.2273659104246744,-1.3798944229336239,-1.1938319666810886,-1.3021366057766384,-1.2711413012627415,-1.3192827768196467,-0.47375600934373524,-0.6701490710891023,-0.52540477486788,undefined,1495814949638
903d185fccf839df,-1.0049418853543017,-1.0389072874824279,-0.8017472957031041,-0.8474854880109354,-1.6483150029056994,-1.733674787338716,1.8150177145254107,-1.528280105565136,-0.36120450319261693,-0.5859189871200273,0.07455175455933177,-0.5758961479310616,1.9721409870766489,-1.1585570067094757,-1.3181276594829772,-1.0071196500014101,-1.3346436395558507,-1.1708687130951119,-1.2493246769369235,-0.8373670925158199,-1.1980441241559987,-0.45375874741343764,-0.593409908579757,-0.36739191354260325,undefined,1495814951101
903d185fccf839df,-0.38677931168681984,-0.8657376876686644,-0.6741456416715139,-0.7730177269856098,-1.3574560613657065,-1.6686843542425993,1.8774203748616376,-0.9259799349302638,-0.3167399356500806,-0.5876707685094678,-0.032320951550708,-0.29894060239043746,-0.6999150512477719,-1.115042813799598,-1.1897064494432903,0.2375747649584174,-0.621487432048813,-1.1154554554583889,-1.2054126917586734,-0.3367174343071635,-1.0464566785887057,-0.4368810556428895,-0.5236351985681033,-0.30264178237666817,undefined,1495814952599
903d185fccf839df,-0.5032046012639917,-0.4612840032271205,-0.4738099927149467,-0.5077554900228963,-1.1084187635100036,-1.6845651064226639,1.9244044854440077,-0.5628104883466138,-0.3519025261646081,-0.6135993495821938,-0.05934281853374441,0.018873731469395392,-0.8696384803921569,-0.9993135786804556,-1.0876010554227904,0.8174891829581108,-0.40451400514426616,-1.0439945189639415,-1.1551336088294564,0.11231663308275176,-0.9019590712477153,-0.4200753143391989,-0.4923920301938156,-0.31186338486114384,undefined,1495814954085
903d185fccf839df,-0.751301292193299,-0.1425345377392914,-0.25305799778950133,-0.2896609635481106,-1.1799352158246856,-1.6933486666402255,1.9294274090120491,-0.5132594855226527,-0.30453785757933083,-0.6275867044570482,-0.07852690221049183,0.04649769143810725,-0.7129706996434938,-0.9261727034061364,-1.0528641774308067,0.8659838136392949,-0.5835033492835643,-0.9702727216541781,-1.1046796059525268,0.656990441585503,-0.7354758550437266,-0.4118092557142278,-0.5280591035257653,-0.3910841592726649,undefined,1495814955599
903d185fccf839df,-0.7166508562216759,-0.1378383592983356,-0.0648446813204303,0.025728022628234332,-1.258085945367867,-1.7503335038926584,1.9160732544533938,-0.7203698459275328,-0.3645812085691553,-0.6634418976791954,-0.000017572421747765137,0.016635761995005497,-0.8565828319964349,-0.8974718573444432,-1.072864200881583,0.40124404104779804,-0.7590687255571442,-0.9276266794178473,-1.068757978807676,0.9493145301935902,-0.6410308291213732,-0.43366210944189243,-0.6148370459586715,-0.49322725767049475,undefined,1495814957090
903d185fccf839df,-0.7194228483126978,-0.1536877934756054,0.13740512713919395,0.22461404097322343,-1.0988427877513212,-1.7294565326720035,1.8673718774954147,-0.9831080511219772,-0.3740611463866733,-0.7393176953189128,-0.0007884918204989214,-0.014920137566288317,-0.9044535427807487,-0.8178501328074288,-1.0812852711368925,0.39518210621994426,-0.7591456778809614,-0.8836697170873097,-1.076104630821542,1.1288450032690163,-0.5817217229726354,-0.43799090407686114,-0.6444439815453472,-0.49193029100390534,undefined,1495814958591
903d185fccf839df,-0.7346690636038905,-0.2523063716159832,0.3849538302857415,0.4605487889509159,-1.0406771719970414,-1.7198228002128606,1.901101777573488,-0.7437426013546514,-0.3387629118383264,-0.8244579170374183,-0.016347458953032454,0.02209043478921759,-0.9305648395721926,-0.775261776200299,-1.0897063303488517,0.3022343043311412,-0.8000429966224272,-0.8389338031606062,-1.0753349814110105,0.7698456457842717,-0.6527264845551846,-0.4380596887924308,-0.5956328049333695,-0.4875115805629765,undefined,1495814960094
903d185fccf839df,-0.756845345386162,-0.27930917844153635,0.49086337086234794,0.5261707339524546,-0.9955846755562326,-1.7470446195884723,1.9048413643839228,-0.7530042575451602,-0.3134972029131369,-0.8581287787713685,-0.006935462670036709,0.00031906926017800404,-0.8913978943850268,-0.7798909528574984,-1.1054958186719728,0.5709751636377777,-0.7402724091002847,-0.8246023511923449,-1.0722703782531429,0.5489087487304657,-0.6972679453160507,-0.4347108613313425,-0.5996176636339456,-0.4928984807405418,undefined,1495814961641
903d185fccf839df,-0.6806144759626567,-0.3644263823971299,0.2873383031905171,0.29041259011347337,-1.2640516509945288,-1.771974466143054,1.9203572226273042,-0.7413319627870651,-0.24056219651532487,-0.8113856120281904,-0.01773969425457428,0.02169826626275557,-0.843527183600713,-0.8104434747623813,-1.077074732328121,0.7205000629193503,-0.6535699609401106,-0.8341334312330365,-1.0515598181132317,0.8192438590855924,-0.6345788549574661,-0.4548219676126544,-0.5716564282556083,-0.45384965503841335,undefined,1495814963108
903d185fccf839df,-0.6598242592367155,-0.5422921021958643,-0.15671772990648355,-0.17380995082464015,-1.408689125714246,-1.838963385780466,1.9202809609456635,-0.8681866933549451,-0.2830107340717325,-0.7664122605641583,0.026536114803364597,0.0006859729494943508,-0.8261196524064172,-0.7854459350593563,-1.041285205829756,1.0417767862629637,-0.40534758363836104,-0.8329238391789012,-1.0148265600686492,1.2970422224210851,-0.5086923063377383,-0.45066722725166775,-0.516205916448409,-0.20251688611209823,undefined,1495814964682
903d185fccf839df,-0.7263529665618911,-0.5833831812923538,-0.02337359736572223,-0.06937600145722105,-1.4212582446185051,-1.8412856367438344,1.9469366739937013,-0.6936220998160436,-0.2856497536556834,-0.7591416839635308,0.029828142554936127,0.03434771901000712,-0.7303782308377896,-0.7854459350593563,-1.0391799529903962,1.0195500876002679,-0.4145850110233393,-0.8147039597871847,-0.9980971851768753,1.3024624754470373,-0.4956054201836124,-0.45874607032398107,-0.5349789484425531,-0.24525823928757343,undefined,1495814966252
903d185fccf839df,-0.8732705141943997,-0.45071770403294314,-0.1898942921059107,-0.2972208224379719,-1.468202164981836,-1.8153681922942635,1.9262716616160231,-0.807753473303438,-0.2515840434373549,-0.7542665905393026,0.02039409489869724,0.0771073539484807,-0.7303782308377896,-0.7835942851177158,-1.0381273155273656,1.0195500876002679,-0.4094551836964753,-0.8190610251036703,-1.000266196836147,1.2953483936239283,-0.4992310231867429,-0.4565293295654954,-0.5255785477103141,-0.23945735618589792,undefined,1495814968142
903d185fccf839df,-0.916236926439088,-0.45247874902730734,-0.1898942921059107,-0.17380995082464015,-1.499624968836202,-1.8163115339559663,1.9330960084130757,-0.7698446302615104,-0.284676424708231,-0.7373984158689828,0.029751913503070024,0.05711339516292173,-0.7347301136363636,-0.7872976238533205,-1.0412852131919899,1.0720858951078018,-0.4094551836964753,-0.8166988371950531,-1.0017215335351983,1.2855857795071535,-0.5009560856711797,-0.4562347812756733,-0.5288079362649276,-0.23117542911786207,undefined,1495814969248
903d185fccf839df,-0.90099076290601,-0.423714984891367,-0.22115720307617964,-0.3582558873478627,-1.445419345487484,-1.813877479390542,1.8972859374615856,-0.9855971350643338,-0.29941410871137925,-0.7843707921521905,-0.0020943473824924304,0.02719705286349345,-0.8870460115864528,-0.727118430915924,-1.0507589135480964,0.9124578276425825,-0.4903838909213625,-0.7938495763239729,-1.0156241961048644,1.0221799728607346,-0.5525040418676889,-0.4571277104488559,-0.5492744550601523,-0.21762863376397545,undefined,1495814970584
903d185fccf839df,-0.8039697802727926,-0.4912217389033189,-0.18479071388758997,-0.2491107926834962,-1.4064879805924626,-1.7978499843202274,1.8979828411408217,-0.9625591906376879,-0.3419483894980025,-0.7324583216592375,-0.004610478197753459,-0.008921873462062895,-0.9218610739750446,-0.7261925994697165,-1.0002325214651733,1.2195902059761996,-0.2969076447241432,-0.7943182147263765,-0.9768268801729472,1.2811202281468361,-0.4852859006122253,-0.4519648894488257,-0.5721302569096386,-0.20503536398870484,undefined,1495814972112
903d185fccf839df,-0.7402131167967535,-0.485351588922105,-0.09802124351985744,-0.1957884049983003,-1.3081978579724087,-1.8071436493467377,1.8993713784171482,-0.9548207472922348,-0.3738185794886164,-0.6567967041438687,-0.018412843733217037,-0.08211581950510455,-0.8000083556149733,-0.8178501263320415,-0.9728640725843519,2.1773583281202997,-0.16437599967791364,-0.8350073782356499,-0.9559763835157667,2.0006279828811473,-0.32179694773716006,-0.45405508107972853,-0.655404031823633,-0.19437127751117783,undefined,1495814973603
903d185fccf839df,-0.6930885611411887,-0.5452271479584789,-0.03358177035016135,-0.15718429476274007,-1.3279875380341515,-1.80247818369668,1.9194893916743887,-0.8347872461328161,-0.3659162079181644,-0.6535869800974695,0.02608658449914774,-0.07551591261531473,-0.5693585672905526,-0.7391542720935582,-0.9749693254237117,2.130884144528683,-0.15743465407167995,-0.8079467090162874,-0.9785620891480219,1.7032224095105288,-0.3835236980327304,-0.4682179329332342,-0.6840349990571905,-0.1345672198107765,undefined,1495814975294
903d185fccf839df,-0.7429851088877752,-0.5428791171939856,-0.11141934349345908,-0.17920855932385057,-1.3429635130822035,-1.7956022694856961,1.9399203552101287,-0.6949870547606087,-0.3611854617773749,-0.6324243559603301,0.02302557736978793,-0.04923566027812522,-0.5780623328877006,-0.7363767712795484,-0.9686535300944633,2.0864310581152283,-0.1705867211769632,-0.807763053782523,-0.9770717684129385,1.6569192832592692,-0.3937330649574792,-0.46533676929965656,-0.6819566865752744,-0.12967743232424817,undefined,1495814976605
903d185fccf839df,-0.6390340425107743,-0.4700892281989413,0.24905714622497155,0.2058766029425775,-1.2572425160081389,-1.7672204905135385,1.8960762268207862,-0.8888009507063707,-0.3973096788613391,-0.6333784663109633,-0.04957932352562213,-0.03209617844514397,-0.6433405748663101,-0.7150825897382899,-1.0086536064449505,0.9225608545026214,-0.5463839527205467,-0.7786125138804612,-1.0073259790168314,0.8312700393249718,-0.5724604453837993,-0.4746579322653583,-0.836386555137839,-0.32350296297201236,undefined,1495814978128
903d185fccf839df,-0.6709123828751464,-0.3661873981635017,0.4857595385070778,0.45673519042956173,-1.2673739287073211,-1.6961577314048129,1.8982800000282785,-0.7647378352902844,-0.39481406889919873,-0.7022818896395017,-0.07026826116234881,0.029986428577996955,-0.669451871657754,-0.6345350337550679,-1.0370746854265687,0.692211485958244,-0.5464395327380762,-0.7406211851971833,-1.0144207451784943,0.7966543323731673,-0.5681202979520493,-0.47336110270236653,-0.8550156422421538,-0.33519642520883225,undefined,1495814979600
903d185fccf839df,-0.6043836065391514,-0.2957455983889352,0.6618507766256021,0.713188473666428,-1.158664398374181,-1.6592975205017824,1.8886733201191663,-0.7052745389697208,-0.30797113883874844,-0.9161570422137774,-0.09340696968873348,0.0648924129348595,-0.7521376448306596,-0.6558292088209391,-1.014969401774199,0.8841692789461977,-0.47037881924980457,-0.724301188532191,-1.0011338017274105,0.8950504047522034,-0.5405050574175324,-0.4842470170136348,-0.818249628549397,-0.2982565189770203,undefined,1495814981120
903d185fccf839df,-0.2897583808117172,-0.32979246827997566,0.36517536805991596,0.274038081674578,-0.7856433102852647,-1.597162733678323,1.9052673977826429,-0.3830221654212525,-0.2350859421464984,-0.8300822216570836,-0.05641802929517627,-0.01146580227429748,-0.843527183600713,-0.6400900548092494,-0.9139166176083531,1.154930670136566,-0.404632157577687,-0.6898373085858174,-0.9462158330707322,0.999082301379577,-0.49481484152478356,-0.48489752080178056,-0.786617565811732,-0.1288207677819006,undefined,1495814982598
903d185fccf839df,-0.07631205684321342,-0.5006139496452687,0.12400651889169345,-0.03014252621246521,-0.7294011153740056,-1.6055060697354662,1.910587491760881,-0.37841493901086903,-0.20206616455725632,-0.5764480911247244,-0.021180242120254544,-0.04890703946369548,-0.6999150512477719,-0.5956500288343173,-0.9349693006088611,0.942766851693256,-0.4392671940890103,-0.6628906336371546,-0.9444036591209606,0.8165183364090313,-0.5288556649665213,-0.483101321447168,-0.7307928951148487,-0.1230036170133384,undefined,1495814984103
903d185fccf839df,-0.11789249029509573,-0.47772042317451935,-0.0016814839107385186,-0.12731503750491993,-0.7089840079629607,-1.624053802189477,1.889493808324606,-0.5500207448383607,-0.18700492415236925,-0.48936747699261063,0.043791570696994166,-0.0545479340240419,-0.6085255124777184,-0.6039825312763468,-0.9139166617817558,0.8477982635382274,-0.48188326806018783,-0.6700785257186677,-0.9156467665890949,0.7453929182119402,-0.5306016586204888,-0.48121761303020544,-0.7433405069294251,-0.18535953849418044,undefined,1495814985578
903d185fccf839df,-0.49211646037285595,-0.4630450482214846,0.0633958730020103,-0.08449178780727593,-1.1394198535977431,-1.7073916516655396,1.9032029868746143,-0.739541061469157,-0.39058695118105485,-0.5253667741015298,0.05282166429031568,-0.06687674282940761,-0.7564895276292335,-0.6576808976149032,-0.9328640183205661,0.7124176527372079,-0.37941427180330295,-0.7238642160662409,-0.9508687123648932,0.6651824160572436,-0.5863607669872434,-0.46284052987500307,-0.6377009298702786,-0.11207256240319462,undefined,1495814987104
903d185fccf839df,-0.7249669532636753,-0.3914291307666984,0.12336914342253957,-0.01898640628713957,-1.354061784913942,-1.7243857805496314,1.905020181591755,-0.8019447302067283,-0.4035109192559885,-0.621940694206057,0.0164480223666977,-0.07548137336530496,-0.7608414104278075,-0.6761975459652156,-0.9191797975612723,0.7164588295635576,-0.3805959081798413,-0.7389746199019648,-0.9576486219086474,0.6250694667197274,-0.6058811179743604,-0.4529641569636674,-0.6217991734923215,-0.08963997050313839,undefined,1495814988599
903d185fccf839df,-0.7277389798601068,-0.38262390579487754,0.03404712153479841,-0.03358200907157428,-1.3573326365521698,-1.7998088757749973,1.920017972219124,-0.7943529207013005,-0.3788335960898563,-0.6792016676478811,-0.011861154786853454,0.020909554658963412,-0.6868594028520499,-0.68915921211367,-0.9844430331420521,0.29819297204882306,-0.6071985232672831,-0.789239194794048,-0.9893371777329442,0.4142031545898073,-0.6758440831988768,-0.45173514159157135,-0.6960455459106353,-0.10081612407492449,undefined,1495814990135
903d185fccf839df,-0.7221949266672438,-0.4565878247861647,0.002784718838428309,-0.00463803674472937,-1.3479726529293414,-1.873044815852737,1.9387632364485154,-0.7561543044426988,-0.30500461607474705,-0.7273435198104388,0.008560352086921729,0.06527354297874823,-0.6041736296791445,-0.6799008847008202,-1.0433904733935835,-0.1261346083083537,-0.7957577231828159,-0.7840588460077582,-1.0425829085656282,0.10324694490505532,-0.760441097648529,-0.4504567680276757,-0.6308563470563604,-0.39610810687195613,undefined,1495814991594
903d185fccf839df,-0.6431920479000118,-0.4642190489897351,-0.03868585684238091,-0.03861694662400383,-1.27608591746178,-1.9044406305802892,1.932293911547772,-0.83540775902929,-0.29525576153829614,-0.7817700910406313,0.02270819969516835,0.0278774792757514,-0.8000083556149733,-0.7289700743821773,-1.0697063142603094,-0.2029177311564795,-0.7804947942091234,-0.7896698334193809,-1.0631535322677914,0.09274520352213539,-0.7744886663349866,-0.45695643382140483,-0.6187589313290572,-0.3844062907119283,undefined,1495814993094
903d185fccf839df,-0.6057697233535962,-0.5105932922973093,0.04489368653618911,0.015472892698674573,-1.2673327866153485,-1.8890210665757134,1.9601251514579083,-0.6316886906648872,-0.2828266774690249,-0.8493345542073134,0.0022494885278551177,0.04456819881216609,-1.0001949643493762,-0.733599257514764,-1.0433904733935835,0.19514198784401268,-0.7862033282583768,-0.7584294216774564,-1.0564156035648289,0.3804651591899888,-0.6989621840398619,-0.46403044351798767,-0.6289270424945542,-0.3964035840561971,undefined,1495814994593
903d185fccf839df,-0.6279459361250483,-0.5182244872728874,0.1737716163277836,0.12721432127133092,-1.2483351035671362,-1.8475279983514599,1.930192693866471,-0.7808491048973368,-0.325053258486369,-0.9410097163692778,-0.029163067350148234,-0.021904804035211868,-0.9784355503565063,-0.6826783984656046,-1.0128641342103717,0.34264635524185355,-0.6974493467706221,-0.7105523684840463,-1.0424919503056163,0.44312143283587846,-0.6576391821350743,-0.4606903091895516,-0.6595106753343022,-0.4101197549971474,undefined,1495814996107
903d185fccf839df,-0.6764564705734192,-0.5839702255184674,0.6127238170695141,0.5396277847558243,-1.2122220179041978,-1.8551166599035467,1.9020379907491112,-0.9754139093753748,-0.28834193167513616,-1.0532840861688753,0.0004974308551868712,-0.0052672557891088765,-1.017602495543672,-0.6873075815981914,-1.014969398093082,0.4254913281236685,-0.6713982437566403,-0.69725318678367,-1.0260844295093872,0.5704973729213699,-0.623770950825556,-0.4373700441534874,-0.6453050583139383,-0.43108626100712644,undefined,1495814997594
903d185fccf839df,-0.6764564705734192,-0.6062767954470802,0.3205143571160454,0.28694029745647154,-1.2113580188488349,-1.856777406669912,1.9498610112551886,-0.6724029822456598,-0.2793625668471027,-0.9991237851993645,0.015236047645991027,0.004586828510524535,-1.017602495543672,-0.6965659090110412,-1.0170746582946757,0.3810378742688342,-0.6748670462603941,-0.7003309973555158,-1.0338089085581954,0.44199734456819945,-0.654508438568862,-0.4396441346077602,-0.6139567040610068,-0.45604858097430323,undefined,1495814999840
903d185fccf839df,-0.6903165690501669,-0.5739909413224116,0.3052020976393867,0.29238456415684594,-1.1603409621141811,-1.8652069240594007,1.9569720019159305,-0.6247575572353036,-0.264034723619378,-1.0066674148440886,0.018580744957909248,-0.0003375585860993998,-0.9610280191622104,-0.6900850500352649,-1.0265483586507822,0.2315129184578184,-0.7749640156941252,-0.700191672760713,-1.0376991353566911,0.20857231140763516,-0.7097882775973605,-0.44212533151280603,-0.5643716969752465,-0.5201655128354676,undefined,1495815000589
903d185fccf839df,-0.6265599573322423,-0.5006140081012534,0.6184660414417358,0.6201246825531138,-0.8790580058733558,-1.8779595080591278,2.0006346722949986,-0.27931568786782196,-0.2646422736726483,-1.2197522403629217,0.08054593363761355,-0.04959510380969165,-0.5519510360962567,-0.6586067225857235,-1.0286536335768435,0.4032645446668083,-0.692175500705139,-0.6445377632919326,-1.0394903191796858,0.4116316136483229,-0.6458883060078846,-0.45496911436443027,-0.4803489131096628,-0.5384944942674872,undefined,1495815002098
903d185fccf839df,-0.5336969973409674,-0.44191243521913387,0.8207155957644107,0.7988179208344802,-0.616381881862758,-1.8806917067883522,2.0083426393409667,-0.165002458728812,-0.3216836515882897,-1.2266142649224774,0.12219083299029927,-0.0212172970237627,-0.5650066844919787,-0.6271283498084713,-1.0265483660130161,0.417408861412083,-0.6964172075024743,-0.6555000896446079,-1.0349353953417886,0.5277512896413978,-0.6272959913499815,-0.4372013385305273,-0.46299353247108926,-0.5412211709389637,undefined,1495815003641
903d185fccf839df,-0.6459640744964433,-0.4102135522505981,0.7843488524388715,0.7238093923739131,-0.555809409114464,-1.8490583090775334,1.963812140104027,-0.39556356208480226,-0.309880832935833,-1.0722685332484339,0.03916110925508431,-0.0004322663108161859,-0.7129706996434938,-0.6280541942054534,-1.0233904609861582,0.6881703656613374,-0.5688314935235188,-0.6446137586105246,-1.0210467258616915,0.9161308844166964,-0.5202624167444919,-0.43784974384747843,-0.5118478042099407,-0.46944626911348,undefined,1495815005096
903d185fccf839df,-0.5295388884355007,-0.4407384490648796,0.32689421109437045,0.31987947436008934,-0.6926297501899307,-1.8559645044996567,1.9565880642280218,-0.4950724917821446,-0.24918467195705069,-0.7945298785977636,-0.0059372185462160275,0.016148808086076417,-0.7129706996434938,-0.5873175263922877,-0.9381271688245502,1.5327844060787843,-0.13532984525666172,-0.6249373021840812,-0.9536534429592355,1.6951690335139031,-0.3280351415868812,-0.43429489085587986,-0.44047488574762794,-0.38529083536182124,undefined,1495815006615
903d185fccf839df,-0.45192200571377966,-0.46245803322336326,0.5769949574870278,0.531770690453394,-0.766193051824124,-1.8485342312705595,1.9210330753085698,-0.7279630954265263,-0.10817689003407273,-0.4328712559025229,-0.022423860362261787,0.02205202330761871,-0.8348234180035651,-0.5586166285274963,-0.9276008899032834,1.716659704090431,-0.1673882292969077,-0.5973636647704634,-0.9391280630287181,1.6142963987435088,-0.3187057907768714,-0.45603630447235843,-0.5294073863569003,-0.4122560119080153,undefined,1495815008080
903d185fccf839df,-0.1109624583094267,-0.46950215474483525,0.9151411958704725,0.8837046529682028,-0.634752133752676,-1.800542586013101,1.8926469432012782,-0.8127502428116231,-0.09661404208466348,-0.4500478043324927,0.05396119350853809,0.03742339878831933,-0.7956564728163993,-0.49103078402043965,-0.9760219849734437,1.4640837216775224,-0.19050016309712217,-0.5557878897166317,-0.9435220602531542,1.4065097768606047,-0.3467689580694767,-0.41943118811832564,-0.640633144736295,-0.3690367208746208,undefined,1495815009589
903d185fccf839df,0.1121859587465873,-0.4008213122806559,1.352179237109146,1.4065296327284331,-0.48430324202269714,-1.7742850718594234,1.9037762756495151,-0.6504764602740738,-0.2037416183453952,-0.4345898523535663,0.09474235053699925,0.01841412173955643,-0.8348234180035651,-0.4651074517235308,-1.0149694091364327,1.5024753537633893,-0.13067414933016996,-0.5237431945152452,-0.9327049907785038,1.2277030294556972,-0.3569156986164057,-0.39965170473834133,-0.7372818465460657,-0.36145782538045107,undefined,1495815011124
903d185fccf839df,-0.1331387400916982,-0.3978862080620566,1.352179237109146,1.3512305454817937,-0.45138901255587305,-1.7564361122163548,1.8921577913768657,-0.6935900717843954,-0.22630421584872285,-1.05826406644416,0.1263649552898224,-0.09956394243025948,-0.6955631684491979,-0.3521556526645254,-1.031811520198117,1.7449482245220942,-0.13723884803604738,-0.43201050533161256,-0.929332527709614,1.4228013320754644,-0.27420778565554393,-0.40940618803562695,-0.8206254602255597,-0.40927765760566087,undefined,1495815012591
903d185fccf839df,-0.13729671097552598,-0.2904623757218657,1.3285724558772063,1.2697864914050854,-0.5187911839746254,-1.7757478342409083,1.8674718079319899,-0.8756856757644753,-0.40499766652744973,-1.1430660569509625,0.09379322019962741,0.017856125575404818,-0.678155637254902,-0.35215571741839813,-1.0307588900973204,0.409326422965219,-0.5833668175605825,-0.38496306785960077,-0.9649882759983316,0.49729316847963756,-0.47706974932922175,-0.4126843493971191,-0.6137321826320048,-0.49660324086448,undefined,1495815014099
903d185fccf839df,-0.47964234068891415,-0.2317608466817346,1.3183645370297166,1.2023106382587467,-0.5918710600145751,-1.7734255827157872,1.856176788437847,-0.9492132023376697,-0.4571899292876496,-1.458500546863793,0.04168193440068112,-0.03731235866028898,-0.7042669340463459,-0.3521557303691727,-1.0939168654765064,0.1850390175134169,-0.6821792257496614,-0.3741653999859074,-0.9992306689732083,0.3214429240543464,-0.5199427689577212,-0.4105674158792092,-0.6116833436006505,-0.5684534992903745,undefined,1495815015649
903d185fccf839df,-0.15392887055411503,-0.225303652474407,1.244355282892533,1.1132484912097549,-0.46724955378025146,-1.8414114174469758,1.8382546689291652,-1.1012207400995513,-0.49417584597899766,-1.496166022789901,0.025705509265956106,-0.02924150536890938,-0.9392686051693405,-0.3836340642941013,-1.0823378901943388,0.6538199669312634,-0.566068121868349,-0.34476154330566644,-0.9875180072414464,1.1380532796231608,-0.3333992924173701,-0.39018597088432166,-0.5481574717497919,-0.4765759599572382,undefined,1495815017100
903d185fccf839df,-0.23015977448303007,-0.4348682990836657,0.9546978661851742,0.8186030474251715,-0.7292571147412393,-1.8700843525581277,1.8754900923104296,-0.9716642133401978,-0.4060368142556904,-1.279211627277765,-0.022232404837745693,0.024355974830888395,-0.9566761363636364,-0.3447490269964143,-1.067601039334248,0.7487885833510136,-0.6465073648360078,-0.387204931670984,-0.9701169384993943,1.4069101396462378,-0.28584620232239705,-0.41981533272620253,-0.6492218483123477,-0.5077604786255311,undefined,1495815018604
903d185fccf839df,-0.2370898064686991,-0.5188114730430164,0.6108094034295076,0.5050502129445276,-0.791557580492928,-1.892116625185924,1.9341347729248024,-0.6513852557928245,-0.3166659715553405,-1.3021011528009028,0.00035077607845778824,0.05530642497942404,-0.8696384803921569,-0.41881574990540904,-1.0823378901943388,0.9063960058736149,-0.555497155594595,-0.4878164071428702,-0.9938361278239926,1.2986128724320978,-0.3676526318533192,-0.44544904786919315,-0.4389224539451413,-0.4292694321885259,undefined,1495815020086
903d185fccf839df,-0.33411080635462126,-0.518224458044895,0.09976287046449882,0.12321662998945268,-0.9448761829889761,-1.8699026696657148,1.9613374882358445,-0.5285971959245854,-0.257046951499914,-0.9170506750457483,-0.0012217333487425193,-0.045633156575877014,-0.8043602384135473,-0.4271482393966641,-1.0212852118279152,0.918519592882107,-0.4932441074811247,-0.5429890133738589,-0.9328449293755741,1.3085448679544653,-0.36856384258548464,-0.458222895424285,-0.40256796164391023,-0.2710654406015643,undefined,1495815021586
903d185fccf839df,-0.30916256698673766,-0.5698818363355619,0.054463975777575495,0.03951676621231862,-0.8312706589390233,-1.8980165873093113,1.9309895269347603,-0.7429688784277336,-0.21331153754725188,-0.8686923458938813,0.015218867374336897,0.056183975379245826,-0.8174158868092692,-0.5262124631563602,-1.0149693870497314,1.0114675643592395,-0.4485916996774051,-0.6511873554377007,-0.9464467291998844,1.3402656615351225,-0.4121180386889845,-0.4454113581179158,-0.2919376621646245,-0.27413455816533094,undefined,1495815023101
903d185fccf839df,-0.36044505902072055,-0.7125266270190207,-0.17075422189703676,-0.33866004206256106,-0.676913205553265,-1.9278401675250545,1.9548234551049362,-0.5916727700363978,-0.23775232474599955,-0.7214951106079708,-0.03300442414625237,0.0332112577692189,-0.5084322081105169,-0.6289800450778227,-1.0233904499428075,0.8922517173930617,-0.5632274634905733,-0.7079178646949212,-0.9852230554638043,1.1300460834946804,-0.4807363734833833,-0.47314424541911837,-0.5790047068780348,-0.37205694439007403,undefined,1495815024598
903d185fccf839df,-0.3147065511687812,-0.7559657661079957,-0.20712121935952527,-0.2764051130346614,-0.6774892047154525,-1.9472567061851285,1.9235182285827366,-0.8257332588041137,-0.17054727846504433,-0.8320401382040877,-0.031196641439216403,0.0011528739400168179,-0.5084322081105169,-0.6030566804039774,-1.0360220406013043,0.6214902696732504,-0.6161109161041234,-0.6994190546342078,-0.9962360358265134,0.8607734685274225,-0.5364532386353709,-0.46688063552155795,-0.6429285604737972,-0.35288777801349397,undefined,1495815026126
903d185fccf839df,-0.2856002719062504,-0.5675338055710686,0.20694817852721076,0.20929269156252453,-0.6443589735962956,-1.8981027710399785,1.910718967268758,-0.8129313739208179,-0.21950879450859126,-1.082290714712232,-0.027138021354237374,0.014989374066983823,-0.7869527072192514,-0.571578327052887,-1.0433904807558172,0.556830846892503,-0.5564884517914171,-0.6541701717215056,-1.0017985002226724,0.8795441727187076,-0.5139754449753474,-0.4869866512428754,-0.6701187973013032,-0.3814431893636779,undefined,1495815027651
903d185fccf839df,-0.3063904713794867,-0.6133209754245368,0.45960096816597784,0.45907404435748567,-0.7631999155903477,-1.8709531573444058,1.9021642197440831,-0.8727500546778335,-0.21307643113119948,-1.4347310206952475,0.04824592845987436,-0.05896898790470052,-0.6259330436720143,-0.5095474776984629,-1.048653638622035,1.0680445769578444,-0.35592074180483835,-0.6116951187429978,-1.0122937156690655,1.1979686223330195,-0.426010102654731,-0.4661081199404001,-0.5994015013059575,-0.5580942654657993,undefined,1495815029107
903d185fccf839df,-0.4325178195387591,-0.5704688513336832,0.2031203677949955,0.19207333783366343,-0.8020181357694122,-1.8648225999187102,1.9007914696687127,-0.8882399848783095,-0.29498016207868927,-1.381226895778696,0.0557388601342189,-0.07994488490306732,-0.6999150512477719,-0.5197316236067456,-1.076022102227324,1.437815789659034,-0.34886038085208826,-0.5978639690927103,-1.0490059818863282,1.4459451891193242,-0.3733815373710573,-0.4351912425071625,-0.6949034482211853,-0.5600069351213367,undefined,1495815030593
903d185fccf839df,-0.5115206465478764,-0.5264427264745791,-0.03613381359627113,-0.13536578098921725,-1.092424507982062,-1.7498350470751427,1.890316943093858,-0.8402390929879382,-0.46768126894782625,-1.0629503826400912,-0.014885651628724262,-0.10341887713545006,-0.7608414104278075,-0.4114090400572634,-1.0865484326842274,1.5449081061461625,-0.3739739443645033,-0.5423177188359457,-1.0473547344766128,1.3320736862287188,-0.36867239736103397,-0.43252260398018144,-0.7466435721250346,-0.5527712791801392,undefined,1495815032095
903d185fccf839df,-0.6071556848936974,-0.49826588965278323,0.05892967025284348,-0.012441073376867525,-1.3025510117446664,-1.7283850840869095,1.920588631714322,-0.6627653044666159,-0.4520931530620988,-0.6893774287793362,-0.06042626319505663,0.07421595305431437,-0.6607481060606061,-0.4151124370713535,-1.060232606541969,1.1003743024805788,-0.44748011212217753,-0.523185895399658,-1.0245731189900822,1.0044101637059266,-0.43420654597030817,-0.43855056849973373,-0.6750238009553438,-0.5435174962322602,undefined,1495815033588
903d185fccf839df,-0.5614172115471678,-0.505897143084346,0.15335527035890537,0.07183668047873225,-1.3555634920083415,-1.696099498871845,1.8568868400868797,-1.0462099320064069,-0.4551524175088963,-0.5979062543408545,-0.058376263854090116,0.05451982846503055,-0.5084322081105169,-0.4993632605609201,-1.0465483784204415,1.7792986515168896,-0.4009616582518197,-0.6148995859681884,-0.9986499348938563,1.5609099808692648,-0.337498404563836,-0.42567539425458883,-0.7587865994641366,-0.48383003039074085,undefined,1495815035092
903d185fccf839df,-0.5628032766034983,-0.4847646323799683,0.19993044080583297,0.14424882512713155,-1.2151225811121715,-1.78838628688257,1.9218640963456475,-0.7416049722764716,-0.4163322101900216,-0.8416959623486144,-0.049813196536880135,0.1125569628402344,-0.2734305369875223,-0.5086216333014808,-1.0497062760850657,1.458022012967441,-0.5021968608199339,-0.6537711944482669,-0.9923737950786974,1.398117617711244,-0.3875757440504691,-0.4515016947085906,-0.7995201649372865,-0.4522699130513456,undefined,1495815036585
903d185fccf839df,-0.6348759336053076,-0.40434343149737656,-0.09674496775985313,-0.12940386109788496,-1.1391318547308353,-1.759718010721454,1.907174004770025,-0.7554190514804637,-0.3780797968335281,-0.8481541904575435,-0.09285540724221351,0.005682435636157558,-0.7434338792335116,-0.5271382881271804,-1.03917996035263,1.0054057991197147,-0.5682359960217827,-0.6765571264916064,-0.9868463146635171,1.0453700292392398,-0.4728730186308407,-0.4562715539319293,-0.8861340990085231,-0.4626667243941303,undefined,1495815038116
903d185fccf839df,-0.6528942445037513,-0.5487492379472072,-0.191170567865915,-0.2667631096695318,-1.178145499330635,-1.72360315608545,1.8794900359488966,-0.915068470009307,-0.3160413687740834,-0.9214481333690118,-0.06801256322091453,0.004709251573690821,-0.6259330436720143,-0.6613842104489588,-1.0402326125401282,1.2600023416810766,-0.5753261918680882,-0.7396585771713332,-0.9827601771360058,1.2754228074915641,-0.44546063756257875,-0.4628327379177073,-0.8709414714365028,-0.43618732884666034,undefined,1495815039611
903d185fccf839df,-0.39370944718871803,-0.7553787511098743,-0.26007624378477795,-0.3223535927902248,-0.8301289441971357,-1.772726811676178,1.8544411406735597,-1.0993322865349682,-0.32297980832158435,-0.8064883693746575,-0.031189555029231535,0.00400935627895236,-0.5563029188948306,-0.7835943045438776,-1.0107588519220767,1.2175696740924677,-0.5350448510014599,-0.8203529466215315,-0.9582573452011999,1.5366728313985578,-0.42292076009444235,-0.4493263040895427,-0.7493125858747831,-0.4126318014617118,undefined,1495815041086
903d185fccf839df,-0.30223253500106867,-0.751269675351017,-0.33408549792196157,-0.3652828496263331,-0.9626087231649005,-1.8845046720729621,1.896063078327229,-1.0355217218480162,-0.18132985667493742,-0.7638493616616943,0.0014323086043609226,0.01295896484464774,-0.5911179812834225,-0.8011851408741443,-1.060232606541969,1.2660641917147657,-0.566845869427785,-0.8548484907658455,-0.9994195831421462,1.573844681990697,-0.43793449732117146,-0.45916075473972595,-0.7133359343004713,-0.49117161869223586,undefined,1495815042601
903d185fccf839df,-0.4006394791743871,-0.7999919786510767,-0.3379133086541768,-0.4139738656248208,-0.9735424209732761,-1.8984638028446656,1.918442727800814,-0.9115514644616255,-0.16381564217899058,-0.7659460770529707,0.010218730675627358,0.03823430726458218,-0.852230949197861,-0.8724743629691292,-1.0686536547105774,1.373156338613565,-0.47116576289383283,-0.8833087403662749,-1.0207178756342634,1.548914597103446,-0.46630183258307967,-0.4659818708739207,-0.6750556265676029,-0.40897650657875806,undefined,1495815044096
903d185fccf839df,-0.7263529838145959,-0.8258206385684178,-0.4163887655405273,-0.5036253683314438,-1.3904422930244025,-1.8970056984269785,1.928712106660025,-0.9213178871284579,-0.2736994323887052,-0.7347199042413887,0.007747646202567094,-0.039254603046402985,-0.9566761363636364,-0.8993235331876328,-1.0749694647642933,1.7267627309504698,-0.29424379469997,-0.9378607169431059,-1.0451927196343347,1.2594084245774462,-0.5621061758821506,-0.45955938058304596,-0.6293909721387618,-0.3295499070196448,undefined,1495815045575
903d185fccf839df,-0.7138788296252444,-0.8616285826818147,-0.5420772766168581,-0.6223925168913443,-1.4540387585754522,-1.8764198826435798,1.9135986099178641,-1.0239428428399757,-0.268851348989229,-0.7243047006636344,0.041756737962480146,0.032196779955421966,-0.9566761363636364,-0.913211037257682,-1.0739168273012627,1.3812388053251505,-0.3695101870054249,-0.9479300974399891,-1.0601868853614054,1.0567648807811396,-0.6198428141599339,-0.4599520008564776,-0.6106368232022328,-0.33352523152430974,undefined,1495815048337
903d185fccf839df,-0.7208088961163233,-0.8804130333937068,-0.5484571305951831,-0.6244134811106425,-1.4466433424007925,-1.8595608495752307,1.9114342811435223,-1.0186646071774823,-0.28519756855243694,-0.7282850862883807,0.03070365535078767,-0.00009377310636782485,-0.8957497771836007,-0.9233952155429012,-1.0739168273012627,1.3812388053251505,-0.35743110640179915,-0.9520718425662468,-1.0628176862020993,1.0012688846312554,-0.635562471052288,-0.4580543833420627,-0.5981775729381211,-0.3261481144272801,undefined,1495815048575
903d185fccf839df,-0.8039697630200878,-0.48182952816136904,-0.6071546335296069,-0.7606710820475671,-1.5009106810040205,-1.6828274950814925,1.828285074570787,-1.2803384962688142,-0.3148540450922993,-0.6962252048761832,-0.0425524658820642,-0.03338554351269112,-0.8870460115864528,-0.9048785315779588,-1.0539168038504867,1.3185999992222994,-0.35303862929762114,-0.9436363618481841,-1.0729770552524793,0.9295275270816096,-0.6575129387863824,-0.44912949382043443,-0.5903763507455956,-0.25852487466964713,undefined,1495815050074
903d185fccf839df,-0.8483222575738114,-0.43780340330226497,-0.6231047767493183,-0.7312416859029918,-1.5200317904321774,-1.6468151273570526,1.8003433860577431,-1.4167529416082423,-0.27897245539250837,-0.7323293640565997,-0.024123475657417626,0.13906130703583638,-0.7564895276292335,-0.9104335364436722,-1.080232633673862,0.7043351577609008,-0.6151624508577025,-0.9622045526438573,-1.097857714699358,0.6417459811725587,-0.73432324014753,-0.45565511160898,-0.6172025631691958,-0.3387475229764403,undefined,1495815051573
903d185fccf839df,-0.8996047841132039,-0.31394300487471355,-0.368538335881393,-0.5817304789989001,-1.455910756570749,-1.642138014694099,1.8429935899597214,-1.0825290634430405,-0.24900041816417626,-0.6619626452495642,-0.0880674868775866,0.4271542212324212,3.0644635695187166,-0.8974718541067496,-1.0707589369988724,-0.025104269046161254,-0.8676032214488282,-0.9105847286297755,-1.0697445296367696,0.3873020709067125,-0.7698811982770215,-0.41450054615395676,-0.42629869649343904,-0.08519222639513985,undefined,1495815053084
903d185fccf839df,-0.6889305557519512,-0.41021358147859044,-0.2658177057461514,-0.4048723583576881,-1.2484379617758434,-1.6627378066430833,1.9053278743583715,-0.6754099681978261,-0.3039515647600005,-0.6901717735441448,-0.11352721657585643,0.5573721496406829,5.627722537878788,-0.8771035072493922,-1.0581273500214923,-0.25747414120954887,-1.0237103059742532,-0.8997427285391706,-1.0444230710924258,0.19770101340550603,-0.7966051124614202,-0.4056220465734342,-0.4149012838117938,-0.15649932418166032,undefined,1495815054629
903d185fccf839df,-0.6237878444722865,-0.7988179194268417,-0.4808277304363245,-0.5533016889494461,-1.2953098836182586,-1.7993802953330666,1.9904941407114836,-0.3633305883021645,-0.21617827555795932,-0.7427712044532911,-0.0057668511462636175,0.6693980296339759,2.328995376559715,-0.8752518346438962,-1.0286536188523758,0.10421460478005524,-0.8816242995033515,-0.902687547376841,-1.0219633082761652,0.39358463857390763,-0.7471369662804443,-0.40392221280180945,-0.4238174569642699,-0.17105813160394645,undefined,1495815056159
903d185fccf839df,-0.7762494625503631,-0.8099711751631556,-0.6173622982401472,-0.6884497811745366,-1.3022527290812151,-1.9169300120438386,1.9925348566765333,-0.5047007144583955,-0.2597600646809253,-0.7514112741498027,0.06866350117348992,0.37068494486584813,-0.14287405303030304,-0.9058043597864728,-1.0107588666465441,0.9306432646847639,-0.5940634861636727,-0.8796292995028235,-1.0225230530484264,1.091780950464728,-0.5606834055651108,-0.4009578609241364,-0.47318692792260403,-0.20784890277530121,undefined,1495815057589
903d185fccf839df,-0.8663404304506162,-0.8029270244136913,-0.6365028767229199,-0.6633962498694715,-1.3298286835435322,-1.9481534627131907,1.9389920162558303,-0.902045497927992,-0.2853114509304834,-0.6819572376487758,0.09147824197182158,0.10216881843878906,-0.9218610739750446,-0.8641418216747759,-1.0254957138255179,2.7047370481382553,0.11623030581866901,-0.8585405972065984,-1.02176040053441,1.806407404333314,-0.36893711121157374,-0.4109069338831822,-0.5452801764080266,-0.22460248355522355,undefined,1495815059080
903d185fccf839df,-0.8760425235381264,-0.825233594342304,-0.5912039820359967,-0.6499746574268098,-1.1721078059198544,-1.936125271433849,1.9196024632718685,-0.9626581279106632,-0.2685046786926585,-0.6887981305084449,0.06245671498823793,0.012251940419482686,-0.8261196524064172,-0.8113693191593634,-0.9570745621745294,2.69261340460032,0.0943473474871522,-0.8110625187450974,-0.9710335218803636,2.182529832912007,-0.2608632028683111,-0.41371001077180913,-0.5434132846158483,-0.27662787793244575,undefined,1495815060808
903d185fccf839df,-0.9314831589829857,-0.37675375581366366,-0.5203846548879756,-0.6243299441376251,-1.0555605707564408,-1.8140545031530673,1.8934201232274603,-0.931325269458357,-0.2627608029647649,-0.6762547282590453,0.013649216933565005,-0.04359656909199162,-0.865286597593583,-0.8197017956998438,-0.9118113794934608,1.7732367449537574,-0.1963633018244387,-0.8484395523622847,-0.9339994014757999,1.8403301793687747,-0.3412302711593403,-0.41314301812313275,-0.5129736527688211,-0.38695314017539256,undefined,1495815062093
903d185fccf839df,-0.6404200903143998,-0.3902551007704556,-0.477637803447162,-0.5902506576532812,-1.0419731639383556,-1.7145098059043975,1.8869429083925655,-0.8491288395916563,-0.29503333107968155,-0.6976836704368382,0.008873972991742458,0.03503746331589773,-0.8609347147950089,-0.8548834942619261,-0.9739167174096164,1.5327844060787843,-0.31337943863589585,-0.9033081759679588,-0.9741191145288338,1.707226015611768,-0.4113652942650068,-0.4529220628536537,-0.5451153836256767,-0.483948111025024,undefined,1495815063587
903d185fccf839df,-0.7499151408734442,-0.9661174277153758,-0.766019198531466,-0.8374599372156218,-1.022893194137529,-1.558215525400132,1.8437562340117004,-0.974626706975089,-0.2665744685173171,-0.7124968814269859,0.04997536758644288,-0.025455969444980502,-0.9218610739750446,-0.8863618508507102,-1.0139167532678177,1.878308359968825,-0.05832938013597928,-0.9609759614209532,-1.0162888933400118,1.5028270514443383,-0.492679276339827,-0.43247400521754803,-0.3882124845702008,-0.3473908311657625,undefined,1495815065104
903d185fccf839df,-0.7526872364806952,-0.9995772826082948,-0.8649104931127959,-0.9444764259858686,-1.1338347233106896,-1.5407881597910396,1.854638361791789,-0.9214528548359635,-0.282624178494639,-0.7132084289977079,0.07876094095691918,-0.02011362125207298,-0.8783422459893049,-0.9187660356480081,-1.0297062563154065,1.2923320954685327,-0.16761843086010436,-0.9835339068441168,-1.0299396714215796,0.8691348263971779,-0.6628211866403823,-0.42382959056448544,-0.3171380645242902,-0.21375616631246297,undefined,1495815066584
903d185fccf839df,-0.8899026910256936,-0.9443978727848844,-0.9287120825394393,-0.9926708983324377,-1.2521099575750863,-1.5721467065751316,1.8566712077256005,-0.9727822824077492,-0.28189538322845076,-0.6883783014340407,0.08007610042927854,0.0004797195375973402,-0.9436204879679144,-0.98264857703409,-1.1023379210073485,-0.3968960701605258,-0.9282925869637307,-1.0157749225797361,-1.0672956447288615,-0.32099562376817303,-0.9771101153846544,-0.4206538735784442,-0.37553246276040636,-0.22164172733309143,undefined,1495815068124
903d185fccf839df,-0.9744495712276741,-0.6297574830559127,-0.8157837876936573,-0.9229483091638618,-1.3361029624119551,-1.651557459707516,1.9163941019986983,-0.7085255896853258,-0.33988852269863024,-0.627920876655886,0.051757894944867974,-0.024993661106470017,-0.9566761363636364,-1.0807869677287318,-1.2149696326008426,-0.8495122628097108,-1.1903384638082728,-1.1319781056954146,-1.1620044771959923,-0.9085079108142214,-1.1726835037633567,-0.4578326496223198,-0.6539260207013489,-0.40384984540135527,undefined,1495815069582
903d185fccf839df,-0.9827656510169686,-0.6573471295116332,-0.7449644605456363,-0.8654078448864193,-1.2550722427393157,-1.6947811508943218,1.9411589879276576,-0.5917978865758277,-0.36751815257970993,-0.6039264731819206,0.040120712442879285,-0.10725708555986653,-0.7738970588235294,-1.1020811379380626,-1.2360222898335325,-0.9687280956435277,-1.2477870032460316,-1.1467845281238902,-1.23194459896394,-1.0416274730166748,-1.2313768722756913,-0.4671186967816322,-0.6581738286370928,-0.5012574129076808,undefined,1495815071683
903d185fccf839df,-1.0215740233670096,-0.6743706229131381,-0.7590009525361894,-0.8642500061238121,-1.1803363684619084,-1.7223919519422342,1.9453088251259436,-0.5929854732554732,-0.37395108687100886,-0.6120740548794402,0.04555224139727407,-0.25207702587743946,-0.49102467691622104,-1.109487815409272,-1.2465486202904357,-0.9808517603800041,-1.2451193281319106,-1.1477534685674344,-1.2379968403600314,-1.0482642030444111,-1.2351927729158914,-0.46723365805035677,-0.6584178313590064,-0.5005581572681929,undefined,1495815073162
903d185fccf839df,-1.1185950922637513,-1.0171877325519365,-0.8189737146828199,-0.84380323720336,-1.1017330680489823,-1.8317846714279522,1.9689849608982142,-0.6016024339574105,-0.2998697637016896,-0.642676361262291,0.08587678204395606,-0.46221926925543116,2.7772393048128343,-1.1437436695743721,-1.2676012775231256,-1.1081500493261358,-1.2971352902473812,-1.1662583299152605,-1.2613521950786142,-1.1598875339768437,-1.2708017603135333,-0.47289241399067916,-0.667397780073542,-0.5247488842338761,undefined,1495815074127
903d185fccf839df,-1.0839446907975379,-1.1028919807336437,-0.8483224661500317,-0.8762837566425563,-1.1057136316205616,-1.877936216711628,1.97263511972558,-0.6321354966607211,-0.27642580907058706,-0.6484793084519324,0.09561479453672407,-0.7373669995100506,6.141244708110517,-1.1520761720164017,-1.283390775049039,-1.18493314390954,-1.313892832688718,-1.1743391661195892,-1.2715185613007773,-1.2321370401050564,-1.2925600471750394,-0.47195914646522463,-0.6652635631751738,-0.5228853528128481,undefined,1495815075571
903d185fccf839df,-1.3389714827233337,-1.1011309357392796,-0.8802232608633535,-0.9081934503229385,-1.271385350188229,-1.9042240098946699,1.8694467919044704,-1.364814140267185,-0.2768226717901207,-0.665911571219443,0.09656274526427971,-1.018623230101776,4.565863135026738,-1.1798511866318875,-1.3181276585626978,-1.223324684135062,-1.3822798303383799,-1.2036796942323131,-1.2923270766950887,-1.292822313029992,-1.3232745009935627,-0.4743365382527951,-0.6716869226533367,-0.5272860177755483,undefined,1495815077069
903d185fccf839df,-1.2710567275945326,-1.0846944865638883,-0.8725666228511252,-0.9051608893149038,-1.4337656505688539,-1.9312990876032028,1.8528790258934145,-1.5161149221283008,-0.2742972278452658,-0.6849164683886777,0.09343026848854465,-0.8958966631482969,3.7738204656862746,-1.185406189878754,-1.3339171524074944,-1.2374689443508935,-1.3955847145461209,-1.2181504705573003,-1.3053201545848343,-1.3142107536067988,-1.3386952190362353,-0.4762984350914146,-0.6739780596020551,-0.5281892620787673,undefined,1495815078587
903d185fccf839df,-1.1740356932032008,-1.0359721832638284,-0.8368380174055883,-0.8863846797302448,-1.076317104687369,-1.7969835072958482,1.8101893922235917,-1.377703887986378,0.22832302107756802,-0.9461276118628886,-0.037777448300728995,-0.5586142726800575,1.77630626114082,-1.1696670148220556,-1.303390798499815,-1.1788713150743921,-1.3562288548871138,-1.0979322001203353,-1.2356249211058143,-0.7883538419526717,-1.1500897408914041,-0.3594219437440754,-0.3974234504806485,-0.3246136711836614,undefined,1495815080090
903d185fccf839df,-0.5115207155586959,-0.2840052691985151,-0.6537287874287369,-0.5564806026382868,-0.8169632565410818,-1.6822661480480876,1.8549960255380629,-0.814184448388135,0.09643653227245418,-0.9825079017776565,-0.09049462081177392,-0.29589012124325986,-0.5780623328877006,-1.0233852675111113,-1.1939169864115036,-0.28172143181850956,-0.8415191450456041,-1.0359010167449143,-1.1803571120276435,-0.5860028699526134,-1.06667205259857,-0.3452519419712304,-0.3763114968000308,-0.2963215496703018,undefined,1495815081593
903d185fccf839df,0.38800288113479986,-0.33155351327433985,-0.2575236922647693,-0.370903899289367,-0.3276006440867028,-1.661058424399128,1.8506068777958675,-0.6836744095913414,-0.1750226533642343,-1.1466839742847381,-0.12151712571341142,-0.06618716482352134,-0.8304715352049912,-0.8354409918015508,-1.0023378000723513,0.8841692930785585,-0.2763655997651707,-0.939006979017874,-1.0692337606810585,0.4152348478634075,-0.7713210266230737,-0.2782836193972236,-0.023083349318996808,0.32892252704356956,undefined,1495815083122
903d185fccf839df,0.27989377486315176,-0.33155351327433985,-0.25114383828644427,-0.3459588793320935,-0.3035218273056443,-1.6613146405509087,1.848637153430314,-0.6913463199192453,-0.1896483666529154,-1.1484679102248379,-0.122052814824784,-0.05890481804520635,-0.8304715352049912,-0.836366826485452,-0.9918114696154481,0.8821486834668425,-0.27654164237061063,-0.938930983699282,-1.0678623857125273,0.4170056691839665,-0.7703705217454824,-0.27904190576533544,-0.023787789939887526,0.3260022474181555,undefined,1495815084766
903d185fccf839df,0.02348090062832074,-0.579861062075633,-0.3366370328941725,-0.32994943043014624,-0.0059360390602738265,-1.7542396400520577,1.8585120743402401,-0.7624213246018391,-0.36392332360733115,-1.0269909208594632,-0.025171889189366806,-0.0477937845122018,-0.9436204879679144,-0.7808168021110209,-0.9591798407817075,1.8237519499157555,0.03398008284986655,-0.8936567696873434,-1.032773379349503,0.8987152388474995,-0.6309163819232148,-0.3000696542465349,-0.14642106444404526,0.21129651786668296,undefined,1495815086090
903d185fccf839df,-0.045819764282466875,-0.802926995185699,-0.44063292224162076,-0.45075251488892903,-0.1565700738350746,-1.85162746022205,1.899634347240773,-0.7583894892789618,-0.4055220930479118,-0.9515794149784893,0.018296907491615055,-0.010508935442618514,-0.8000083556149733,-0.7910009755396996,-0.9749693548726469,1.744948238654455,-0.14979274787432167,-0.8791606615821099,-1.0209907499065833,0.965144132812413,-0.6075678648871857,-0.3110395239192924,-0.19639109133124497,0.16144166995172,undefined,1495815087573
903d185fccf839df,-0.18164920552924954,-0.8228855343498185,-0.5580269115626707,-0.6229401912583024,-0.10108902316535541,-1.9116403097461054,1.9075290235237694,-0.7932902297350354,-0.2799258558229702,-0.787498822606706,0.03270597944651686,-0.06077770883840688,-0.7651932932263815,-0.7882234617749152,-1.0118115077906917,1.2761672468395262,-0.345324083623553,-0.8371795777232119,-0.9851111037921534,1.2221287873980973,-0.525573711574154,-0.3444120711987571,-0.3144605730803876,0.02547754609955624,undefined,1495815089080
903d185fccf839df,-0.32579486458696566,-0.9490938758578862,-0.6786118444206808,-0.7053956951931966,-0.0890444738838166,-1.8780433634670497,1.882251334823334,-0.9547117644868999,-0.25315948345109657,-0.6317090250083076,0.0663233102698588,-0.053568391671077284,-0.7216744652406417,-0.8576609821251614,-1.0276009850704622,0.9346845263052782,-0.4916399805964506,-0.9140741801254019,-1.0024352078837127,0.9370727655926115,-0.6283961926322092,-0.4014186135141234,-0.287803743796373,0.11051941625457623,undefined,1495815090580
903d185fccf839df,-0.4546941013210306,-0.8522363427118725,-0.6320366739737532,-0.715992516398574,0.1445128523556232,-1.9259488263796487,1.9406435537814355,-0.5555682934533847,-0.23211177134532565,-0.6291794708820805,0.0677640717569103,-0.03991823062984849,-0.7129706996434938,-0.9067301977080675,-1.0854958062645474,1.0478386362966527,-0.429451558329245,-0.9658903253547262,-1.0586545832778138,0.7484264099589746,-0.7052456503447981,-0.3922444489370899,-0.22101833353932526,0.20845111878259123,undefined,1495815092091
903d185fccf839df,-0.4214299201854915,-0.924439245936788,-0.7137020578492661,-0.7628096665224069,0.01350392496155141,-1.9352704414785409,1.957989754187993,-0.48870999079198707,-0.2396303940465437,-0.6186580383753707,0.07181825911393167,-0.1885972134294293,-0.8696384803921569,-0.9493185478398101,-1.1444432373132865,0.32244030152177583,-0.81853699959454,-1.0259646289566595,-1.142308454792243,0.05939216920462465,-0.9047141025121869,-0.43889512950567594,-0.4629463185209456,-0.264589133396969,undefined,1495815093574
903d185fccf839df,-0.46855423430318816,-0.9643563242650269,-0.7813309497342259,-0.8778003638607231,-0.36417658335565334,-1.9757759113439064,1.9699106621926352,-0.5345086619683751,-0.19785666427124501,-0.6425015516232458,0.09208215048240503,-0.5421937497105459,1.606582831996435,-1.0076460843601787,-1.1528642965252456,-0.8414297960981253,-1.1329962500600328,-1.072423102982264,-1.1751514854266236,-0.6669371010760942,-1.0996513879170833,-0.46291843285401757,-0.6051512367320969,-0.38394541642526275,undefined,1495815095080
903d185fccf839df,-0.597453609058892,-0.9649433392631483,-0.7896249632156079,-0.8817340837431433,-0.38980854003142745,-1.9737098760792924,1.9739737143053382,-0.5158475682331077,-0.19285770839501287,-0.6271875221853499,0.0917134895618408,-0.5468016345701994,1.8676957999108736,-1.0141269320040274,-1.1518116682650072,-0.8838625626132594,-1.1413785093662925,-1.0764698540308741,-1.1740529860272295,-0.6939921695232848,-1.1053008047969455,-0.46635514590367005,-0.6128221594065827,-0.39554255535698296,undefined,1495815096874
903d185fccf839df,-0.9134649861061809,-0.9719874900126126,-0.8559785958883611,-0.9227553082654648,-0.7885850168495402,-1.9387083980621465,1.9497900123230398,-0.7505215465596466,-0.27599150371801767,-0.6691298079710939,0.07973770293186491,-0.817972678296287,6.619951815953654,-1.0344952804802314,-1.1191800394312665,-0.9465014252455536,-1.14966576325256,-1.0820935079997882,-1.1605071598518952,-0.7505352616059183,-1.110396354524878,-0.46814637221498656,-0.6097680268776063,-0.40724619303664855,undefined,1495815098100
903d185fccf839df,-0.5267668963444789,-0.8669117468928996,-0.8897935501047398,-0.937673766460394,-1.1225924572358486,-1.927847155018007,1.91811925307085,-0.9941946139661615,-0.292731741799773,-0.652991794577696,0.06910204508464804,-1.1858719929534296,6.902824197860963,-1.0502344442050022,-1.1044431793683838,-0.798997064913893,-0.986427725606663,-1.0619800786478513,-1.1256210606250368,-0.3409212134276625,-0.9787469828388805,-0.3919849228586584,-0.6100951413898962,-0.3612599803910203,undefined,1495815099628
903d185fccf839df,-0.6168577607285028,-0.8316907593216394,-0.8642726093697431,-0.8984343770705748,-1.173434656650726,-1.9293401970644521,1.8915555857628437,-1.1778716093136887,-0.29517645997087566,-0.6481449280112641,0.06407443440248811,-1.141664451349526,7.1334739861853835,-1.0307919255561586,-1.1086537144960387,-0.15644373128555258,-0.7681019367707026,-1.0527846444781082,-1.12696444812373,-0.18122393539459192,-0.9378137628225919,-0.3923242557922434,-0.6021285877402329,-0.3674453794157566,undefined,1495815101130
903d185fccf839df,-0.43944795504065737,-0.7718151710572732,-0.8119554686875432,-0.8375237680536637,-1.1721283748772966,-1.8852849661762323,1.8794190307316172,-1.1869347428443437,-0.20163670705759337,-0.7015214160675655,0.05482301061697214,-0.8564718455606554,4.248175690730838,-1.0150527537371539,-1.1107589912626583,0.019349156543951574,-0.5979472829486617,-1.0016207932503716,-1.1091365740466588,-0.20208882827426994,-0.9158813056796643,-0.3556225360488244,-0.5642619092370951,-0.40700513530280297,undefined,1495815102598
903d185fccf839df,-0.5101346332496607,-0.7078304778060572,-0.7838835012542344,-0.8138464419831877,-1.158376397482746,-1.8554846797253377,1.8937593610653791,-1.042315428874848,-0.09606815467101945,-0.6285796024779458,0.07101566659509545,-0.7729410535746314,1.9025108622994653,-0.9465410518823407,-1.0949694918961863,0.0415758198757453,-0.520467499842081,-0.9671632465964852,-1.0816321103436313,-0.16152932264565587,-0.8825695483761253,-0.33944295795734214,-0.5756059472996992,-0.42560099475088586,undefined,1495815104628
903d185fccf839df,-0.5115206465478764,-0.6021677196882228,-0.6135344875079319,-0.7074964364536724,-1.1647741003885035,-1.7878715233559874,1.8733783685092966,-1.0296435589953026,-0.15171569676796173,-0.6266176875855333,0.029988314400409593,-0.5039508558418493,0.5969460227272728,-0.9270985478031185,-1.0654957699298622,0.16685352394179248,-0.46969089479137843,-0.9425344287347679,-1.0499155669760918,-0.08235051678011682,-0.8435056330293857,-0.3391920015996996,-0.5822654793270954,-0.43498479744397234,undefined,1495815105861
903d185fccf839df,-0.4768703485978924,-0.20534514253827985,-0.3787460005919333,-0.4501052085735414,-1.1097456219968957,-1.7052999939971194,1.866672366534434,-0.9194523701486554,-0.25962611087220494,-0.6437166099377162,0.0011077466277083015,-0.14921978722235826,-0.5606548016934046,-0.8317376692544144,-1.0097062402268644,1.3468884560583394,-0.2976291641158201,-0.8703705357800365,-0.9504279131879068,0.4615225746326232,-0.6679358730050502,-0.3321120628880806,-0.5689488825139895,-0.3534737977243771,undefined,1495815107093
903d185fccf839df,-0.5378550199829099,-0.4196058799045173,-0.3238773249375224,-0.4211066012126153,-1.2055774610142316,-1.642075124685696,1.884105357264183,-0.7293150053687413,-0.2612273217727025,-0.690797885607215,-0.005603083082127246,-0.09790080149189613,-0.4213945521390374,-0.7298959220168529,-0.9907588284713006,1.2478786274813374,-0.38297655146404475,-0.8485788769127941,-0.927576328870796,0.6003395608290016,-0.6242726631246506,-0.34102358099038965,-0.605447625558959,-0.4027184424145752,undefined,1495815108586
903d185fccf839df,-0.6154717646829919,-0.5886663162754462,-0.13311196522234164,-0.2056216782353377,-1.324264117254629,-1.566186182037167,1.8752508042882392,-0.72280022407441,-0.3415067243080699,-0.6489315700762252,-0.014312457459274685,0.009049923637348654,-0.4213945521390374,-0.7011950662420787,-0.911811372131227,1.0074263875328897,-0.5951590806379203,-0.7859270646362022,-0.8916966820773722,1.1327716105734165,-0.481783740809385,-0.3456571599492384,-0.7169748119626514,-0.4355051164960209,undefined,1495815110079
903d185fccf839df,-0.8691124742997525,-0.5775130313111398,0.09274411619532336,0.07353640058496187,-1.4525267592963247,-1.6387513003467287,1.8904116322551368,-0.7851097527327475,-0.3665264151470834,-0.7305974331149029,-0.022526370403385516,-0.0607093153683929,-0.7869527072192514,-0.6623100483705536,-0.8770744830958928,0.5952223941842051,-0.7225177716956789,-0.7465551539821029,-0.8617643246698165,0.7467633810951921,-0.559541322600605,-0.3507323715354465,-0.6357305278357689,-0.31428419277251346,undefined,1495815111589
903d185fccf839df,-0.8178299305076551,-0.5698818947915465,0.2662830569307884,0.24731004609952345,-1.3590297730426002,-1.6814625588820482,1.9046257341176873,-0.7690418820173,-0.3545343495411599,-0.7289564214712768,-0.01622777865563879,-0.023087543591883006,-0.7695451760249554,-0.7086017566640627,-0.8791797506597202,0.4295325614794613,-0.723230373463458,-0.7619885371259472,-0.8760238256769128,0.5955660442618937,-0.6107014670667003,-0.3880500581120097,-0.5665445025344766,-0.28251922592258955,undefined,1495815113093
903d185fccf839df,-0.8732704969416949,-0.539356997977265,0.3632609544199095,0.38659937785080684,-1.300555584804757,-1.6758118248738576,1.8419521867405957,-1.1578242608553766,-0.35231722833237256,-0.718657632253405,-0.0058789232387397765,-0.02555545091782586,-0.6259330436720143,-0.7493384244772283,-0.9097060972051657,0.4982332458807231,-0.6863784244264396,-0.8117718070970922,-0.9069847134697712,0.5215611157162869,-0.6632539358531111,-0.3921113946282875,-0.5250392102276313,-0.22914125328165694,undefined,1495815114592
903d185fccf839df,-0.8303040156861871,-0.5516843129378142,0.24076262446969063,0.051231879369003294,-1.3483017903372965,-1.597498144879531,1.8461703988289364,-1.0010233185132111,-0.3286428452846531,-0.7772416023691224,-0.018142537751413963,0.01800158165071638,-0.6563962232620321,-0.7585967648408526,-0.9507588036564498,0.10017342795370554,-0.7952436732571306,-0.8029563490884493,-0.9851460875345667,0.10768170230926344,-0.767989050040001,-0.4217626439354685,-0.5814151792417906,-0.36097593424107804,undefined,1495815116122
903d185fccf839df,-0.8455501964719702,-0.5604895963656197,0.1610114000972347,0.028671325341121982,-1.4021679862378895,-1.634637865144686,1.8238617472399785,-1.2173105174405283,-0.26380296375567014,-0.8135228889174644,-0.02783443051473177,0.01562986735103659,-0.7390819964349377,-0.7261926059451038,-0.9602324966503225,0.38507916415407,-0.6812202047847062,-0.7806137243372037,-0.9831659899585939,0.4876537445381209,-0.6665787609314447,-0.4274746892042271,-0.5590346825852079,-0.2571439063458999,undefined,1495815117575
903d185fccf839df,-0.7928816566343618,-0.596297569707009,-0.20393129237036275,-0.29006564187561396,-1.2914938855438218,-1.7072518976313988,1.8714743834689642,-1.0035540735908,-0.2257340301436995,-0.7750493947590176,-0.06848690757230078,-0.04813443132759648,-0.7086188168449198,-0.7326734454947182,-0.993916718773691,0.7851595139648193,-0.6154892650036141,-0.7837105340556717,-0.9878538536191085,0.8492400409116906,-0.5850691055019568,-0.4333877829258055,-0.5745787244002152,-0.291659091321021,undefined,1495815119079
903d185fccf839df,-0.6598243109948301,-0.5710558663318046,-0.20074136538120024,-0.2921168202307503,-1.235457410162788,-1.7318323598961425,1.8985692721241485,-0.856029344898999,-0.22341997413269551,-0.8215426325718789,-0.04300544554019495,-0.10352860664701949,-0.6346368092691622,-0.7169342526307049,-0.9876009492122608,0.9468081133137703,-0.666133571085283,-0.7606142890677198,-1.0069411537702058,0.932022085542575,-0.5632083040194306,-0.4585379739897121,-0.5887431336118312,-0.27545694350356004,undefined,1495815120581
903d185fccf839df,-0.6459641780126726,-0.37205760660070025,-0.0029572513968439853,-0.1411165406746413,-1.1988094729890824,-1.6023988642990066,1.8226993709664818,-1.1277703309623204,-0.3545392074764251,-0.7632517642561262,-0.00786849457093834,-0.02545194328577211,-0.9044535427807487,-0.739154265618171,-1.0276009850704622,1.0518797000641162,-0.62459707301795,-0.7598796668315456,-1.0615022852250997,0.879436393078049,-0.5841974587056424,-0.4671550805922455,-0.608674294342186,-0.1735308800770583,undefined,1495815122072
903d185fccf839df,-0.6376480637179683,-0.34388082823488897,0.09338250821227494,0.011776886207861825,-1.2405591179744102,-1.6080309646145312,1.846265064420975,-0.9789415399182293,-0.3384961582577197,-0.8107041253214397,-0.01310776968478394,-0.03045949786881159,-0.9262129567736186,-0.7224892607341119,-1.022337838247595,0.9932820990523364,-0.6494281591624622,-0.7390632803936817,-1.0544914807633716,0.8913855867712921,-0.56914181359666,-0.4664217141033174,-0.6561841866874997,-0.189792379472035,undefined,1495815124908
903d185fccf839df,-0.6265599573322423,-0.31746515331942654,0.09338250821227494,0.011776886207861825,-1.2200700099379018,-1.612442543404124,1.8490395086464038,-0.9582515654394892,-0.368952765111968,-0.8002524332837617,-0.013867568536152142,-0.011820918337027014,-0.9262129567736186,-0.7243409301019141,-1.01917992953962,0.9791378671012264,-0.6081522349083983,-0.7375497070596416,-1.05377780609677,0.9222594706584484,-0.5628244146125011,-0.46720173313270685,-0.6478670388457495,-0.19580191806986347,undefined,1495815125114
903d185fccf839df,-0.6917026168537924,-0.31746515331942654,0.2624555003355226,0.25488719746813815,-1.2957727409252346,-1.617471371377886,1.8228045704376798,-1.1461793715975754,-0.4153956835891471,-0.6744701400478856,-0.004526518753647167,-0.018016194878873095,-0.9218610739750446,-0.7410059349859732,-1.017074650932442,0.9670142518280127,-0.5944402689488613,-0.7410074937316845,-1.0551771684005635,0.9565980043267628,-0.5572266023926512,-0.4726156295334416,-0.6995473614869872,-0.24088856713804532,undefined,1495815126581
903d185fccf839df,-0.6986326660921663,-0.5998196012397526,0.2911656056488335,0.2641165789218791,-1.391738294012073,-1.6484921789415528,1.8500546232585893,-1.0564350506129043,-0.4108506465285276,-0.6498333769601491,-0.019453766278487074,0.01932983175103995,-0.8783422459893049,-0.7382284147458016,-1.0739168273012627,0.6477581451622958,-0.7308006810861281,-0.7428630466831668,-1.0912317352701584,0.43897925223589757,-0.68658049344717,-0.4666617496230075,-0.7271497293862472,-0.42554988486760453,undefined,1495815128091
