UUID,iqrAccX,iqrAccY,iqrAccZ,iqrAccXYZ,meanAccX,meanAccY,meanAccZ,meanAccXYZ, covarianceAccXY, covarianceAccXZ, covarianceAccYZ,pressureDerivative, pressureIQR, iqrGyroX, iqrGyroY, iqrGyroZ, iqrGyroMagnitude, meanGyroX, meanGyroY, meanGyroZ, meanGyroMagnitude, covarianceGyroXY, covarianceGyroXZ, covarianceGyroYZ, class, timestamp 
903d185fccf839df,-0.9113859144007427,-0.651477037986404,0.5135129452742844,0.7163362546506133,-1.2082534561259688,-1.210641011346332,1.8057726309339737,-0.38686023665092006,-0.25075680497208774,-0.6519102759746505,0.20206130121550916,-0.23175707333107423,-0.4649133801247772,-0.4928824598636293,-0.9918114806587988,-0.2534329078537561,-0.9686338752587106,-0.4721511370596353,-0.9557767042516532,-0.4455927435218312,-0.696927662918887,-0.3949184943302457,-0.6629376462191483,-0.5633881220779088,undefined,1497326057628
903d185fccf839df,-0.2925304074081487,-0.5411181014276139,0.6631265441117076,0.8428948571994916,-0.9421881904723649,-1.1633729865416798,1.749803776304089,-0.5088801705495015,-0.35187475483730346,-0.3816051710342113,0.17927146160945537,-0.13791933841253662,-0.6846834614527629,-0.5688007938619408,-0.9539166792343727,-0.158464347963449,-1.0162849585785818,-0.5198819591250916,-0.944370470588091,-0.2736941408420061,-0.6859973032122021,-0.4745546645048543,-0.6558599394214748,-0.5610873541424365,undefined,1497326059152
903d185fccf839df,-0.27104716678039475,-0.46363206321960604,0.9502319175729567,1.0206174375077357,-0.9234010366583505,-1.0863947252314352,1.6709737496331454,-0.7230184442450377,-0.3757304218940159,-0.29629720922847624,0.21070398302984125,-0.14385566563294422,-0.6346368092691622,-0.5123249267093746,-1.0507589282725638,-0.27768025145906966,-0.9782938981698722,-0.541367777956119,-0.9771510655233523,-0.2680506352170078,-0.7050195439614708,-0.45650906108544653,-0.6777234913192451,-0.5660009833189625,undefined,1497326060653
903d185fccf839df,-0.2273876788757791,-0.33624951634734157,0.9904267257676604,0.9630057794970012,-0.9464910338750915,-1.1674600245766142,1.6514411453460098,-1.0436576636588466,-0.3772250848337263,-0.3959698492933029,0.14860542679945132,-0.061473112574991357,-0.6650999888591801,-0.5215833188760971,-1.0507589061858624,-0.3160717987507718,-0.9104290535879865,-0.5467183760702522,-0.9989940022830547,-0.3224282182242948,-0.7254122621725133,-0.46208451120171967,-0.6500740748368132,-0.5493121964371289,undefined,1497326062151
903d185fccf839df,-0.14284072966297928,-0.34094575324428206,1.2003321556917153,1.5149395529471064,-0.7424536629893204,-1.3415590078727342,1.7404258954941518,-0.7678509300501136,-0.4694838817688253,-0.8249188638626015,0.01476407393266209,0.03633336240597659,-0.6825075200534759,-0.5169541292681231,-1.0328641355744463,-0.18271170570112333,-0.8075878223962463,-0.463333246221673,-0.9831100162300962,-0.1292387813870343,-0.6500252316019431,-0.4678498409913097,-0.547344266200553,-0.5093511243478585,undefined,1497326063650
903d185fccf839df,-0.0846282056433274,-0.2129763375138579,1.7298816375333934,1.700040160658668,-0.6988628827572847,-1.6280065183293417,1.9022667849598507,-0.314753230507887,-0.5081187322986199,-0.9010012115872218,-0.13176636704291694,0.025122596022147354,-0.3822276069518717,-0.2993831890014365,-1.0349694105005076,-0.15644375955027412,-0.7108915216892987,-0.3486499715430115,-0.95597638434157,0.02811793292473852,-0.5613480153155501,-0.3670989109218712,-0.47347090139886233,-0.43859010380215124,undefined,1497326065143
903d185fccf839df,-0.12066455139693696,-0.500026993103132,2.0157107352346384,2.016059331913077,-0.5397328643852706,-1.825684393137176,1.906545482004094,-0.5431494396557232,-0.3854387950596068,-1.029898715557159,-0.12145739464032768,0.0676135661717999,-0.33000501336898397,-0.29105071246095604,-0.9760219849734437,-0.18271169156876255,-0.6675057823862924,-0.29723913549524694,-0.9386312898969024,0.0015710133388228758,-0.5303883079514341,-0.35205471263938903,-0.4770544075896426,-0.42725893899876166,undefined,1497326066651
903d185fccf839df,0.06367535528739703,-0.5910144054959241,1.301776255930003,1.335153243194799,-0.2597459080398311,-1.8899923586681417,1.9347159636803557,-0.4258887091018733,-0.13281573864986046,-0.8667824354841812,0.18755169544909853,0.09637093497168955,-0.8739903631907309,-0.3077156784926915,-0.9433903708641708,-0.03116606255040734,-0.6684279743259871,-0.22730443772943087,-0.914793155417458,0.13027121977308173,-0.467456298530308,-0.36985296378334565,-0.4148204174691238,-0.4470554118578691,undefined,1497326068158
903d185fccf839df,0.4323552376668845,-0.5839702255184674,1.31134629103444,1.304194763726177,-0.07743192528225948,-1.8883222949344851,1.8351067968019856,-1.0114355858127855,-0.24349126179466007,-0.6301477754719974,0.1673832413205991,-0.020953192745541784,-0.9044535427807487,-0.31049317930670134,-0.8749692228942991,0.061781965456168014,-0.6359530410825721,-0.16271474436643035,-0.8518568409945088,0.3040118795954473,-0.3941246480115656,-0.4016350295518442,-0.4328659398111965,-0.46094910576168213,undefined,1497326069639
903d185fccf839df,0.18841682817009262,-0.5886663162754462,1.6992573727170255,1.6859387322319674,0.19821446892547048,-1.8575041313041833,1.8587697924608728,-0.7024793443860018,-0.4043444176312699,-0.08174443037621919,0.0464159884813586,-0.05809311247432815,-0.7826008244206774,-0.27160816791056347,-0.866548167363457,0.1567505536111967,-0.62174815873603,-0.17689420425797442,-0.8648149345851884,0.24475866135658883,-0.41196856465952447,-0.38069857802928697,-0.4118577227865867,-0.45775815932199604,undefined,1497326071204
903d185fccf839df,0.03872725394115242,-0.47361125973168494,1.7190355808059017,1.701398678695654,-0.035476564139584894,-1.7793791195428936,1.9658607480982717,0.018514495900222375,-0.7166695575433853,-0.1586660755680006,-0.04406103917463867,0.007344607495820414,-0.8739903631907309,-0.27068229113664505,-0.8949692242583738,0.08804989747465644,-0.699570945458804,-0.19587403478150828,-0.8976299772053125,0.24195614415074165,-0.43196605801148447,-0.4333501641846882,-0.40838568612263443,-0.4704946517607449,undefined,1497326072656
903d185fccf839df,0.029024953821183752,-0.28165717997803724,2.008054605496309,2.170027658455104,0.2171915862810908,-1.7297500198043338,1.9201547178091467,-0.044845886964193234,-0.5499465279389028,-0.42877390652367897,-0.2282246572919894,-0.07888732167208017,-0.8696384803921569,-0.2771631436370341,-0.8676008121887214,0.13654438683223283,-0.7067743648261373,-0.19681130945469918,-0.8531232627477552,0.38155845181877013,-0.40310043279787533,-0.4316379195757347,-0.3984596128814842,-0.4441450216527597,undefined,1497326074158
903d185fccf839df,0.019322998755312425,-0.30631183912712784,1.6954290537109113,1.987217821247978,0.004750799084414325,-1.725578352957255,1.8892124198777567,-0.34807146351209695,-0.33746742255580636,-0.6680341227771133,-0.23544065618701723,-0.017688620169833292,-0.6476924576648841,-0.2817923202942335,-0.8044428220850677,0.26586328892317085,-0.6998260090381511,-0.2452583292622209,-0.8106036422305016,0.3055825243965457,-0.42622518806426674,-0.4447053464352695,-0.36704244761389854,-0.46371333640744267,undefined,1497326075650
903d185fccf839df,0.056745426817957204,-0.34094578247227436,1.6252478644428925,1.7726823507490899,-0.028461722412300907,-1.7545983441700486,1.8434695854341632,-0.7218363988074933,-0.45222586664485764,-0.01834439246058708,-0.2623322938732692,-0.14361960220618128,-0.47361714572192515,-0.30216066391389723,-0.8128638923403774,0.26990463533784975,-0.6662073790785061,-0.31905612275983275,-0.8503875094319407,0.30516676809267174,-0.46311966766043494,-0.4045285915002214,-0.4273671246272441,-0.44907331523809846,undefined,1497326077155
903d185fccf839df,-0.040275711089603865,-0.3321405867284459,1.5646369644162599,1.7599490819706731,-0.4427387471340284,-1.783793028737794,1.99088600080672,-0.050970548346127756,-0.5378769895588629,0.08601732256194532,-0.05206918285887926,-0.12702171908822338,-0.3430606617647059,-0.4641816267527105,-0.8054954521858645,0.18099775589290257,-0.7030958679207937,-0.4524279183386839,-0.8058877931554819,0.1807627249089072,-0.5308238209574705,-0.37084659259682384,-0.444808504198641,-0.47306379561328965,undefined,1497326078653
903d185fccf839df,0.04427110010155703,-0.1918437683534956,1.860673726828045,1.690304749948257,-0.41769307801218225,-1.7345179730183138,1.905404156990448,-0.5012257943535292,-0.6538675616441861,0.08004691208884392,-0.04737525361609651,-0.054373385697646985,-0.6302849264705882,-0.5937983529911277,-0.8107586321387837,-0.006918747209815308,-0.7755612990268079,-0.5488216545671769,-0.76064641402077,0.06612130045948944,-0.5795801343315696,-0.35406394687114745,-0.4977249783270951,-0.4904746598329641,undefined,1497326080146
903d185fccf839df,-0.029187673714697316,-0.059178349550069696,1.5984514103587397,1.499007564553237,-0.43874789784340484,-1.6705291128302726,1.7876046180798428,-1.1383580173365355,-0.699262297331868,-0.40745939950595833,-0.03505303228809748,-0.04216273767227548,-1.017602495543672,-0.6743458895481879,-0.8149691451797372,-0.0028775421187440704,-0.8859829784349161,-0.6053178453014372,-0.7955814909054141,-0.023128093601277055,-0.6328549468497926,-0.367520641450769,-0.5057511165062749,-0.4958059439427877,undefined,1497326081653
903d185fccf839df,-0.14145475087017326,-0.15955794345681928,1.678202888868145,1.6176477354033523,-0.46024500525796125,-1.6348824350392193,1.8072571571715392,-0.9661876883304777,-0.6949306209523329,-0.7277082471793663,0.024091378796535196,0.03364218255927553,-1.056769440730838,-0.6539775524039113,-0.8381270736573713,-0.13623767756547486,-0.9397185803504877,-0.6951189878095551,-0.8210148997940061,-0.05026015424877459,-0.684963625467078,-0.3746086614128058,-0.6402016505467295,-0.5121747644608969,undefined,1497326083163
903d185fccf839df,-0.2758981098079207,-0.15897087000271323,2.2103044139559334,2.2174868200188915,-0.5210334703101528,-1.5376716349785478,1.8526002698688333,-0.49532368172773095,-0.5874602793845323,-0.6391845438840588,0.10765281264715727,-0.00989046838539448,-1.017602495543672,-0.657680891139516,-0.8128638849781435,-0.015001171524318551,-0.9132526084413196,-0.7111729991680238,-0.7997026136434332,-0.05150743117047104,-0.6860879623167794,-0.39608625295796485,-0.6227946136068373,-0.5088728770165077,undefined,1497326084705
903d185fccf839df,-0.09294428543262193,-0.2194334732652008,2.0686660137968405,2.211781461326729,-0.543065427817107,-1.5173140844989674,1.9415035021328522,0.10532252051296795,-0.44454307603811655,-0.3937690641132762,0.09709479693668267,-0.05231132055631104,-0.9958430815508021,-0.6502742071929194,-0.8054954889970334,0.04157581280956492,-0.8568356708101807,-0.6723520533847179,-0.8123248607463437,-0.0055584672124408905,-0.6665345516706022,-0.41766404672149876,-0.5747578130626525,-0.5349054209751355,undefined,1497326086160
903d185fccf839df,-0.03750364998776262,-0.1988880067869369,2.4253144386461067,2.4100222875279536,-0.5758047981636859,-1.5982947435984327,1.8806997539223484,-0.3805442304549846,-0.4558276216710979,-0.16487877056469094,0.17518767393439522,-0.10464797872913723,-0.7913045900178254,-0.5910208392263433,-0.8865481834519993,0.13654430203806822,-0.8401346583092096,-0.6170591217387688,-0.8712869867442667,0.1619304251049632,-0.6296368777902008,-0.44622382798202137,-0.5364023798369173,-0.5849639558380368,undefined,1497326087652
903d185fccf839df,0.052587214396261274,-0.333314558268704,2.2147706167051004,2.142485183269847,-0.4350861772144584,-1.7070795328338595,1.9032056323909052,-0.3642292475821819,-0.544808611386894,-0.5317380809483648,0.06315557540752298,-0.06973620643868843,-0.5258397393048129,-0.5225091308961428,-0.8728639553304717,0.11027656787263054,-0.7601792162136487,-0.5835071870439593,-0.8740507274565145,0.3508847471031495,-0.5779014620785471,-0.4338702686497741,-0.5476056615111723,-0.552225408908766,undefined,1497326089150
903d185fccf839df,-0.10957637600039148,-0.4395644190686368,2.3174902302925444,2.2573574382444264,-0.38430569650699026,-1.7680986131563983,1.9303136595881896,-0.23832569814316856,-0.6234144426813817,-0.9641586197269386,-0.04129404044265126,-0.12073353245938824,-0.6999150512477719,-0.45307159759512206,-0.8854955533512024,0.34062579509340024,-0.7343197063791759,-0.5197787739657175,-0.8845809272876123,0.43633072026532727,-0.5421624113995595,-0.43054375865836475,-0.5073804775763568,-0.5388480636987626,undefined,1497326090655
903d185fccf839df,-0.13452471888450424,-0.3415327974703958,1.805805051173634,1.7544057247122136,-0.49640951409270834,-1.7350071116730021,1.9176748084290804,-0.3386195157120377,-0.6708030441334132,-0.9653990738946333,-0.08271464454178754,-0.07190187606054209,-0.6433405748663101,-0.41511238526825534,-0.913916654419522,0.22949230177992203,-0.7809417444172023,-0.4506610267758582,-0.8978818657612565,0.5208835851128611,-0.500723613423358,-0.42964447690420365,-0.5791658891265606,-0.5231929675231537,undefined,1497326092140
903d185fccf839df,-0.26758206452403593,-0.3068988248972569,1.7298813833964441,1.771063096405683,-0.6528652493942413,-1.705924229551189,1.881912081272588,-0.5889335767066347,-0.6813281712403296,-0.41618088014112203,-0.14247080885245272,-0.026292444364255044,-0.6389886920677362,-0.3595623819388329,-0.9139166323328206,0.21534815462297655,-0.7606880779322134,-0.39712865194964087,-0.8946143551858383,0.5477846687286445,-0.4683698019404277,-0.43517565245029854,-0.6448565096786535,-0.49266681592680506,undefined,1497326093643
903d185fccf839df,-0.11789249029509573,-0.34329381323676755,1.312622312657495,1.220365783880631,-0.7739279001401316,-1.5666217488109435,1.775662667981165,-1.108400075085467,-0.5677075209077604,-0.09465150078069827,-0.08310337848831163,-0.1235980759576582,-0.6955631684491979,-0.39381821667777134,-0.961285104664418,0.18705954939714867,-0.7286193043264604,-0.4820534256834772,-0.9190542153333894,0.31260421018897777,-0.5552909033640993,-0.434985560289926,-0.6209254641717452,-0.43501487437421,undefined,1497326095149
903d185fccf839df,0.1898026689412597,-0.2558285200606962,1.2794457504580679,1.2450028903150527,-0.5104803373346489,-1.5619073687970877,1.8279721426239182,-0.6633348350604762,-0.7523493921531326,0.518650159567493,-0.2712204609023946,-0.05531965886391164,-0.2212079434046346,-0.36882072230245727,-0.9560219541604339,0.15270926372596083,-0.6751484285214637,-0.4345626798563317,-0.9370430157119516,0.261050212680841,-0.5365527032563692,-0.44332845557898626,-0.6803534063095976,-0.5038953635940892,undefined,1497326096686
903d185fccf839df,0.32286018710784004,-0.33918470824991787,1.2500972531278054,1.3903479325951227,-0.24038821700703542,-1.6225374661571066,1.854462179101269,-0.45276042354007134,-0.7971340144740505,0.27971602423644965,-0.33766702986090347,-0.027105291379668498,-0.2560230057932264,-0.23735229431930138,-0.9507587889319823,0.08804978441577029,-0.5728589700723464,-0.35046118944834614,-0.950399927834572,0.24566716593578472,-0.5015752183087436,-0.4629965580361127,-0.6323985951944325,-0.49822339556511114,undefined,1497326098154
903d185fccf839df,0.17178453056986465,-0.2423271166479196,2.091634148874879,2.1142436038611563,-0.32524521855465627,-1.7386011264465584,1.8920710288130014,-0.4135816123268571,-0.766722411326885,0.23987967019631767,-0.3293558547839426,0.009206088035705827,-0.6128773952762924,-0.19291228129514382,-0.9560219541604339,0.1870595776618702,-0.5183639299689753,-0.2852635365707024,-0.9601954623584579,0.3028415942951781,-0.46421783748308504,-0.4614468119694746,-0.5412760088899009,-0.5522081446703818,undefined,1497326099648
903d185fccf839df,0.04011319822854871,-0.3133560191045845,2.1375709273048553,2.2743166598109057,-0.5017889231390913,-1.7715482130888223,1.878385510637752,-0.6183200769412218,-0.5266421944592514,-0.5557553586309267,-0.22223844212033073,0.04326119737528539,-0.8000083556149733,-0.24661063468292574,-0.9812851502018954,0.17493601891809957,-0.5728833755848715,-0.32110799920766403,-0.9909114621070707,0.4047485048316976,-0.4771842891046303,-0.4742873784766224,-0.5371668226984465,-0.5232569340545599,undefined,1497326101177
903d185fccf839df,-0.2703541256258772,-0.2887013599554939,2.2817613707100577,2.2382207443180335,-0.7568433544484771,-1.7805367473886435,1.8983509931990572,-0.6200557550070321,-0.6085877322697623,-0.6527343286875239,-0.15852175797951087,-0.05622973692038551,-0.9436204879679144,-0.31604816798394647,-0.9570745989856984,0.20120375308353722,-0.6289821449926983,-0.3092970600964378,-0.9753435583835948,0.5037297116084728,-0.4537371678576395,-0.4794974486486968,-0.5630797372422126,-0.5312815732817826,undefined,1497326102647
903d185fccf839df,-0.2869862506990564,-0.3421197540125325,2.238376889663141,2.0957050104307355,-0.8642980314193607,-1.7691281350278474,1.8626671460049302,-0.9300208383957911,-0.4561407932218291,-0.6325825526015215,-0.07078271002811723,-0.019123982256784314,-0.9914911987522282,-0.3151223689146753,-0.9686535300944633,0.1991831929350839,-0.7040182832523356,-0.3496949088830978,-0.959789647462186,0.4013762478771865,-0.4920708801525249,-0.5203951527380006,-0.5028159240019218,-0.5150118741764373,undefined,1497326104156
903d185fccf839df,-0.4228156919458391,-0.427824031422232,2.163729751782905,2.1762663342668414,-0.7999815675517424,-1.8139822963916545,1.8605580444127272,-0.9466746361360101,-0.5338725747395653,-0.40532112628904593,-0.23391877690293664,-0.07136257342365199,-0.8870460115864528,-0.34382317612404495,-0.9360219233474241,0.18301828777663434,-0.7110167400083505,-0.37179054761839514,-0.9381904920044987,0.39681830844241744,-0.5030467050615756,-0.5041384561688348,-0.5049712362921748,-0.46260448099491186,undefined,1497326105648
903d185fccf839df,-0.2717402079349124,-0.3961252799796618,1.7509363755192233,1.6792647917645553,-0.8304683758863654,-1.8393942968601071,1.9194262646066405,-0.6138158433680835,-0.47228046279896896,-0.47629772116369007,-0.19609958023645457,-0.09005037313983359,-0.7521376448306596,-0.4308515910830433,-0.9286535052796125,0.18099781242234564,-0.7456443430879882,-0.4832440212984199,-0.9174659386954969,0.32866478713359065,-0.5673533865029501,-0.4987783184793221,-0.5313844138980108,-0.4174268842025786,undefined,1497326107148
903d185fccf839df,-0.18442123212568104,-0.3432938570787561,1.9895524190304879,1.980500956108253,-0.8214581036642462,-1.8740813266709002,1.9740420831721424,-0.2620081171233338,-0.4674135457432079,-0.4451367799424928,-0.2930799809975117,-0.20023413223448708,-0.5388953877005348,-0.4373323917803341,-0.8918113339559833,0.07996740249834935,-0.7380968719596221,-0.5026291614076901,-0.8870577986499262,0.26759455249361824,-0.5844013692636456,-0.48771130025278486,-0.516334272542431,-0.3677693363379733,undefined,1497326108654
903d185fccf839df,-0.32302263095807576,-0.3720575773727079,1.757315975360599,1.7026181923025765,-0.8732774471245144,-1.8153938161948693,1.941374630240394,-0.4558036969313137,-0.47105525485136734,-0.3550272179664167,-0.18348074219852464,-0.18181896630189542,0.20962845365418897,-0.4252965506026999,-0.897074499184435,0.19312139943083784,-0.7796163424337841,-0.5023948413566102,-0.8919415716325317,0.2934485432460588,-0.5749814712446553,-0.5137542201234,-0.5508184642847538,-0.38324613401546936,undefined,1497326110199
903d185fccf839df,-0.4325178195387591,-0.33331458749669635,1.7171214213028445,1.6062336852851704,-0.9344670554754964,-1.8218434786880493,1.9618923715290648,-0.36941639167281815,-0.40501782143349274,-0.2745863309040071,-0.12407549767379412,-0.14738696458000322,-0.3517644273618538,-0.3577106542925451,-0.9297061280181756,0.20524498643933,-0.7587370924206429,-0.45953347874734135,-0.8878344440822336,0.41181639531677366,-0.540084448281645,-0.47709458850586073,-0.47232226974144276,-0.3795155443757717,undefined,1497326111656
903d185fccf839df,-0.4671681519941529,-0.423127911437261,1.6788410267481473,1.650110221069514,-0.8477791982826183,-1.8147719079215843,1.9526670131221813,-0.41046015093805965,-0.4465622066071979,-0.08421520009848031,-0.14698738673957043,-0.06658077083838977,-0.9827874331550802,-0.34382316317327044,-0.9591798444628243,0.37093487567351685,-0.7670593340511112,-0.44228253935623574,-0.9089788062151136,0.4526838705947406,-0.5227812456053866,-0.510263156988712,-0.4483833591663285,-0.4289833030538031,undefined,1497326113166
903d185fccf839df,-0.03195956228948988,-0.41256161224308363,1.6373701969303887,1.7128160612685963,-0.6508080999919444,-1.8438268367572463,1.9192027357641985,-0.598406228739778,-0.44318917657011847,-0.20969556951871215,-0.10234311487792884,0.01105536638778559,-1.017602495543672,-0.31789983087636153,-0.9181271674604754,0.46590343556382396,-0.7145817791241715,-0.40346159442003965,-0.9078033409846338,0.60144825202439,-0.4753640699420628,-0.45941780818107525,-0.4188149636051988,-0.4291158983399403,undefined,1497326114646
903d185fccf839df,0.022094956340924458,-0.4031693722731414,1.5059394614818362,1.479204593899776,-0.6027327550949394,-1.8086390212480636,1.9593809039836738,-0.23123400857134213,-0.5142789492004255,-0.5148723803132405,-0.2680378844915829,-0.029550316075580427,-0.9697317847593583,-0.2993831501491129,-0.9412851033003433,0.5487483801809174,-0.7162212561638123,-0.4015173800799004,-0.8934738720767507,0.5779040287889325,-0.46744647200586215,-0.45754281047376355,-0.44054370582139357,-0.4152117406580626,undefined,1497326116145
903d185fccf839df,0.17871466607176287,-0.2722649107801027,1.5391160236812633,1.38344464384204,-0.6095933133451621,-1.7551107763431388,1.9171383327125837,-0.3916498831408116,-0.6046186416392311,-0.4665985738183327,-0.2659641034118932,-0.11501218066524266,-0.7651932932263815,-0.3197514937687766,-0.9549693166974034,0.43357368177636796,-0.7324232412304044,-0.39431049010305175,-0.8921164913110936,0.5528045611498575,-0.47030163356774696,-0.4530532059858562,-0.46714847661696535,-0.3994100592814576,undefined,1497326117650
903d185fccf839df,-0.23015963646139115,-0.36970948815223004,1.525080039964609,1.2942113992587894,-0.8327723669616641,-1.7336957508482085,1.9064244934987764,-0.5178539650478532,-0.5043859801488366,-0.4521706731459181,-0.2835300637035671,-0.05628060622386317,-0.6955631684491979,-0.30678987942342034,-0.9054955768019785,0.3729555206161348,-0.7452166629117831,-0.4306805852381371,-0.8916616993687423,0.4986482272498109,-0.489270432007788,-0.46047711145100284,-0.5133453410432142,-0.4020760428159083,undefined,1497326119147
903d185fccf839df,-0.2370898064686991,-0.4248889564316251,1.685858764469525,1.7070898642929757,-0.7009097356737332,-1.7268012013354088,1.8268886484078304,-1.030288436155178,-0.5370077268367223,-0.28596596854039,-0.19647102139173103,-0.017345751648022358,-0.678155637254902,-0.36141404483124795,-0.9244429775141915,0.25980141062476014,-0.7553163336521371,-0.49395302657092677,-0.8668719981145878,0.4666502535198854,-0.5191297601387328,-0.4301553092342638,-0.5486299988545748,-0.39653101299803656,undefined,1497326120655
903d185fccf839df,-0.3077765536885219,-0.43310716640532454,1.2035223368178272,1.350275562820981,-0.7194137062843649,-1.8261409230217818,1.9132094084329403,-0.6656602450871758,-0.4773278299761009,-0.01603078788737557,-0.23842058848613454,-0.010877779323451197,-0.7303782308377896,-0.3623398439005191,-0.9160219146211156,0.2658632041290062,-0.7559756587911178,-0.48907032879507395,-0.867459730564667,0.49903318678395325,-0.5096801145964069,-0.4539160505687368,-0.5942998797084056,-0.3769914839283483,undefined,1497326122164
903d185fccf839df,-0.19135136762757926,-0.477720393946527,1.7286056159103387,1.7643439374986027,-0.6488229671792692,-1.8406124879453951,1.9152001769875728,-0.6393520567681944,-0.49221520527853446,-0.03911647119404602,-0.25128162910373,0.02236354588302372,-0.8304715352049912,-0.3808565505293169,-0.9033903018759173,0.1527092354612393,-0.7480877767031862,-0.45682931424983797,-0.8944744177938291,0.46369375654445893,-0.5058197003194989,-0.46233451687677224,-0.6487406907645803,-0.39397332096777904,undefined,1497326123680
903d185fccf839df,-0.1968953518096228,-0.40199534227689865,1.5474102912995948,1.5177744342937014,-0.6782503430114436,-1.8425317802400267,1.9877381223944097,-0.16815731636770814,-0.46304995607720767,0.30761756447499505,-0.204876784348382,0.015456712218243464,-0.8565828319964349,-0.3669690335084931,-0.8539165840671938,0.24363656199575368,-0.6826174094533906,-0.43576594533395535,-0.8426490391225651,0.5822771870937432,-0.46760926388904184,-0.39062096013101855,-0.49748868544331865,-0.28071286346402763,undefined,1497326125167
903d185fccf839df,-0.17610518684179627,-0.40199534227689865,1.5110440562479546,1.632194650285386,-0.7377325293309973,-1.8416629743601427,1.9882667134143635,-0.17673312430796123,-0.44673669418126405,0.18751800811824496,-0.17948851518408987,0.08213282196599232,-0.847879066399287,-0.36882072230245727,-0.8897060811166235,0.23555420834305427,-0.6618605694000455,-0.44099695696650776,-0.8496108661956584,0.5689575337212781,-0.479917468678386,-0.3729402667449095,-0.4470566728438132,-0.2764040913344116,undefined,1497326126651
903d185fccf839df,-0.25094997395626634,-0.4301720914147176,1.218196712551433,1.210628950999142,-0.7054971582333278,-1.8120723190959143,1.9592468049574636,-0.34935483915675947,-0.49205599322679777,0.24097848662728918,-0.14541153562132667,0.009148460185871551,-0.7826008244206774,-0.4438132960838213,-0.8865482129009344,0.36891425899562047,-0.6157665138504953,-0.4660627475267152,-0.866011390229947,0.6161537651504635,-0.48193578325103414,-0.3656514527844647,-0.4743598080066194,-0.3256695250905913,undefined,1497326128187
903d185fccf839df,-0.4158856599601701,-0.4988529923348816,0.9259875067349138,1.026058216644958,-0.7953015826151185,-1.8110823919413213,1.9661605593109106,-0.3659750140868498,-0.47009774840599683,0.0393417025307584,-0.16623453926729181,0.00435749903716849,-0.9044535427807487,-0.40307655704139567,-0.9076008664525073,0.27798690419638455,-0.6277462985715471,-0.4361205890559461,-0.8602390209569524,0.5614430888163652,-0.4839738306806258,-0.36406164351592474,-0.4395261438961557,-0.33044880295029905,undefined,1497326129647
903d185fccf839df,-0.20936954050438406,-0.5411181014276139,1.105268417705651,1.2077830923149513,-0.597898486765276,-1.8152447428426834,1.960937761775697,-0.3563020277297652,-0.4578895975664488,0.04834478434756403,-0.14400612415523567,-0.005757536891876546,-0.9349167223707665,-0.4891791211280246,-0.8991797667482624,0.36487299737510615,-0.6887021413018428,-0.48461193765871985,-0.8776190985690294,0.5453979076247366,-0.5189299355469134,-0.3303152735581013,-0.3482500530123529,-0.37628705431777065,undefined,1497326131155
903d185fccf839df,-0.16778900353627255,-0.5358349664445213,1.432568599361604,1.4850629655453902,-0.5620836856802873,-1.8140847816089,1.8998499958386403,-0.7360701168628274,-0.4168375370248324,0.3395622933125414,-0.15452906771971675,-0.0413217296647532,-0.8565828319964349,-0.4984374744424235,-0.9318114250309382,0.2981930709753484,-0.7377111516986617,-0.5038830842170571,-0.9341323398425564,0.4834345631488797,-0.5492369744200095,-0.4106753688862326,-0.48711915953268736,-0.5190938028364728,undefined,1497326132654
903d185fccf839df,-0.03888969779138811,-0.3908420573125923,1.8332393890008396,1.7100051100584688,-0.6352664241760505,-1.7974330503738365,1.8878896303068253,-0.7651752385165823,-0.4986478713784705,0.366319721879673,-0.17582847074198146,-0.008986426899125126,-0.8826941287878788,-0.39011492974526485,-0.9023376717751205,0.4497385304053744,-0.7278988502831947,-0.465613106327564,-0.901345284368066,0.5404858015753365,-0.5074457806255661,-0.3702524689492157,-0.5069626214624605,-0.5210151577203732,undefined,1497326134143
903d185fccf839df,0.056745357807137735,-0.2781351484452936,1.4753149425285188,1.4390803249241793,-0.6905726124686763,-1.7956814627320774,1.9111502644644922,-0.5999414437628011,-0.5954454232032012,0.36035505822631486,-0.19329228163063972,-0.06086659706143994,-0.9175091911764707,-0.348452365732019,-0.8844429379748732,0.4719652290680701,-0.7393434706496611,-0.413594307913773,-0.8736519076889273,0.6070378889195377,-0.46238663490398973,-0.37225482283715705,-0.48676371685202374,-0.4673707970572128,undefined,1497326135711
903d185fccf839df,-0.10957637600039148,-0.2822441949761586,1.3107078990174885,1.3741970650032835,-0.7516079414996791,-1.774422495632772,1.9581422639334924,-0.26676839804756725,-0.584774752521442,0.16987986892724477,-0.24721537575949912,-0.024850270091810723,-0.8391753008021391,-0.3614140318804734,-0.8444428763488535,0.32648156314229015,-0.7232753360854053,-0.42126983596636197,-0.8867569346628068,0.5296760983108164,-0.4859838719825372,-0.37922745263338087,-0.4722607606714323,-0.45367137526950047,undefined,1497326137184
903d185fccf839df,-0.24124784636334637,-0.3609043508643862,1.33750486137554,1.3925252783666522,-0.6252378617755153,-1.7835927101920168,2.0405288233116825,0.2843626316651173,-0.6292974515295466,0.43052037778223734,-0.25804793003997417,-0.03325937350561599,-0.8870460115864528,-0.3373423754267541,-0.8381270736573713,0.42751197306628647,-0.7702936971812528,-0.4207442029311816,-0.8744215569465325,0.580106007807058,-0.46743095753937136,-0.38794691793435443,-0.48576378612515336,-0.43733042397651367,undefined,1497326138662
903d185fccf839df,-0.2343177798722676,-0.35386014165893726,1.6794789104912,1.7839744695646336,-0.5634413964010297,-1.7763953622365365,1.9961955630008426,0.031614225939273044,-0.504805502476134,0.43270481992589416,-0.28290052179943725,0.014202217726093952,-0.8783422459893049,-0.3012348518938515,-0.8349691980794484,0.49823313282183695,-0.7330730354482337,-0.43993302297129916,-0.8515349892846175,0.6847538384289865,-0.4536401203894586,-0.38569692314043363,-0.4407181179843695,-0.4189105608080077,undefined,1497326140149
903d185fccf839df,-0.2010533226934506,-0.3908420865405846,1.9155429107563546,2.0141852408981955,-0.5254254578102412,-1.7915121254735002,1.8819988653106499,-0.7302522724534845,-0.43665310180230876,0.781402767587506,-0.23223693703471676,0.011347175064425601,-0.8826941287878788,-0.29660566228587754,-0.8781271058344557,0.5669338454878203,-0.7249219947992978,-0.44363779550426347,-0.8909690150552488,0.5884827601374161,-0.47955159479086673,-0.37132781607727006,-0.4118059892174157,-0.44285058728126164,undefined,1497326141664
903d185fccf839df,-0.07631205684321342,-0.3350756324910605,1.91171484588719,1.9638575318906277,-0.49788036065709645,-1.774019540004748,1.8113938327822452,-1.11558667059075,-0.4181103086422233,0.925676564864031,-0.3048838857294362,-0.10242642880988577,-0.5824142156862745,-0.3447490140456398,-0.9076008222791045,0.589160600679959,-0.7867255710786207,-0.4952259527237086,-0.9202366745180781,0.67340518650444,-0.49689140994138176,-0.43819519684477465,-0.43298117016019,-0.44403768232658863,undefined,1497326143164
903d185fccf839df,-0.07769807014142918,-0.3391846790219255,1.6673568321406533,1.6538350580766805,-0.5875716374881922,-1.7494344197082525,1.88016589334401,-0.6895743029091499,-0.48123683165190406,0.7713307799230559,-0.2581819153669774,-0.08905859880166626,-0.32565313057041,-0.3438231890748195,-0.9591798665495257,0.6376550617728138,-0.728353895909414,-0.5046620376292494,-0.9318373869149067,0.6243149434717387,-0.5148678081030537,-0.4396777600224073,-0.41639616094839765,-0.448453927376898,undefined,1497326144655
903d185fccf839df,-0.02225750370738935,-0.2763740449949447,1.3100700152744358,1.3197843994038938,-0.6183258715251849,-1.7544469433875791,1.9214880402117158,-0.4168547974036565,-0.47847230913811656,0.32672591216008273,-0.21617760596349833,-0.056640422282781586,-0.8130640040106952,-0.3604881939588786,-0.9970746385250167,0.6235108580864253,-0.708080596181737,-0.5158080163421597,-0.9356296583672462,0.6482903254144355,-0.5132562682807169,-0.4386606291702192,-0.49632937500621616,-0.4710302163560491,undefined,1497326146149
903d185fccf839df,-0.47964230618350445,-0.2476102808590044,1.4395865912199313,1.420570633763699,-0.8956694072226472,-1.7875244689346212,1.8631089833649548,-0.8988974794103821,-0.4963976040933524,-0.1065308396692141,-0.3402740135229581,-0.0815502456926431,-0.8565828319964349,-0.3808565375785423,-0.9844430478665197,0.43559424192482127,-0.7434670052404129,-0.4990510482853303,-0.9355456962941707,0.5569621473168465,-0.5198296325260668,-0.4456708988152154,-0.5861677166822244,-0.5054900157570394,undefined,1497326147712
903d185fccf839df,0.14129227251452783,-0.2393920270433165,1.8058053053105836,1.6412907929890832,-0.5568688321424453,-1.8163534623009594,1.865683560955864,-0.8214454905671645,-0.3601113310295371,0.3597318251117562,-0.38844371934225225,-0.06464838117929865,-0.2560230057932264,-0.3271581841907604,-0.9297061059314742,0.5002538060291765,-0.727286778385885,-0.4714837444299598,-0.9037172035733467,0.6780247256982599,-0.47007604204427533,-0.4631322084246054,-0.5643089188449452,-0.5098830326341505,undefined,1497326149151
903d185fccf839df,0.3491943707631199,-0.35151200859647086,1.9008687891596983,1.9723784982122017,-0.4044245175696242,-1.83989275324906,1.8730338673981242,-0.7919650570268969,-0.34355917186364526,0.8520049744066354,-0.40266835333762524,0.04121299943729214,-0.2560230057932264,-0.3216032084642898,-0.9307587581189725,0.6598817604355095,-0.6320898479385254,-0.42318871693169524,-0.8804598050206067,0.767227918741593,-0.42499267954527037,-0.4167669734293915,-0.4818819391848558,-0.47610321702773706,undefined,1497326150653
903d185fccf839df,0.33810622987198413,-0.3738185931390797,1.8064431890536363,1.975341278209791,-0.3878336885786608,-1.8240376233441422,1.8603345318068727,-0.8637783051537163,-0.3765278817516225,1.1608764268034562,-0.35035349342206296,-0.08905694608061378,-0.36482007575757575,-0.3271582100923095,-0.9591798518250582,0.5366247649077037,-0.693388471178431,-0.43841311399168875,-0.8992392452300965,0.6604089010517639,-0.4560414321228838,-0.41903019862868196,-0.5410100656511726,-0.4417445606128071,undefined,1497326152164
903d185fccf839df,-0.09017229334160015,-0.4548267505638082,1.7311576591564484,1.7810325295736016,-0.5992767661893943,-1.7617887040690114,1.8193910766379322,-1.125750675922608,-0.5197828536469741,0.9672777980538863,-0.26966593611090095,-0.0405537808710527,-0.5127840909090909,-0.34197152618240445,-0.9539166939588403,0.3588112321355816,-0.7052034183219745,-0.4188949830451832,-0.8941805509907271,0.6719423354659622,-0.4471716608140017,-0.4174822066149003,-0.510308225269016,-0.4562917818988656,undefined,1497326153650
903d185fccf839df,-0.08324212333429219,-0.45600086824402797,1.6718225266159212,1.767196382620381,-0.7943964371326543,-1.714288528233517,1.890969135400364,-0.6647533577986353,-0.5249045378425948,0.7867368336903882,-0.1714777852987177,-0.08278082342911303,-0.6259330436720143,-0.32900986003395,-0.9349692932466273,0.43761488686743916,-0.6745268107223856,-0.4330111134002934,-0.9063969832034827,0.5343726226237682,-0.48193950576606537,-0.39117707104487826,-0.46582386526979996,-0.42951892974584965,undefined,1497326155161
903d185fccf839df,-0.2869863542152857,-0.5282037714689434,1.356644931584414,1.4171082290209136,-0.8439117808433646,-1.681404329070863,1.8946613847009317,-0.63914797716797,-0.5224544478526183,0.4299023578771465,-0.03720124688793373,0.03864529586462735,-0.6955631684491979,-0.38733739007893137,-0.997074623800549,0.0860291677378739,-0.7254916137282458,-0.5234582144416021,-0.9472303715654097,0.2793281719085322,-0.5930422616337679,-0.373050660349509,-0.44019130049348876,-0.37823560462884714,undefined,1497326156646
903d185fccf839df,-0.44221987812085967,-0.44426050982561555,1.0657117473909496,1.163657516859566,-1.029064611446372,-1.7614928906385106,1.9696844917621092,-0.3344806157945629,-0.5099379339589175,0.27190792339030795,0.011454021230209896,0.035274196183525786,-0.673803754456328,-0.5308416527643341,-1.0307588827350864,-0.12209344561436478,-0.7991244647665605,-0.6239556977688685,-0.9949626146381712,0.002648902406480279,-0.7149610674431619,-0.39242220526136834,-0.4505366086663529,-0.4140308464096537,undefined,1497326158165
903d185fccf839df,-0.5170647342461492,-0.5193984588131455,0.7792445118097026,0.8148594848705457,-1.1341124348181257,-1.7880299133207447,1.8935016466110728,-0.9237760066731034,-0.4181490670483259,-0.042566660734318834,0.0638295487366479,0.05816022529032976,-0.9001016599821747,-0.6521258765607217,-1.0233904499428075,-0.15846436209580975,-0.8553695138028492,-0.6825734224536089,-1.016757680659713,-0.22012040712452,-0.78631104708598,-0.40079704777436703,-0.5338042485048136,-0.45936233332408355,undefined,1497326159697
903d185fccf839df,-0.4740983220014609,-0.6203651554019934,0.6076194764403451,0.5705565621616753,-1.096065639240249,-1.8520979668706894,1.8730969853000559,-1.1488044994522342,-0.3695584611687087,0.03716693644440326,0.014439579653141972,-0.07621470881821321,-0.9871393159536542,-0.7447092607708033,-1.0276009777082284,-0.182711663304041,-0.8949426728411246,-0.7596200154874461,-1.0256646207405624,-0.2733374334291275,-0.8297789972338985,-0.44562359434010246,-0.5978351809356947,-0.4929231978331634,undefined,1497326161163
903d185fccf839df,-0.5475570613123055,-0.586318285510953,0.7945572795602601,0.7542395310379946,-0.9230190736734207,-1.8402910540622726,1.8709379197989684,-1.0929758803185672,-0.3614235061564911,-0.05121321588260719,-0.06319708985882126,-0.05329705263360889,-0.6955631684491979,-0.7567450954730502,-1.027600992432696,-0.2150414029591363,-0.9048692609367578,-0.7672322140036012,-0.9891622580788505,-0.2650222725246503,-0.8227818206845595,-0.44374241894629335,-0.5749980811450163,-0.47325025567020684,undefined,1497326162659
903d185fccf839df,-0.6681403562787149,-0.5599026105954906,0.947679874326847,0.9203271470818364,-0.8430272057507157,-1.8364990521607607,1.8951005739258613,-0.884411359815047,-0.3929160901550618,-0.1452132075667711,-0.11740822579715814,-0.0227754538403521,-0.691211285650624,-0.6539775265023623,-0.966548291979571,-0.039248500997271354,-0.8287951200570328,-0.7227052875504516,-0.9658698742789001,-0.13256484750161798,-0.7666412289119205,-0.46916553409819284,-0.5713014519303403,-0.5044564910603652,undefined,1497326164160
903d185fccf839df,-0.26203804583658263,-0.5147023388281744,1.3547310262183063,1.250735622990244,-0.717274277075263,-1.8497966789733005,1.9138563385137146,-0.7237679897334155,-0.46177676080240704,-0.00043354047701956404,-0.15766927756519014,-0.048054656303790876,-1.0088987299465242,-0.6400900418584748,-0.9212850724873335,0.06582309988543542,-0.8401369648088255,-0.6721050663777066,-0.9431862137470339,-0.003156309790131695,-0.7116403337077746,-0.44509130505893485,-0.5504974984993325,-0.4700175203186752,undefined,1497326165656
903d185fccf839df,-0.08878624553797466,-0.5381829679810223,1.7560402078744934,1.7610769647704148,-0.5572699747770629,-1.8585406423488595,1.9444225729785207,-0.48256851671135503,-0.38595512543436783,0.4463411848019038,-0.12397700845688282,0.1366414578535171,-0.8739903631907309,-0.5123249526109236,-0.9160218925344142,0.05774067557093217,-0.8394184217523067,-0.5965403833935189,-0.8938237131344176,0.2119137763176849,-0.6218264833951005,-0.445246898871579,-0.5496577586563546,-0.5208362125889852,undefined,1497326167158
903d185fccf839df,-0.005625309623390587,-0.5534453871601707,2.0176248947376956,2.1795992786890483,-0.48069296320841515,-1.8800302035694334,1.921924582349072,-0.6254899032177631,-0.3157234758188392,1.1081786881873108,-0.0956458604988232,0.06979106054436629,-0.22991170900178254,-0.3280840221123552,-0.8823376556865782,0.12037945340906173,-0.7679965122716794,-0.4745868886479083,-0.8781088763152437,0.39597139480445953,-0.5350916866259312,-0.44374559149372794,-0.394516522133945,-0.4799167277430925,undefined,1497326168668
903d185fccf839df,0.044271238123195965,-0.48946072313694705,2.4954956279141256,2.3024588897795066,-0.2959721294303852,-1.8539264191996043,1.9213328692370992,-0.45701673516129326,-0.3262561888355523,0.4557091724033887,-0.10322103751572105,0.07436824038180836,-0.7086188168449198,-0.25586900094809917,-0.9223377025881303,0.3002136876532448,-0.7457757693118137,-0.3917266541265784,-0.9167382691409103,0.8509184655688443,-0.41685474407501616,-0.4587232923400255,-0.2086856911244641,-0.5832649892016483,undefined,1497326170156
903d185fccf839df,-0.007011391932425808,-0.43897740407051544,2.438712284482759,2.413358011579807,-0.3822691242982809,-1.8594933010729888,1.8702646707331216,-0.8031552054036027,-0.36212037671569697,0.23178453812086014,-0.15808147388068525,0.048591099579558435,-0.7651932932263815,-0.21883562654282726,-0.9097061266541009,0.5871399274726196,-0.5861966092544687,-0.33185500471678486,-0.9107350051701558,1.0051338974672932,-0.3639683548313433,-0.44022138751666046,-0.13395612023952663,-0.5858713223630747,undefined,1497326171697
903d185fccf839df,0.03595515833390145,-0.44367352405548655,2.0176248947376956,1.879525628197475,-0.2862109986357574,-1.8523471964065767,1.9154552548295243,-0.4508550989409726,-0.4935587398312466,-0.28367655662581875,-0.2182951792567676,-0.07171929357314351,-0.7869527072192514,-0.19939312084475833,-0.9128640022320238,0.7568710217978776,-0.4916599126098965,-0.3024574807366079,-0.934132340509316,1.0664813020251782,-0.3431426947511945,-0.4670042390629215,-0.12237546462726281,-0.6005522471723876,undefined,1497326173162
903d185fccf839df,-0.07354003024678192,-0.3890809830902358,1.3381424909816433,1.2546736329999149,-0.36096744393314406,-1.8524916093187227,1.9607904875441233,-0.26200690157523787,-0.5224087413496915,0.4048720157309484,-0.17543729582136555,0.043020407535667465,-0.7173225824420678,-0.20494809657122892,-0.850758671678102,0.9164989762042107,-0.4541117404446202,-0.31974641796141445,-0.91985884645547,1.063201435958742,-0.34064899363235357,-0.46846821016192397,-0.18883632189361302,-0.5996268891809015,undefined,1497326174667
903d185fccf839df,-0.027801522394842623,-0.35796924664578694,1.4217220343602133,1.31954404856765,-0.4724746842368458,-1.797116275717549,1.937585076116628,-0.3475939481359602,-0.5453828010387313,-0.0317334400839127,-0.2076783777659549,0.027510129120805468,-0.2864861853832442,-0.2549431112234062,-0.8665481452767556,1.0619827834535982,-0.29682853202292814,-0.3549259195688803,-0.9234622029558877,1.1270125929727162,-0.34491960823823004,-0.4775792340607427,-0.15016714306161058,-0.5403363458690521,undefined,1497326176151
903d185fccf839df,-0.018099429307332358,-0.36794853084184287,1.3815272261655096,1.2538528847993515,-0.44743930124014947,-1.7858753646001486,1.937842797903587,-0.3403260497734913,-0.48214141889836115,-0.018976323513063935,-0.09071867098912179,0.06573161090854433,-0.2864861853832442,-0.38733737712815686,-0.837074458281042,0.791221335733787,-0.5216776133520474,-0.4129736798652486,-0.8935578334891835,0.7519064623858196,-0.43627028938358586,-0.49656490467662295,-0.3331260042361406,-0.48862693519113165,undefined,1497326177655
903d185fccf839df,0.05535927549810252,-0.40082137073664054,1.3362285856155358,1.449234171036775,-0.38639368384941447,-1.7928491077634292,1.8704829454681264,-0.7559324683390709,-0.49694862661154016,-0.13052172753800356,-0.0645360770807975,-0.01899659726125465,-0.6346368092691622,-0.4354807547894681,-0.8360217840068425,0.5649131722804808,-0.56292973667878,-0.4617373453617401,-0.8759048804731303,0.7305180236668118,-0.45080409892111145,-0.5036269067235645,-0.41181809883515613,-0.4647645941585876,undefined,1497326179155
903d185fccf839df,-0.00008132544134704673,-0.35503414242718767,1.1741735853506152,1.2087438620346258,-0.43939588815258723,-1.7978872526360754,1.9262848074907761,-0.43160943686039116,-0.4772422946357094,0.13058909958134413,-0.08706863875260061,-0.0878914486621048,-0.673803754456328,-0.407705707797046,-0.846548143912681,0.31839906816598307,-0.6453818644542945,-0.46769664584385584,-0.8541168116661911,0.6285495193485071,-0.4696046509808369,-0.5077624601164074,-0.4287905241879817,-0.43753646268935076,undefined,1497326180642
903d185fccf839df,0.026253065246391184,-0.32744443751548247,1.2558392233630775,1.418858572804897,-0.43641303675562526,-1.8001186644854175,1.8930203847208122,-0.657751220637022,-0.4344463519995399,0.24223632398529157,-0.057807938852600826,-0.012262912474527099,-0.669451871657754,-0.3734498730581076,-0.8802323954849846,0.24161586052369266,-0.6948050979196894,-0.5209060385548632,-0.8608547404303242,0.7439300701082459,-0.4818629522228222,-0.5184551076239438,-0.3486206499020611,-0.4756377577625259,undefined,1497326182133
903d185fccf839df,0.04149914251594499,-0.28283118074628766,1.562722804913203,1.6277252561314182,-0.3544977457413136,-1.8089115419153572,1.933080213879467,-0.3410345807655118,-0.5369048439490941,0.5182065428998388,-0.18031479444317347,-0.05978073514811529,-0.673803754456328,-0.25216561040939633,-0.9360219307096579,0.4780271356312023,-0.5911774373681057,-0.42091518813062845,-0.8525565235930906,0.8791746132589509,-0.4169051105307109,-0.3980610179692457,-0.103620998913582,-0.5343742201398818,undefined,1497326183629
903d185fccf839df,-0.29530243400458017,-0.507071202308581,2.0986523948701556,2.067969096095395,-0.4756529673824516,-1.8722109473909538,1.9619134120518174,-0.28647972553350676,-0.512104472745615,0.5036811954081334,-0.2367946997825342,0.06344797695144914,-0.9218610739750446,-0.19013476753035943,-0.8697060797525489,1.0013645374992004,-0.3903129193460102,-0.33030343049834077,-0.822729118244695,0.9233527493941263,-0.3580101323218803,-0.3546209273831399,-0.07227144174585937,-0.5818927540648992,undefined,1497326185132
903d185fccf839df,0.008234754347947466,-0.5053101134722283,1.8421720486361226,1.9010240070614977,-0.40993765407899785,-1.8935677419185755,1.9330644350586854,-0.5152673780373098,-0.38907117599019964,0.48512510500576866,-0.16372087873920768,0.04199752694526036,-1.0001949643493762,-0.12902973667136822,-0.8528639466041632,0.9569111401738092,-0.3797505433196925,-0.189300446115378,-0.8018786227191708,0.962387808694699,-0.2734106689603248,-0.29242273179820694,0.014623335409361508,-0.5464090345712206,undefined,1497326186630
903d185fccf839df,0.3491944397739394,-0.33155354250233215,1.6526824564070473,1.5279289395252857,-0.0718879361289289,-1.7933033114844132,1.9147820130963302,-0.2646386920169621,-0.435027011006237,-0.40340334797117233,-0.22130136222960378,-0.01788952380989117,-0.8870460115864528,0.0070678032151143344,-0.8054954816347996,1.1266422344990672,-0.23484489344427223,-0.22223175354233274,-0.7333308664196719,1.7522356675587212,-0.11059786504524155,-0.18047750948902944,0.42887875166836187,-0.1400297676543514,undefined,1497326188130
903d185fccf839df,0.019322929744492956,-0.2746129707725882,1.8096331160427988,1.4805773986502986,-0.3123983860684204,-1.8056599264371271,1.8751587302651185,-0.5941150530042028,-0.387973299758482,-0.8583425376650775,-0.235177938018703,-0.041662066548515723,-0.8130640040106952,-0.06514723089991627,-0.7770743658420125,1.3165792412207955,-0.21357548082759403,-0.2253792245346502,-0.7471565647119861,1.8940399613395122,-0.09636139082187675,-0.31127656560807526,0.49330318668018097,-0.12162213964002855,undefined,1497326189658
903d185fccf839df,-0.26758216804026513,-0.5587285513712554,1.9378736703652395,1.6739946756823654,-0.44357187911367496,-1.8805729174578814,1.921648455604194,-0.48905123153536245,-0.2604767893715677,-0.7479873022423029,-0.1848887665833615,0.013729293733788082,-0.6346368092691622,-0.12717806082817862,-0.7570743276667689,1.5974438571242533,-0.13460371183810416,-0.24164222234792618,-0.7332399084532789,1.8885889113822807,-0.10817844296027698,-0.30262780787638255,0.6907208354919084,-0.15038883897339467,undefined,1497326191218
903d185fccf839df,-0.16778907254709202,-0.5575545213750127,2.231358897804814,2.1980066419664985,-0.5962321970672789,-1.8897640954541346,1.8295868492832499,-1.2518963752250758,-0.370562436771485,0.40275538491542945,-0.2904855739648375,-0.07422529219020127,-0.8087121212121212,-0.25864652766365814,-0.722337460718136,1.5711759251057649,-0.1771598252555036,-0.21567082052072523,-0.7317006100726441,1.8755156279539666,-0.10199076429627629,-0.30594277601826775,0.5747736059329173,-0.15323935568673416,undefined,1497326192659
903d185fccf839df,0.18841669014845366,-0.36618747123348255,2.271553197725619,2.218727238055826,-0.31296409903543987,-1.8541500255959706,1.8466122120959592,-0.9932402299080145,-0.3398292327395061,1.1982514936649986,-0.3335621651259026,0.02953986580918949,-0.843527183600713,-0.31697405770863946,-0.7539164594510798,1.0134882093018573,-0.4971493021060662,-0.3291318387195762,-0.8142419859355894,1.0903796918887292,-0.3168350346083563,-0.4451307749436883,-0.13552678359178758,-0.5726718488937865,undefined,1497326194164
903d185fccf839df,0.3242462694168753,-0.266394775412885,2.011882924502423,2.0054171108713827,-0.321182367086165,-1.8560041009321233,1.835067362844053,-1.0680747237810972,-0.30978135066761747,1.0725258806458626,-0.2562088974900106,0.013311069745445749,-0.7956564728163993,-0.4049282458353598,-0.8497060342150714,0.874066308615602,-0.5417165544071786,-0.40459519455509574,-0.8020885251185969,0.9241380699368771,-0.37608734240561564,-0.41368247035549777,-0.3514435695368201,-0.5187322604212751,undefined,1497326195663
903d185fccf839df,0.08169359717502128,-0.4548268090197929,2.1815935462317744,2.183079029348016,-0.32238580320815774,-1.8844347959460883,1.8860198573282825,-0.7780991146066797,-0.2054846930540624,0.2540043549563811,-0.18415503348952028,-0.03215492969287029,-0.49102467691622104,-0.41881573695463453,-0.8602323720342085,1.2559610517958406,-0.5061523543185457,-0.36578691546196107,-0.7812310311611748,1.0829422332337821,-0.3192606245166923,-0.3932109523015858,-0.41192650661027264,-0.5055058531735442,undefined,1497326197145
903d185fccf839df,0.5210600887526926,-0.34211976862652865,1.9646696161754933,1.9065878866027008,-0.16161006938096545,-1.8443975039839433,1.9515072697947133,-0.17695303155043088,-0.26568029132474347,0.18162050573995941,-0.33061076658076355,-0.016434987173149024,-0.499728442513369,-0.36696904645926764,-0.8518113017788989,1.4863104203402182,-0.39843127787066274,-0.3402398215864485,-0.7719952418744466,1.3310419877721293,-0.25853025703075244,-0.3541886913364118,-0.3643925284654286,-0.4444495012705922,undefined,1497326198648
903d185fccf839df,0.3644405860543126,-0.31981315485592743,1.6909628509617447,1.5018523840298037,-0.16751405777260128,-1.7410165503536876,1.97350297058141,0.12289280017195707,-0.19934243700248264,0.1137199181864976,-0.3239604677996688,-0.093986428328302,-0.669451871657754,-0.2660531533317692,-0.8181270649310628,1.5934026237684604,-0.3708427120241638,-0.31341980673493675,-0.7717083734543062,1.342698613263561,-0.2421230248306785,-0.39315083148092506,-0.34515005343290156,-0.48649848739628715,undefined,1497326200151
903d185fccf839df,0.3672126126507441,-0.16777612420252638,1.7879407484508656,1.5039928110014649,-0.2199608216923775,-1.6647269781229694,1.9550206929835146,0.09589457130271241,-0.20628658056740118,0.19021507496820012,-0.2894216210723634,0.05287452636657119,-0.8174158868092692,-0.4428873934083538,-0.8202323104081888,1.5307638176656093,-0.35975400971714694,-0.39900953979851245,-0.8192097225755893,1.2924072910552555,-0.30542618736175475,-0.403963114378132,-0.3129597070073663,-0.47186341886030947,undefined,1497326201640
903d185fccf839df,0.1634683127589312,-0.3344885298089621,1.4548985965596406,1.4778164169082046,-0.25363619986590435,-1.656253206478108,1.967417599081403,0.13195087703844355,-0.17340880382839002,-0.07408554360818782,-0.237414106783861,-0.014269537404600128,-0.8217677696078431,-0.31604818093472103,-0.8244428234491423,1.5247019393671988,-0.27999522511051544,-0.3465537670584516,-0.8564327565006826,1.3942988069561624,-0.27529947619087913,-0.406772887520525,-0.20942207929795775,-0.41618418046521033,undefined,1497326203172
903d185fccf839df,0.27712174826672026,-0.329792409823991,1.5225277425815498,1.5189348017899862,-0.2835984375695442,-1.6341021405875715,1.8891861375559473,-0.3180328668303906,-0.4060607448988194,0.021166691133693297,-0.2918486404806868,0.017003159165938884,-0.8261196524064172,-0.2614239637237952,-0.789705971224977,1.1569513433439054,-0.50851457011948,-0.38104297709638835,-0.85281540532026,1.076890652102692,-0.34196700999268975,-0.4117880111751384,-0.23383848108696995,-0.4672340575775291,undefined,1497326204665
903d185fccf839df,0.08585163706966853,-0.3520990382085884,1.2188345962944858,1.1755284066114597,-0.3609571653219511,-1.6712139083421573,1.817768490519667,-0.8697120226330024,-0.42305609850452425,0.16832794948946894,-0.29044741658589124,0.06926696308769052,-0.9044535427807487,-0.3216032084642898,-0.845495521174118,1.1266421779696243,-0.5609075704280218,-0.417691722334629,-0.8589026308380227,1.108703842885247,-0.3491977733048937,-0.44771445761257833,-0.28919384282607735,-0.5634646336628627,undefined,1497326206139
903d185fccf839df,0.15099419307498943,-0.42195385221302584,1.4625549804349192,1.4985646727379187,-0.27323045195398643,-1.8125335103565128,1.8708484907683771,-0.7341842226427024,-0.3648783353489392,-0.08769468869688991,-0.338171144418834,0.07496268903325583,-0.6259330436720143,-0.3540074062123623,-0.7949691143667273,1.015508741185589,-0.6264409276397618,-0.41232771908417126,-0.8108205472703638,1.1698664688037013,-0.3208394926378497,-0.4335409088002969,-0.33510408496324245,-0.5078718732802884,undefined,1497326207648
903d185fccf839df,0.13990636273254128,-0.4360423290799085,1.9008690432966475,1.8446371724532362,-0.20255742795075943,-1.8443555750839926,1.8397220966430752,-0.9652073144065693,-0.3389020077041841,0.383535180165997,-0.3151537965554197,0.023506280456592824,-0.865286597593583,-0.299383201952211,-0.7686533103111703,1.0054057991197147,-0.5634730918640978,-0.3792317543243244,-0.7850442955663737,1.198245800139846,-0.2939783812981125,-0.43473937086581643,-0.2383794148497742,-0.5224374406929845,undefined,1497326209156
903d185fccf839df,0.2175231074326234,-0.4630450336074885,2.163729497645955,2.0821067921613374,-0.13957809938075694,-1.8806823900579939,1.8837371570199453,-0.7031009085672304,-0.36571707217693233,0.6808481427086762,-0.3257018065149278,-0.011860503140718728,-0.9653799019607844,-0.3373423624759796,-0.8107586321387837,1.132704112797478,-0.49578690918751184,-0.33136736733385913,-0.7713375432118895,1.2769164593384663,-0.255767131225966,-0.3458777095919302,-0.37971152753351023,-0.5624219800031944,undefined,1497326210644
903d185fccf839df,0.5224463090833668,-0.39906026728629174,1.9015069270397003,1.9369113482424425,0.018842199103833744,-1.8121724754250375,1.9442516362771443,-0.16657181061119347,-0.462965626810017,1.3495009371737527,-0.3833033193239823,-0.07379809588769953,-1.02630626114082,-0.2660531662825438,-0.8412849713219955,1.2195902625056427,-0.4453479910734907,-0.3168585928374342,-0.7799366229474055,1.353831693575316,-0.23957791878151893,-0.3473048414865111,-0.3633888095857867,-0.5433256382575851,undefined,1497326212143
903d185fccf839df,0.32008822952222804,-0.5698818655635541,1.338780374724696,1.3860717144030497,-0.27169789337193134,-1.8470295408634652,1.970544440637287,-0.16748462266562192,-0.4889184451091024,1.0047209071197813,-0.25593129327402747,-0.027667285144919177,-0.6825075200534759,-0.27901481948022366,-0.8644428777129282,1.0599622515698666,-0.42279346866087963,-0.3859636731931687,-0.8093862003188317,1.0463093330517699,-0.3424617375661624,-0.3167304683206179,-0.4186183988934161,-0.48794499540335606,undefined,1497326213622
903d185fccf839df,0.033183028221240744,-0.5152893830542882,0.903018609246027,1.045749695552878,-0.4470690262173878,-1.8206555672636442,1.9833989335853717,-0.1293562407564298,-0.4787538529438823,0.2945890524270268,-0.00012287519664614584,-0.04909111731395771,-0.678155637254902,-0.48825325730488073,-0.8865481908142331,0.6073460377221404,-0.5478045777660954,-0.5195634537256595,-0.8429149189818963,0.7553557083231454,-0.47401950220923794,-0.38709678688146676,-0.43399812296669044,-0.48828983009008003,undefined,1497326215145
903d185fccf839df,-0.06383793715927165,-0.5575544921470204,1.5480484291795968,1.6784985248477544,-0.3430703359294702,-1.840095397137122,1.8949980032106046,-0.6744734189417434,-0.5913313274822656,0.9107470831340672,-0.1574761945399558,-0.1360911088121383,-0.9088054255793226,-0.4799207678136257,-0.8507586643158682,0.4901507791691376,-0.6458047922830347,-0.4996780103959387,-0.8314611400294382,0.8370136677826817,-0.4496136067166703,-0.4165564350950386,-0.2718704177066283,-0.4441828227804592,undefined,1497326216645
903d185fccf839df,-0.08601414993072369,-0.5951235104827738,1.4185321073710508,1.5749371863092498,-0.39168053664836505,-1.874353847085405,1.8715217199313101,-0.90082674375907,-0.4753575441785658,0.8466301293064294,-0.10632570260639045,-0.07032259372029666,-0.3822276069518717,-0.4086315716201899,-0.7644427604590479,0.43963558833950017,-0.7061613641355305,-0.45102833572080386,-0.7754446710802749,0.8299765817812407,-0.3981500394407119,-0.4454352412588541,-0.4254919879937439,-0.5245609085254272,undefined,1497326218149
903d185fccf839df,-0.14977089967028723,-0.647954889541691,1.369405147814963,1.3598740423132056,-0.4052062277678246,-1.881965800921397,1.8225415743784885,-1.273333843794965,-0.45233570902200976,0.86702179804207,-0.039352699785461326,-0.13026824086739097,-0.15592970142602494,-0.5095474647476883,-0.798127034118053,0.30223419127225504,-0.7791949750535123,-0.48198376761608863,-0.8047543110902772,0.8246333217364096,-0.4233091373847357,-0.4504169933288907,-0.4247691172824899,-0.5486734885802628,undefined,1497326219718
903d185fccf839df,-0.07215408595938563,-0.5041361273179741,1.2577533828661347,1.430940461154734,-0.5041546373189447,-1.8707738078246232,1.8610734892960479,-1.050181209632715,-0.40674591867897575,0.5982124975768861,-0.07695063810779999,-0.17883039055111014,-0.847879066399287,-0.3688206834501336,-0.8560218516310213,0.29819301444590535,-0.7103184552620171,-0.4300852924081285,-0.8044604435653621,0.7930973082356505,-0.406011570014415,-0.4393458280954357,-0.4374167664952572,-0.5255699747262328,undefined,1497326221136
903d185fccf839df,0.07060542177847579,-0.5387700414351283,1.6195058942076201,1.639096051211571,-0.419781056492298,-1.8185103393619693,1.7908103395980917,-1.352093112906961,-0.4240287520876978,0.533565806755201,-0.22642061242830808,-0.005176256038168986,-0.7521376448306596,-0.2530914483309911,-0.8686534275650506,0.6053253362500793,-0.47679416912842904,-0.3433999580619442,-0.7798526579626088,0.8984688695495389,-0.34048365533474156,-0.3862584696096472,-0.4243984078536984,-0.5006612732097476,undefined,1497326222657
903d185fccf839df,-0.040275642078784396,-0.46010991477489305,2.2645352058672916,2.0712369802856907,-0.4256027604839328,-1.8549536141359275,1.8731101165095037,-0.8217233508885611,-0.34369743321187507,0.3338693071517091,-0.3323818640564037,0.019522287416258326,-0.6563962232620321,-0.3030864888847175,-0.9128640022320238,0.4739859870695741,-0.49738743565419624,-0.33544578291260957,-0.8288513255474114,0.7029240037325094,-0.3986227445164956,-0.34939520490297643,-0.42214235502237074,-0.5007478837059854,undefined,1497326224205
903d185fccf839df,0.049815291316058975,-0.44895668826657137,2.2096660219389817,2.281744515468594,-0.4236176202293191,-1.8279507430202815,1.8975462832906382,-0.6093142857124416,-0.3155219017116247,0.15585895162900795,-0.3333169536094497,0.07795465175937778,-0.4649133801247772,-0.31604818093472103,-0.9307587654812062,0.43761508472048993,-0.5425468733479961,-0.37867445597279714,-0.8412006978519347,0.7336900982457576,-0.4166870062337495,-0.40395476009512504,-0.3666638556828306,-0.4922166782972537,undefined,1497326225642
903d185fccf839df,0.020709012053528177,-0.42371501411935936,2.1847839814948355,2.1557695128601564,-0.539197997000369,-1.8374493788699795,1.9064981478986727,-0.6175345425238445,-0.4515516482919687,0.008342253671779988,-0.2884666874057873,0.06804161040929213,-0.7913045900178254,-0.18828310463794437,-0.9149692697958512,0.457821053646403,-0.4861773933300283,-0.3318170057037739,-0.8230089915239165,0.7199546869404788,-0.39288324424739923,-0.4203893085149094,-0.2992655896011138,-0.4794671974377071,undefined,1497326227143
903d185fccf839df,0.32008822952222804,-0.47772042317451935,2.1018423218593183,1.9679712892370964,-0.2751024482508407,-1.8216175431521309,1.9786416112632221,-0.04648965288120113,-0.4527434488124191,0.3529734548321997,-0.3215287816837636,0.026145817707285635,-0.9001016599821747,-0.31604821978704467,-0.8718113399541425,0.6315933813274539,-0.6057468051917106,-0.3913340100295571,-0.8134023706306671,0.8919091250178792,-0.37915770417466954,-0.44933980499441767,-0.3385776244664429,-0.5271354263122396,undefined,1497326228642
903d185fccf839df,0.08585156805884907,-0.5370089964407642,1.9793442460460486,1.9660238734713955,-0.2924338534081311,-1.8044091229244748,1.9516150954030491,-0.2338585673939675,-0.4051042707586112,0.3056948340061829,-0.28026126970901966,-0.07189101732245315,-0.673803754456328,-0.3725240610380619,-0.869706035579146,0.5204598314845326,-0.714731563397098,-0.4215104858495132,-0.7738843824811071,0.9110647931454815,-0.3788916627752995,-0.4553867867773003,-0.3976640265502739,-0.546531565177579,undefined,1497326230142
903d185fccf839df,0.06921954650189897,-0.3597302331841664,1.4300163019785448,1.2234688215115848,-0.3616668817044618,-1.6885224844359439,1.838822714857487,-0.8117456897381408,-0.5784388916209912,0.37055867856999075,-0.29597905839273586,0.07517157415596133,-0.7303782308377896,-0.4817724436568153,-0.8676007753775524,0.5467277917677426,-0.7486458816009066,-0.48406097084455685,-0.7738633910330449,0.8333180389773875,-0.41930726899617526,-0.41023647002478303,-0.4965507609460752,-0.5243252323112081,undefined,1497326231653
903d185fccf839df,0.0013047568676881746,-0.3198132133119121,1.0663498852709516,0.9334441073045292,-0.4176519301106965,-1.519063342831289,1.7836888302472558,-0.8081250767595656,-0.4321764653282812,0.12057306880621133,-0.31351697200683104,-0.10474609556686211,-0.6389886920677362,-0.42251907569023917,-0.8297060034020616,0.6578612285517778,-0.6914526453939015,-0.44203555680070383,-0.6982138718833477,0.808141581641995,-0.37310965955159525,-0.41656252610197697,-0.47528418159330116,-0.5572348864317369,undefined,1497326233133
903d185fccf839df,0.022094921835514723,-0.48124257161923234,0.7454300658672227,0.5862972678798123,-0.5387865835065777,-1.359410297187661,1.7945341538728763,-0.5051469107853072,-0.4643785808345402,-0.19176834860673572,-0.1629320962191901,-0.16510685716163181,0.005089962121212133,-0.4197415878270039,-0.7897059565005095,0.538645325056157,-0.6048901642182476,-0.4272608001481182,-0.7362975124023818,0.6176628116329786,-0.41010305060949154,-0.40129859741214957,-0.518974611192196,-0.4977223323651608,undefined,1497326234655
903d185fccf839df,-0.10403235731293821,-0.44954364480870806,0.5297824115709462,0.5154005168663506,-0.7247108404612288,-1.3218210341906291,1.7404232706664162,-0.8427589542972378,-0.37746845516704464,-0.2759025677561851,-0.052173436578704414,-0.11738473822203771,0.005089962121212133,-0.5178799671897178,-0.8076007197496918,0.33052273996863984,-0.6093864306732805,-0.4908752195259371,-0.7631162890371039,0.22922162626646225,-0.5237512183693344,-0.4031402778169492,-0.5010548858134898,-0.42898269625330016,undefined,1497326236231
903d185fccf839df,-0.49904649235852494,-0.5305518314614289,0.40154211138545504,0.43952449516500136,-1.0308131834218177,-1.3474822617055893,1.7504323204569232,-0.972290016870346,-0.38776822088445667,-0.44445780326968704,-0.009605697999184325,-0.025977078874886383,-0.5475991532976827,-0.5919467030494872,-0.8518113017788989,-0.2271649758352677,-0.6102808702351171,-0.5532357161054624,-0.8161731060372882,-0.057882391273906444,-0.6208668609844664,-0.380597721779077,-0.4365779438279426,-0.3873646387559925,undefined,1497326237671
903d185fccf839df,-0.5226088564498317,-0.6109730031160283,0.31030618413160627,0.3745070131805106,-1.0847822317756186,-1.369269968979989,1.8180262191155183,-0.6703923227004531,-0.46015283359638937,-0.5056831465538283,0.14253784062388727,0.08456899548307219,-0.669451871657754,-0.6354608911028244,-0.9560219541604339,-0.4514524802135952,-0.8866942335695475,-0.6419032604274306,-0.9037521875604424,-0.3378569219626506,-0.7444589036535928,-0.40391452979116554,-0.37172883340834617,-0.427391000696576,undefined,1497326239156
903d185fccf839df,-0.5350829761337734,-0.6508899060763133,0.16483921082944994,0.3497743633815744,-1.0847822307513517,-1.292658962144024,1.8365347916054848,-0.3913006428292714,-0.41459672163650524,-0.5105884886979047,0.14670623850005735,0.004002072671389372,-0.7521376448306596,-0.7224892672094991,-0.9718114645702565,-0.4938852467287293,-0.971294457846821,-0.7228319477029692,-0.9757633651399065,-0.47131524882062603,-0.8364129993372369,-0.4324765979601466,-0.42779481682953385,-0.4930934796922132,undefined,1497326240640
903d185fccf839df,-0.39509549499234353,-0.6332794561326717,0.1425092136314135,0.30004410963698996,-1.0300314648254298,-1.3286643440711892,1.817513398536172,-0.5716767752726921,-0.4389505054509703,-0.5975548872871506,0.1620828923559403,-0.06634601008785353,-0.4866727941176471,-0.7891493126472846,-0.9781272378128036,-0.5140913287135286,-1.0495854901300514,-0.8316762499443916,-0.995354436243011,-0.5961658446068158,-0.9108561864099218,-0.48253120261231397,-0.663381040964325,-0.5174115346919174,undefined,1497326242244
903d185fccf839df,-0.3535150270350515,-0.5235075345720028,0.060843829755900525,0.20835247457377026,-0.9712178553330746,-1.4324808648702607,1.8345834638176766,-0.6633921602401737,-0.43279800559098963,-0.5345710306327137,0.08311477024376202,0.01403960868070426,-0.4692652629233512,-0.853957649864944,-0.9591798371005906,-0.48782339669504016,-1.0977499697963746,-0.8900723238538462,-0.9744269741645881,-0.5567920187256109,-0.9255892047946326,-0.4681007870960702,-0.6577547985128273,-0.4908241228698849,undefined,1497326243655
903d185fccf839df,-0.25649399264371964,-0.5874922862792035,0.20950047591026996,0.3971530403916928,-1.058965136684228,-1.56691290696364,1.8292160312820485,-0.9857993581302117,-0.40881689376428665,-0.6857748996490678,0.050042580111327804,-0.03829156177703024,-0.6041736296791445,-0.8650676854979198,-0.9612851341133531,-0.47569978142182645,-1.079444914109813,-0.8908196118223484,-0.9555775659564387,-0.5047144754589181,-0.9086934913533379,-0.4794830573377895,-0.6551850371031124,-0.5008020929905558,undefined,1497326245164
903d185fccf839df,-0.46578213869593715,-0.5417051164257353,0.3530532897093692,0.37809811130347,-1.0949445077335227,-1.605778592448627,1.8256631652313802,-1.0904715846218898,-0.3727960556430396,-0.6574126140064672,0.045995219004891875,0.017548643752981426,-0.8130640040106952,-0.8382185023286416,-0.9002324189357607,-0.47569980968654796,-1.0546917446444004,-0.8696042505750621,-0.8979798191071339,-0.4341741966944696,-0.8658647887657509,-0.4780624702981963,-0.6665589846769303,-0.510413397677781,undefined,1497326246736
903d185fccf839df,-0.31054851127413396,-0.4876996781425829,0.5399905845553854,0.5875635795074247,-0.9662807212087281,-1.5373944568793094,1.8239301263201204,-0.9234183636401059,-0.28716214078183777,-0.5109521130620657,0.07009635902223377,0.013861795806915983,-0.7826008244206774,-0.8308118248574323,-0.8581270750214459,-0.4797410147776192,-1.0170485409691419,-0.8598135193951274,-0.8315101146898638,-0.4086897703289909,-0.8325173431117818,-0.4633345444631732,-0.6662321064251964,-0.5173657645085071,undefined,1497326248746
903d185fccf839df,-0.23570375866507362,-0.4336941814034459,0.4155780951021094,0.473409576736533,-0.7666456293416002,-1.4663969160029726,1.8373552808584463,-0.6396587448983894,-0.1017290721981773,-0.37131638525207017,0.0705045408865023,-0.05735100997878132,-0.7086188168449198,-0.8521059934479163,-0.7865480735603528,-0.5868332182058615,-1.0252694207504054,-0.8408906838421067,-0.7595479149149947,-0.5669087959702785,-0.8204342785516447,-0.4533636775261836,-0.6642498280679061,-0.5258529439245252,undefined,1497326249618
903d185fccf839df,0.07892150156777031,-0.5006139496452687,0.4315287465957197,0.6169353664621998,-0.675524635226752,-1.441154949332834,1.7979450011088114,-0.8205295897259984,-0.15662903179907012,0.010146717447723727,0.12766768913410598,-0.033006816023951155,-0.6955631684491979,-0.8141468070225987,-0.6760216405740368,-0.4696379737852196,-0.9894837887185531,-0.7796891161991575,-0.6677007773807286,-0.35494919640802874,-0.7292983774689,-0.3768023972743428,-0.6681290546488333,-0.5890065742871041,undefined,1497326251119
903d185fccf839df,-0.1081904317129952,-0.48887376659481036,0.5144701520942876,0.36368833655436367,-0.5985567637577538,-1.4152468198595032,1.7827578730122333,-0.8201769256833821,-0.08227157281450495,-0.07979162444530483,0.14107174144350584,0.07711570586018476,-0.6346368092691622,-0.720637578415535,-0.7265480032080246,-0.4413494674859171,-0.8562855851271561,-0.7790621545868491,-0.6603611236458341,-0.3479429051300485,-0.7286403860220769,-0.33726971938180456,-0.6248096087335675,-0.45197623994685715,undefined,1497326252623
903d185fccf839df,-0.0915582031235867,-0.6168431530972421,0.5182979628265028,0.5052350358621243,-0.591552204340626,-1.2984098556026895,1.8175554680589374,-0.35289871838710996,-0.18074182650915763,-0.06470326581955921,0.2162883103451864,-0.09667320232412463,-0.7260263480392157,-0.7095275751594956,-0.8360218134557776,-0.4635760813544481,-0.9706553915502497,-0.786661685598943,-0.7534606898193094,-0.407673475406601,-0.7773683854943875,-0.34886107472956895,-0.6358323571769424,-0.4476004958900608,undefined,1497326254146
903d185fccf839df,-0.5946815479570509,-0.5164634715065156,0.3466726733201959,0.42235395853939023,-1.043186875744779,-1.3421739330678084,1.8624278490788042,-0.3188289295113486,-0.19473934498213694,-0.30231080059816623,0.24894604180241542,-0.12340801423214326,-0.4126907865418895,-0.7900751279050239,-0.8297060181265291,-0.6858429973196007,-1.0138151199290073,-0.8897176777234058,-0.8643531464497836,-0.5651995715009113,-0.8904039993466583,-0.39861162826688395,-0.5876320106589193,-0.3894053699594558,undefined,1497326256250
903d185fccf839df,-0.6071556331355829,-0.5804481063017468,0.3772971922735133,0.44111231477266133,-1.0553959982914836,-1.3435505134985666,1.8560216415562323,-0.3644907840475558,-0.19890007825961678,-0.295875262804486,0.24774658453980494,-0.12518528314976776,-0.44315396613190733,-0.7900751279050239,-0.8297060181265291,-0.6818017780961687,-1.0138151199290073,-0.889597351799072,-0.8643951273028095,-0.5662004704145329,-0.8905625904835441,-0.3986768413023994,-0.5873867323169956,-0.3888474212619489,undefined,1497326257249
903d185fccf839df,-0.5905234735569939,-0.5781000463092613,0.3453969058340905,0.42379918025590646,-1.0667102650097926,-1.3453836243720592,1.8508672204823549,-0.4018161623646302,-0.2131357391911205,-0.3156158547690307,0.2457954355082924,-0.04309039334383203,-0.4126907865418895,-0.7900751279050239,-0.8297060181265291,-0.6818017780961687,-1.0120329470523797,-0.890129319067973,-0.8662842661783418,-0.5665546344847875,-0.8915096924435817,-0.3979480994327694,-0.5871704449851362,-0.3886848920422448,undefined,1497326259228
903d185fccf839df,-0.6029975932409356,-0.5816221362979895,0.327532603111322,0.4073876449420982,-1.0836302370841897,-1.3481065046892917,1.847032963889794,-0.43620057988809013,-0.22614071814182138,-0.3269702604849404,0.24122934535964405,-0.024521699592061554,-0.32565313057041,-0.7900751279050239,-0.8297060181265291,-0.6818017780961687,-1.0120329470523797,-0.8899266648702965,-0.8679145230453198,-0.5668626032321655,-0.8920474807857028,-0.3980205555069678,-0.5871896192254179,-0.38853179285063155,undefined,1497326260314
903d185fccf839df,-0.6445780957036373,-0.5916015081780225,0.2445909434758047,0.2898348938128563,-1.1334747246005217,-1.356626861812547,1.8288373364407184,-0.5843249598701603,-0.27853836527318526,-0.41659312722013164,0.22083609080492342,0.009030580227747576,-0.17768911541889482,-0.7900751279050239,-0.8318112636036552,-0.6797811614182724,-1.0090152423683965,-0.8911425900563557,-0.869817655603776,-0.5692185652912112,-0.8935690117612349,-0.3981440171264137,-0.5870437383120292,-0.38800325163895444,undefined,1497326262244
903d185fccf839df,-0.6445780957036373,-0.5916015081780225,0.23884897324053242,0.2898348938128563,-1.151299838670475,-1.3551384780080575,1.8211504141075898,-0.6335734779526895,-0.2869232620472676,-0.48977196014443125,0.21718765627525774,0.017625200059838808,-0.06454016265597147,-0.7900751279050239,-0.8318112636036552,-0.6777605588727367,-1.0090152423683965,-0.8912059195927896,-0.8703074323529093,-0.571204964874943,-0.8938383777284631,-0.39840760276219556,-0.587717911500746,-0.3871874496594607,undefined,1497326263215
903d185fccf839df,-0.6487361355982846,-0.5921885231761439,0.21460430826554008,0.2765994028357911,-1.1639101032676447,-1.3584343510795596,1.8001777110583383,-0.7769441451051523,-0.2908217332259156,-0.5204165894071372,0.20812893550113404,-0.00531001975529619,0.6491686163101604,-0.8021109820334327,-0.8286533659390309,-0.673719382046387,-1.0151174729157972,-0.8961772806286921,-0.8703074322856217,-0.5698345029475149,-0.8959866294116872,-0.39636543974268196,-0.5866691554214816,-0.38832641661224787,undefined,1497326265250
903d185fccf839df,-0.6487361355982846,-0.5921885231761439,0.26436940570163026,0.2884257095275876,-1.1641672454435412,-1.3582270487588175,1.8069468325064155,-0.7320362990399302,-0.29050576413525014,-0.5169758468582134,0.20119240072054798,-0.013826988741430193,0.744910037878788,-0.806740132789083,-0.8244428381736099,-0.6636163551863482,-1.0150141354777336,-0.8984381416599377,-0.8719866669449607,-0.5713743475998421,-0.8978187980443401,-0.39705847323733434,-0.5860229354062192,-0.38702312536986216,undefined,1497326266234
903d185fccf839df,-0.6487361355982846,-0.6080379281254213,0.167392016486408,0.2933647449746396,-1.167582096612248,-1.3517075082654995,1.798207987740307,-0.7772427531047457,-0.2878602612417725,-0.5247634674364775,0.21087105406788828,-0.06616842599646114,1.080005013368984,-0.8104434585739131,-0.85391657670496,-0.6535133141939485,-1.0374995111530754,-0.9016299450518767,-0.8771013356162898,-0.5732683561608761,-0.9010587248749263,-0.4011528565463828,-0.5857664313919895,-0.3848061210491383,undefined,1497326268274
903d185fccf839df,-0.6487361355982846,-0.6103859881179069,0.1578217272450216,0.30752457599998606,-1.1659363851501099,-1.3496787407921294,1.7919753472463351,-0.8147869459709275,-0.2886807822266882,-0.5261134161565819,0.21783082761674047,-0.03865925267691057,2.3420510249554365,-0.8122951247040218,-0.8591797492956454,-0.6494720808381558,-1.0426795396940807,-0.9042517836678771,-0.8790674394542849,-0.5702502610149516,-0.9020530050853458,-0.40276042398540596,-0.5870776372241642,-0.38495912981303565,undefined,1497326269254
903d185fccf839df,-0.6764564360680094,-0.6156691231009994,0.2203465326377618,0.4322579655052388,-1.1578209702687796,-1.3454115746936057,1.8043301775363267,-0.7262503445119373,-0.29672966926760397,-0.5294204439157236,0.19603464734947945,-0.009812189335767323,2.9077957887700534,-0.8141468005472114,-0.8633902696988328,-0.6494720808381558,-1.0449566525704197,-0.9052460558307642,-0.8806277282491987,-0.5654459463588057,-0.9021432588226566,-0.40428744160639724,-0.5876590641667653,-0.37974768885358773,undefined,1497326271298
903d185fccf839df,-0.6764564360680094,-0.6168431530972421,0.2203465326377618,0.41809813447989236,-1.1528735501953289,-1.3409836908394324,1.8058160180645695,-0.7093301465362853,-0.30337227239741366,-0.5331570914138778,0.19092055791890775,-0.015614121315256304,3.029648507130125,-0.8122951247040218,-0.866548167363457,-0.6535133141939485,-1.0475375797335646,-0.9041884543086164,-0.8828037363523236,-0.5683562525616161,-0.9029408393246184,-0.4044239573989672,-0.5881437314703288,-0.38062206102032287,undefined,1497326272261
903d185fccf839df,-0.6681403562787149,-0.6168431530972421,0.2713876516969068,0.41315909903284037,-1.1455912768601368,-1.3435155736105662,1.8162142703875215,-0.6424728329580687,-0.3186427159783972,-0.5183256486876769,0.1755324657453284,0.006435184233345145,3.290761475044563,-0.8058142981051819,-0.8707586877666442,-0.6535133141939485,-1.0475375797335646,-0.9013322965384759,-0.8807186867967126,-0.5657077199987041,-0.9007935938269289,-0.4008457836853117,-0.5859767420917265,-0.37533929833699303,undefined,1497326274210
903d185fccf839df,-0.6764564360680094,-0.6127340481103924,0.2656454273246851,0.41865548048410806,-1.1502712695827886,-1.340494550499486,1.8267124552420926,-0.5698830051917476,-0.3193406447452349,-0.5110718935426887,0.17849884588137852,0.04499686929112895,3.290761475044563,-0.806740132789083,-0.8707586877666442,-0.6575544910202983,-1.0475375797335646,-0.9009333210812636,-0.8792913374023386,-0.5661696732274696,-0.9000657928189629,-0.40118831387155907,-0.5857126625043269,-0.37517485959096153,undefined,1497326275236
903d185fccf839df,-0.6764564360680094,-0.6062768831310572,0.2707492596799553,0.3886292887088272,-1.1470209894066554,-1.3472866119482223,1.8490658045859971,-0.4452017552082689,-0.32578643726501416,-0.48779265412516404,0.17820962532358056,0.05129782377141596,3.290761475044563,-0.806740132789083,-0.8781271352833909,-0.6474514924249809,-1.0475375797335646,-0.9006673373969832,-0.8816422658569022,-0.5676633226107693,-0.9009927900972988,-0.39983278085348334,-0.5858441174792495,-0.37596337388245116,undefined,1497326277278
903d185fccf839df,-0.6889305557519512,-0.6039288231385717,0.2707492596799553,0.3886292887088272,-1.14247471138367,-1.3493759393504137,1.8531867102798563,-0.42614862889560695,-0.3247229914163824,-0.5020955224581398,0.18430149220035788,0.06501709260921928,3.2646501782531194,-0.806740132789083,-0.8812850182235475,-0.6434102590691881,-1.0475375797335646,-0.9003633561447617,-0.8836433537186954,-0.5654459466819011,-0.9011452292193436,-0.3992942645774212,-0.5861860934144097,-0.3767494179508653,undefined,1497326278238
903d185fccf839df,-0.6750704227697937,-0.5927755381742653,0.2401247407266379,0.3886292887088272,-1.121810745643285,-1.354425730166814,1.857186645014388,-0.4111070164320825,-0.32809802804271837,-0.5311213660366007,0.1931323399715974,0.08690852368071408,1.5108414104278076,-0.7956301295330436,-0.8812850182235475,-0.6272453821754601,-1.0374995111530754,-0.8945497137714025,-0.8799490376736828,-0.5589016071922193,-0.8968960989823208,-0.3928940438945901,-0.5841531558207943,-0.3721883123426409,undefined,1497326280291
903d185fccf839df,-0.6695263695769307,-0.6109730031160283,0.3147723868807731,0.4050408240226354,-1.123374171481103,-1.3565663012458644,1.8651260305750703,-0.36588891844630694,-0.3249602295396079,-0.5452481122387651,0.19407008445514184,0.04964096919938828,1.4150999888591802,-0.7956301295330436,-0.8812850182235475,-0.6272453821754601,-1.0374995111530754,-0.8945560467206166,-0.8803898368262011,-0.5594405528232262,-0.897173733029856,-0.39266046989131786,-0.5839773192007858,-0.37185299045140274,undefined,1497326281254
903d185fccf839df,-0.6556662365947731,-0.6156691231009994,0.3364645003357568,0.410985510274848,-1.120833604990778,-1.3568108715897995,1.8698360153873521,-0.3343212960491809,-0.31190465914816085,-0.537624849389373,0.19845299456743845,0.0937120664926354,1.080005013368984,-0.8002592997148558,-0.8802323881227507,-0.6434102449368274,-1.0360491648153218,-0.8928841495676384,-0.8824468991627735,-0.5542974720037795,-0.8971498683881743,-0.39196377261412074,-0.5856688848854512,-0.37110264279561406,undefined,1497326283443
903d185fccf839df,-0.6556662365947731,-0.6238873330746988,0.3453969058340905,0.42379918025590646,-1.1214198896639556,-1.3574304490831237,1.8617493618802272,-0.38668047642537123,-0.312313791413831,-0.5413195398316106,0.19640866869884815,0.08650945035278865,-0.1820409982174688,-0.7984076141585853,-0.869706072390315,-0.6535132717968662,-1.0240759850267735,-0.8905346274245693,-0.8787455861784261,-0.5516335409550344,-0.8943992200848003,-0.389021593936852,-0.5863359756027287,-0.3708730448957337,undefined,1497326284216
903d185fccf839df,-0.6154717129248773,-0.6268224080653058,0.2835094759105042,0.4073876449420982,-1.1134896165731207,-1.3641805844986608,1.858333243514625,-0.42125582124601413,-0.3019698739748027,-0.5505141277033135,0.191274445728112,0.08530982941165965,-0.5693585672905526,-0.7965559642169447,-0.8570744817318181,-0.6454308616147237,-1.0202534230337377,-0.8862282254581829,-0.8771992909685633,-0.5473219760685264,-0.8911329466668514,-0.3893153009195878,-0.5845393559874804,-0.37221997196916906,undefined,1497326286182
903d185fccf839df,-0.6279459016196386,-0.6303443811420647,0.31604815436687855,0.4255127111293056,-1.2391911197261527,-1.4032163037013228,1.841539303930477,-0.6255171672853824,-0.39842903165840493,-0.6966051191432445,0.1348900418476581,0.017458370010917015,-0.5954698640819964,-0.7993334650309546,-0.8876008061905623,-0.6353278206223241,-1.0617753256275622,-0.8867538594013764,-0.8854415341751721,-0.5725600285723216,-0.898202395289368,-0.37731770960271654,-0.5960278198501506,-0.38797769596453485,undefined,1497326287184
903d185fccf839df,-0.6584382631912046,-0.5493362529453286,0.27968191931523834,0.3747597508467718,-1.1606083907193068,-1.5029939218836164,1.7990732009362593,-1.0707631833454627,-0.442644380724966,-0.6584335047055891,0.05886940553421594,-0.4065094810438457,-0.29954183377896615,-0.8215534521168716,-0.9897062057327376,-0.6009774501569717,-1.112341246203322,-0.9170316641694173,-0.9455161522032788,-0.5915617095260745,-0.934451318932804,-0.4395550434523543,-0.650963752352202,-0.44764116180675967,undefined,1497326288672
903d185fccf839df,-0.5378549682247953,-0.47772036471853463,0.4270622897096034,0.4107833780727812,-1.1286918719747214,-1.5219422840357912,1.8035990974110425,-1.0251497241537728,-0.41850270936828615,-0.6205372977773728,-0.05969673121065662,-0.5064634163755158,2.7163129456327986,-0.7780393093912452,-1.0076009689819199,-0.5888538631484795,-1.0204390618976118,-0.8538922160158726,-0.9529677559031641,-0.5304606775913402,-0.8971167935656711,-0.40563816273814374,-0.6405511581545502,-0.4490297815887488,undefined,1497326290155
903d185fccf839df,-0.5170648032569687,-0.5458141629566002,0.6427101981428293,0.6396688107698151,-1.0693536842734093,-1.4823219240964869,1.8258156938322718,-0.7784597670883514,-0.4688662024479565,-0.4384170716909738,-0.06427024747120742,-0.5376854000619772,2.6989054144385025,-0.7678551116798642,-1.0044430713172958,-0.613101093694907,-1.0235809939641038,-0.7985802869673512,-0.9283319849226079,-0.429092711608843,-0.8463074256813693,-0.3985759423452212,-0.6528582859684403,-0.47338987334716287,undefined,1497326291672
903d185fccf839df,-0.43251778503334937,-0.405517519949604,1.0950604988581614,1.060445870761763,-0.9826041182877043,-1.4957127221172433,1.8357090280802908,-0.6753788942568193,-0.5002258074622483,-0.31346013603604017,-0.155795452868847,-0.33346954355742964,-0.6563962232620321,-0.7530417826389947,-0.9591798518250582,-0.37062820880384123,-0.9263587264555067,-0.7082155131308087,-0.8903183113378649,-0.33553175731952767,-0.7686503510378428,-0.40156118209311115,-0.6699521127038509,-0.5261161335194223,undefined,1497326293158
903d185fccf839df,-0.36321718913338125,-0.3245093332968832,1.8038911458075266,1.671955673711705,-0.8241015273530153,-1.6266695382157514,1.8764999483632094,-0.5464273752814686,-0.464029141731824,-0.9400914635260226,-0.24062386470989108,0.0013874198764955636,-0.8870460115864528,-0.5632458440370194,-0.938127205635719,-0.0028775421187440704,-0.7092547825606118,-0.5602082861142811,-0.8635625063068859,0.007745788064598089,-0.6301066907901565,-0.36955232000134264,-0.539147026226649,-0.5613753681712247,undefined,1497326294666
903d185fccf839df,-0.041661724387819614,-0.39319011730507786,2.401707657414167,2.150668651361298,-0.6562698115390433,-1.757111592933663,1.9052358406648395,-0.46201206163864517,-0.33295834986217854,-1.0575704940657258,-0.3709226403975162,0.01928591756636559,-0.9610280191622104,-0.4141865214451114,-0.83602179873131,0.21938927491988316,-0.6095942784777032,-0.4648658192892217,-0.8583918639498783,0.22184577095154012,-0.5517280908527116,-0.3694501209958794,-0.49507769899919074,-0.48674267333504784,undefined,1497326296155
903d185fccf839df,-0.10957644501121094,-0.29926768837766354,2.4508343628333056,2.2610716683259375,-0.5523637008226334,-1.7903335308184136,1.9457111913410121,-0.14942728386066073,-0.35863423686216983,-1.6192295577097955,-0.3611687044958633,0.00018331609977756953,-0.9653799019607844,-0.407705707797046,-0.8212849699579208,0.42347065491632907,-0.6131202139565821,-0.41108646078906597,-0.831139286031766,0.31454441210739115,-0.5013837660064168,-0.39284152687777757,-0.48245516267355737,-0.5237772825082246,undefined,1497326297635
903d185fccf839df,-0.24817784384360564,-0.3233353325286327,2.3997937520480592,2.1822894356374327,-0.5200563219776454,-1.801846959828774,1.9573165213587342,-0.07543053638650292,-0.4149897219870216,-1.5670395930480114,-0.3676807568841896,-0.03977563600443036,-0.9523242535650625,-0.41140908538497434,-0.7739164902640896,0.5447071750898461,-0.583574870069345,-0.2964158483823165,-0.7852402055980439,0.5522502147444249,-0.3928404001614803,-0.352718036964973,-0.4962665367766519,-0.5355963368589916,undefined,1497326299158
903d185fccf839df,-0.18580717641307734,-0.32040022831003345,2.782600493101476,2.46163483244014,-0.45426900524799846,-1.763556596378047,1.9052595094197737,-0.32946712318011845,-0.5992002802764483,-1.6457710941718882,-0.3458249744754993,-0.025630787429747948,-0.7913045900178254,-0.3327132117203292,-0.7170742881274506,0.31839901163654,-0.6923661667963253,-0.2044361754749155,-0.7298254636933259,0.6817819400060189,-0.3174573701353712,-0.34553722592593294,-0.5107705415983289,-0.555594170835992,undefined,1497326300715
903d185fccf839df,-0.2800562877242069,-0.5029620388657466,2.7487860471589958,2.578399990018384,-0.3362509176386651,-1.7900586808593508,1.8497521885276171,-0.7762354923517597,-0.540770705073165,-0.8263802910686884,-0.3415005605154128,0.031441138537093224,-0.7869527072192514,-0.2623498145961646,-0.7054953128452828,0.3204197413733225,-0.667801716719793,-0.16427264536070596,-0.7099965015220133,0.7291475609989567,-0.29316441691899864,-0.3118721103738294,-0.44981187264028305,-0.4205179494610332,undefined,1497326302157
903d185fccf839df,0.10525589225550853,-0.5088322473029452,2.8132250120547933,2.716585835810505,-0.33640520403248647,-1.7665706334689635,1.848884349194527,-0.7949787215404548,-0.5976664856094585,-0.19876022994041323,-0.30685037522292846,-0.031804572777478016,-0.843527183600713,-0.1855056167747091,-0.7728638454388252,0.4032647142551375,-0.6026415686545676,-0.16950999102212216,-0.6790635984096132,0.665752161177369,-0.2967008360052789,-0.17363527383096714,-0.3003071509580191,-0.3883289858245527,undefined,1497326303653
903d185fccf839df,-0.05967996627544386,-0.5258556822484655,2.769840276870927,2.6641338578309175,-0.41073993446696133,-1.8166981894456187,1.9814581344391136,-0.045120381720821126,-0.4839221622730513,-0.27982185266581616,-0.3395497482606662,0.014743473255078788,-0.9392686051693405,-0.12625224880813293,-0.7802322487821691,0.546727706973578,-0.5192019951820328,-0.1295807812856559,-0.6267554397389219,0.7459318700759964,-0.24951964686654896,-0.15701948653228262,-0.2625867413160382,-0.4360154822807353,undefined,1497326305156
903d185fccf839df,-0.03750368449317236,-0.5986455712435098,2.3328027439061523,2.303645628099916,-0.4180427745030079,-1.8596283970808145,2.0143990782890264,0.10538984349514212,-0.4194794001815135,-0.4474754578179938,-0.418192093507698,-0.09268791663975151,-0.7173225824420678,-0.0994030397373056,-0.7602322400558607,0.5649132853393669,-0.5172058694489944,-0.14117006911222296,-0.6252861099319504,0.7624697985063488,-0.2543210078232638,-0.16047380716663912,-0.24601265969889602,-0.42989677745529004,undefined,1497326306653
903d185fccf839df,0.051201235603455256,-0.5152894122822804,2.7704781606139797,2.661473899742564,-0.25132191564162615,-1.8671401936141296,1.937905914757997,-0.2838760412840586,-0.35664961026329306,-0.7922272922446472,-0.5471018842407304,0.07834503102371239,-0.6607481060606061,-0.029039642613140956,-0.7781270033050431,0.7669739355990304,-0.47427460993254034,-0.11046162483298273,-0.6348367573291503,0.8721837203321807,-0.2110529193189198,-0.1375912849269115,-0.39202677183265255,-0.5035026026118055,undefined,1497326308158
903d185fccf839df,-0.06522395045748741,-0.5910143762679317,2.7953607093320247,2.6085947275807686,-0.3546931697699467,-1.8922121245315986,1.858646186198592,-0.8373539617509579,-0.2778645825130329,-1.1199221663674188,-0.531908651276366,0.13033112775921318,-0.1124108734402852,0.0033645292333824234,-0.8202323104081888,0.7184794179767324,-0.46616217550417033,-0.07915155352876994,-0.6143361015094226,0.9113573599472129,-0.1817620724012425,-0.16234687628897956,-0.35873522198313074,-0.5378318988554628,undefined,1497326309677
903d185fccf839df,-0.05136374846451042,-0.5393570272052574,2.8298135472914563,2.5597178302797516,-0.46539813005378045,-1.8853105889678294,1.818570579790438,-1.1123261726392661,-0.26081672842517967,-1.337128803068662,-0.5287527894387306,0.2517093703130341,0.5882422571301248,-0.005893811130241919,-0.8644428777129282,0.7407061166394281,-0.4672592047903651,-0.07348990107836494,-0.6357883249296636,0.9763695968772185,-0.1725497044383886,-0.2849600327451143,-0.5089812626278597,-0.5946722760829549,undefined,1497326311219
903d185fccf839df,-0.09433036774165714,-0.5458141921845926,2.7768582687292542,2.541100628982431,-0.5370688634729062,-1.9004576306624381,1.9149424486536024,-0.5613821271216446,-0.18990811773704686,-1.2301107651082235,-0.3979069497886573,0.15686419126216908,-0.3735238413547237,-0.06885050488164818,-0.805495430099163,0.7892007473206121,-0.4541085360011942,-0.06941148650175111,-0.6771464745171845,1.1410405721028618,-0.15160353493194892,-0.3049812799722902,-0.34102330537756687,-0.5358215918096424,undefined,1497326312655
903d185fccf839df,0.15931041088592288,-0.3162910648671991,1.8702442702063808,2.070756025845777,-0.4487867271320796,-1.7587397310862403,1.8829508562595327,-0.5782799205590782,-0.17056995956885232,-0.48899865083906335,-0.3537146754461423,-0.1273405321887977,-0.2342635918003565,-0.06514715319526898,-0.7602322400558607,0.7790977204605732,-0.3514632197790159,-0.09814405165602502,-0.702223045237497,0.9828831382240129,-0.20760731340581004,-0.26078096950705876,-0.1967053385271819,-0.3518522904743666,undefined,1497326314149
903d185fccf839df,0.6624336522031578,-0.2875272715032664,1.114838452810088,0.91977130277806,1.1695339929687922,-1.5371685205370038,1.549186396183212,-0.6270030760785771,0.5919304794747552,-5.1840087256373915,-0.4292044743529217,-0.0087267412641156,0.3445368204099822,-0.20124478373717336,-0.6876005790450356,0.7063558309682403,-0.2081076242756422,-0.2721860100417242,-0.5367904484778495,0.7105462332052856,-0.26032133631102744,-0.4626796694745268,-0.006450937138918642,-0.36635957971686,undefined,1497326315659
903d185fccf839df,6.216194251986776,-0.5111802196114538,1.920647124317049,0.5335071208394759,3.875814031508609,-1.467664022007016,0.9067984211378208,-0.9514733818411798,-0.5342051217453482,-10.561798671873007,0.11542940563807685,-0.06652378582392775,0.013793727718360084,-0.2938282132749659,-0.4412844875820069,0.31839906816598307,-0.11083109760782359,-0.4840356412568304,-0.33284740301971566,0.4173290371441425,-0.2800047053598491,-0.6947127557296146,0.021741556831223707,-0.5199457494794573,undefined,1497326317141
903d185fccf839df,5.977799688650389,-0.6256482611570936,2.1918021004216377,0.31354622285043743,3.8788071713553274,-1.4655048143649243,0.9532723603234611,-0.7043992790319936,-0.5895938210099873,-11.446208955849531,0.19867848839655,0.1346849463114289,-0.3996351381461676,-0.548432469668439,-0.38970547276052087,-0.09784610200905121,-0.14241572365954921,-0.6124804047057641,-0.32597653409652716,0.16440957200819256,-0.37417361875365945,-0.6293790734045601,-0.03944133596654666,-0.37932055221768896,undefined,1497326318662
903d185fccf839df,6.3658835501724385,-0.6520639360725561,2.277295295029366,0.19565327533403007,4.436538803440171,-1.4822660183215117,0.8299213099674254,-0.7100470609321047,-0.5143154571602746,-11.774271516323243,0.10157122541847481,-0.101615554509223,-0.4866727941176471,-0.7021209235898354,-0.12338941674458645,-0.44337008416381346,-0.22489544373804732,-0.7450099167103458,-0.10106405069234921,-0.23882952033417992,-0.3861663507545326,-0.41171549533927654,-0.4498205002669302,-0.06783467209765726,undefined,1497326320153
903d185fccf839df,4.281317686363821,-0.4518917048011936,0.9974447176259876,0.20198008877934584,2.2729629980151413,-1.3506313947046653,1.329019051308574,-0.6108327326720627,-0.19504977715393138,-6.8876685503319655,-0.10515765248646178,-0.15984375841162848,0.3967594139928699,-0.7585967713162399,0.658716802210676,-0.5302561632101743,0.05224202968237007,-0.7904107900055455,0.1781227001508665,-0.40810462980590123,-0.2859002741941745,-0.26437340992334635,-0.596916738562186,-0.07797550123165156,undefined,1497326321659
903d185fccf839df,3.979166580320329,-0.45482677979180053,1.6035554968509593,0.3772638553359313,2.314249780538151,-1.3059193185536229,1.3472146745675624,-0.37103661553994094,-0.5538947042723483,-6.41024839994719,-0.023383417002003415,-0.11078245756926607,-0.4605614973262032,-0.7261925800435547,-0.02970502119761677,-0.4332669866419708,-0.12433146749916743,-0.7255044507708652,0.018819310538874607,-0.43944046527942116,-0.33003366504289655,-0.3644269737118304,-0.5893205786251028,-0.24420653076205767,undefined,1497326323181
903d185fccf839df,1.3831613263943632,-0.36325232317289474,2.164367381389008,1.2170630375713147,1.1241432024075486,-1.337054262040502,1.486370852905926,-0.5811592899965511,-0.21400461021670403,-4.371360038606932,-0.24440479160157855,0.13734478660669464,-0.45185773172905525,-0.265127328360949,-0.4633897712343766,-0.2736389333091123,-0.2342611817112021,-0.4439734411371352,-0.18375235821348296,-0.34133696954306436,-0.2833398053305313,-0.5733181282941814,-0.5343489310861984,-0.43188150452439894,undefined,1497326324660
903d185fccf839df,0.3866167298149452,-0.35268605320670976,2.1082224299745924,2.1575992772231087,-0.07375993609873972,-1.5803153457292194,1.7536301499459772,-0.8742102664370628,-0.8286719650931158,0.9361929930148861,-0.250140878235629,0.2719897793731303,0.5838903743315509,-0.006819662002611265,-0.6128635989347465,-0.26757718220194854,-0.30700879469481385,-0.2687788879932138,-0.30776383557416526,-0.20330530398367255,-0.2311223120409098,-0.6881873990764169,-0.5640264221549851,-0.4815199395864668,undefined,1497326326156
903d185fccf839df,0.5543244769206902,-0.3074859275793553,3.1137287396265934,2.865736350022537,-0.16128093162091806,-1.7176053661609056,1.873507223641406,-0.3130215130606552,-0.7983873666617075,0.46759894119044615,-0.45529545672329186,0.22148586359047553,-0.24296735739750447,0.08761540452604721,-0.7097058553351715,-0.035207295906200115,-0.40309213219810824,-0.11276048829336212,-0.5593481629333276,0.03007353746191407,-0.2343080812765019,-0.7155097878554335,-0.627974039667735,-0.7123296197303272,undefined,1497326327659
903d185fccf839df,0.46284759923845054,-0.23117386091160558,2.3213185492986583,2.2571367352007234,-0.27045331800270667,-1.6952702896233063,1.9148688167754249,-0.13510066432937043,-0.6570938780671864,-0.11995818924146208,-0.27163343054821887,0.0598623952229969,-0.9871393159536542,-0.006819687904160359,-0.8823376483243444,0.1991831929350839,-0.549757726070455,-0.031268168260939096,-0.8550613809020943,0.28816688060437384,-0.29652291037125295,-0.46114784791022356,-0.6979158417139774,-0.5445732320454585,undefined,1497326329147
903d185fccf839df,4.396357273191465,-0.214150396738093,2.713057441713459,1.267650670432163,1.9681772005693026,-1.5307328313535316,1.3406980044314782,-0.5781678437930313,0.9283696439549758,-9.30029891962938,-0.5445126914846069,-0.03325609430716185,-0.8609347147950089,0.05058204307154984,-0.8433902315235892,0.23353364819460096,-0.48768968212046726,-0.07740999406178044,-0.7269987500315817,0.3555504771907459,-0.2631137431059551,-0.3588520889184978,-0.5560710289924459,-0.17498119340009446,undefined,1497326330724
903d185fccf839df,5.758809449510661,-0.36736148661572915,2.4367981249797017,0.8039304828838197,2.81415520442766,-1.4816115045933913,1.197828537317316,-0.5083346892437108,0.9731522178736244,-10.442843205516404,-0.43475526694518846,-0.005724523154341975,-0.7477857620320856,-0.0901447123244558,-0.7023374299051262,0.38507906522754465,-0.38918406632777824,-0.2382097665370433,-0.4923886889605882,0.25952577136077865,-0.2464340786950515,-0.33513591577855345,-0.36666982819814103,-0.07116836456878874,undefined,1497326332147
903d185fccf839df,5.98057178425764,-0.3579691881898023,1.9844480784013188,0.4117128139168353,2.6067235514466547,-1.31293032917472,1.063037832466724,-0.5562569661821439,-0.4699479442498259,-9.259554305128997,-0.8085150320908402,0.002553912876080288,-0.8304715352049912,-0.15217561995736545,-0.6549689722979963,0.2840487542300737,-0.31214482065289484,-0.22006588317814846,-0.4796474962624031,0.19942563727614365,-0.23566210149781588,-0.2749581786024978,-0.2701454943188283,-0.07793154190566709,undefined,1497326333651
903d185fccf839df,0.7220322240264352,2.08166771606601,2.6256497063972497,0.2140981417078477,0.5984720746581379,-0.7457862026081017,0.6293775587471993,-0.8156488906625622,-2.717765278094657,-2.3978541939500815,-3.1811629545341704,-0.05395243957608897,-0.7303782308377896,-0.3512298406444797,-0.6370742016865801,-0.055413363758638604,-0.4053832333863761,-0.3489666184057546,-0.4938440254394252,-0.11237748540037555,-0.36585455867932865,-0.09291411302074006,-0.1984579333067464,0.13482094251921206,undefined,1497326335154
903d185fccf839df,-0.2564940616545391,2.2137458568193833,2.6824326686231923,0.17356654178471448,-0.9026019668985417,-0.6026032104951818,0.7664272679810986,-0.703501148059624,-0.10257843243606247,-0.6752041056633193,-3.877222611702874,-0.028268041772113648,-0.5780623328877006,-0.3308615488279142,-0.634968926760519,-0.4615555494707163,-0.4667403181038959,-0.21449922538674093,-0.5149184190353443,-0.42562806188153396,-0.3375916333836482,-0.09908959851022234,-0.2784337295447338,0.3010151101511596,undefined,1497326336657
903d185fccf839df,-0.01948551161636758,2.5947189413360716,2.884044593339764,0.3484158754095179,-0.7671393374980661,-0.6732187556450852,0.860574313686323,-0.14698769812801013,-0.45317524559032063,-0.25772046708092494,-4.421897174947485,0.013396420149133796,-0.5780623328877006,-0.37252409989038554,-0.8318112930525904,-0.5161119595237857,-0.5585282030701124,-0.22953363415302283,-0.7023070092496809,-0.4973848178631638,-0.4245247838457289,-0.22577553244308107,-0.37519991778301226,-0.1769783822623119,undefined,1497326338154
903d185fccf839df,0.25633144527725477,-0.2253037109303917,2.337906830398372,1.0624673449941948,-0.3977079558811076,-1.385530390510849,1.4935344299668245,-0.2786438528770959,-0.7555306056036013,0.8267676736150217,-2.882906681493105,-0.01757978681147622,-0.7826008244206774,0.06539538506319388,-0.8791797653841877,-0.443370112428535,-0.25467450538923886,-0.006601350755030961,-0.8921234885012281,-0.3988809632048567,-0.38133864145636176,-0.17126058340643882,-0.42322023350896365,-0.4961993393799073,undefined,1497326339665
903d185fccf839df,0.3464223096612786,-0.4783074381726407,2.2638970679872896,2.128853807913353,-0.257760762503842,-1.8663389348302935,1.9257903840129353,-0.4088406977574123,-0.6058198891919727,0.32110251432847564,-0.19480892182048848,0.0420100454794542,-0.7956564728163993,0.21260298000881403,-0.9128639875075563,-0.3322366473797783,-0.13626519124264833,0.0770695021128082,-0.952254079994799,-0.23884492035471644,-0.34091055266362164,-0.12210137858916276,-0.4657799098621109,-0.4784771320318803,undefined,1497326341154
903d185fccf839df,0.006848741049731715,-0.5757520155447681,2.386395397937508,2.257718930405944,-0.19943057668523023,-1.9037837840562413,1.8745223225407646,-0.7448698924951392,-0.5398616039953028,0.003253208033664286,-0.11230162952721466,0.004136960921933189,-0.8913978943850268,0.04502705439430469,-0.8823376556865782,-0.162505567186881,-0.3149361165842028,-0.057049576108272486,-0.9419057964940963,-0.13261104592082568,-0.40315118024271435,-0.21181215847633822,-0.5701271676447051,-0.4602913065454351,undefined,1497326342682
903d185fccf839df,-0.07769807014142918,-0.6843499071091941,2.5471741224424242,2.33069340839706,-0.2043265711722437,-1.9264519403944416,1.8649603503380563,-0.8383303344448318,-0.44159069503670817,-0.7236434303200522,-0.1336985901525587,0.06116039430835759,-0.8739903631907309,0.1764953658204896,-0.8791797653841877,-0.008939420417154767,-0.3070030860101788,0.0837697585665187,-0.9118614906508151,0.14362166731705303,-0.2718734213127573,-0.23257548074248036,-0.7403644868955459,-0.4592076887011645,undefined,1497326344202
903d185fccf839df,0.1967327699377482,-0.6638043237189608,2.1158785597129217,1.8756184482914169,-0.32478236936579485,-1.906762881926012,1.9296430665138518,-0.4559676724044131,-0.4590111374078851,-0.7430029519639795,-0.09880359460592851,0.04390518509445787,-1.021954378342246,-0.01515216444464081,-0.848653389389807,0.16281226232127816,-0.46226113906322047,-0.09237473777893807,-0.9091537255266519,0.33876616563664125,-0.3444943670784713,-0.35157707985955405,-0.7054617140692173,-0.4732580013420084,undefined,1497326345662
903d185fccf839df,0.18425865025380642,-0.6279963796055639,2.5216536899813264,2.5384843362434135,-0.43010790476712113,-1.9116542844556643,1.9204492681054561,-0.521804004985792,-0.36900701319171075,-1.007596710503524,-0.2868373493802212,-0.0016949780607688324,-0.9566761363636364,-0.09477391488320434,-0.8307586629517936,0.15675038402286748,-0.5583657772368587,-0.04559961486970774,-0.8686841714159511,0.5843867709697042,-0.27070904728863654,-0.41273412515382113,-0.7186305490124684,-0.4490220166445084,undefined,1497326347156
903d185fccf839df,0.012392794242594724,-0.5880793012773249,2.4738027520482935,2.4322685530965433,-0.36138916222294853,-1.881546537973174,1.9067322032876222,-0.5571460450454279,-0.33543662950273834,-0.8490348405589693,-0.39382512779656026,0.06678895998196081,-0.9175091911764707,-0.19661564593229758,-0.8181270281198938,0.11229712802108387,-0.6213836925121601,-0.153854953875116,-0.8495338996244084,0.7099918912558774,-0.308398213007538,-0.45159085167058965,-0.6110912652730874,-0.40461838292743924,undefined,1497326348657
903d185fccf839df,-0.19828143411865803,-0.3884940265480991,3.088845936771599,2.9626528903057707,-0.3219126570593242,-1.8693669462769553,1.8671930668345946,-0.7664131840949858,-0.3028690248344532,-0.3443463496934608,-0.5681893667652579,0.023717786788752075,-0.8261196524064172,-0.18920896846108828,-0.8591797198467104,0.4153882729989081,-0.5971708070207055,-0.13973882400723237,-0.8385419099757139,0.8192284634403062,-0.27387167908053484,-0.4608189173708023,-0.6585662362918411,-0.4128385209046179,undefined,1497326350161
903d185fccf839df,-0.1885792720203283,-0.374405681207182,2.21732265995121,2.302888487751427,-0.2095002767925961,-1.8575716791894032,1.928491210501731,-0.3852785152625791,-0.4198385477312952,0.28077239954805683,-0.43392589012044464,-0.009069462287679268,-0.8000083556149733,-0.23364895558369675,-0.894969253707309,0.37295557714557787,-0.6257718339327408,-0.19030104730198297,-0.8681384202532091,0.8103589596171347,-0.310037563713628,-0.46305249145694527,-0.5889364375545311,-0.4576094701050478,undefined,1497326351647
903d185fccf839df,0.08862359465528057,-0.35444708358707777,1.9563756026941113,1.8635547518973796,-0.24292879291581376,-1.8330471212626354,2.015214317362757,0.211057994681624,-0.3998370219271949,0.2631008458005769,-0.3326569466698091,-0.05239552457929121,-0.7303782308377896,-0.266978991253364,-0.9339166410591291,0.5002538342938979,-0.6250062170915419,-0.23680384998442253,-0.8602740046871316,0.9324070394360093,-0.3141892465099656,-0.5044066517112046,-0.5046582262013704,-0.46322943319396137,undefined,1497326353155
903d185fccf839df,0.20920682061087048,-0.32979246827997566,1.5659127319023654,1.470228065906497,-0.25031392522591256,-1.791905768000813,1.9889267788946723,0.1019872713805167,-0.4631677001718142,-0.08717601367744736,-0.1848557653898945,-0.06502328104600631,-0.6563962232620321,-0.27160816791056347,-0.9486534919192197,0.6982733642566546,-0.5792998097773876,-0.2018713325381218,-0.8695237882134361,1.2549120851978983,-0.24140258780545865,-0.49011848802760705,-0.2278460629731875,-0.4238077364332704,undefined,1497326354697
903d185fccf839df,0.555710490218906,-0.32098724330815487,1.56974079677153,1.3512613098502557,-0.16943748986655235,-1.818077099484811,1.9744023513194762,-0.018356689214624838,-0.4132319433025706,-0.24229406666093284,-0.13206064743494617,-0.0672700437455421,-0.8783422459893049,-0.2586464629097854,-0.9718114792947241,0.8639632534908416,-0.5308806900751593,-0.24628426673591833,-0.8642761796889047,1.1264736528747188,-0.27480382354588256,-0.4806489051899234,-0.21387572018339565,-0.4217751691939714,undefined,1497326356193
903d185fccf839df,0.11634386061959562,-0.47830737971665604,1.3081563640452776,1.1983533432035995,-0.31617324911072375,-1.8768414747277309,1.9413851405503135,-0.42274776648388473,-0.3290148599584511,-0.08372022646016744,0.06897576438435318,0.04962641743222706,-0.7913045900178254,-0.29290236240259654,-0.8897060811166235,0.6497787335754707,-0.5815955411951035,-0.37631859898697423,-0.8397523577985995,0.8286369198275745,-0.38200339163252417,-0.4836031722298645,-0.12558752851859264,-0.4535848495602142,undefined,1497326357669
903d185fccf839df,0.006848810060551184,-0.5927754651042845,0.7862625036680297,0.8612153173508743,-0.5050700717392915,-1.8985010718241975,1.9107584242721696,-0.7520017010891159,-0.3400677438034666,-0.1390339451863434,-0.031868926341379444,0.01410559304038296,-0.7042669340463459,-0.348452365732019,-0.8391797184826356,0.5507689968588138,-0.5407257113188602,-0.4014160548967486,-0.8077979233506181,0.6397595870949113,-0.42215191187259,-0.44570414129297,-0.06013783089461931,-0.43358207426368117,undefined,1497326359165
903d185fccf839df,-0.30639054039030617,-0.3215742875342686,1.2373370368972565,1.309892744005962,-0.5944013505804071,-1.8180351752510324,1.9232342265690117,-0.5660118772025002,-0.21432590929973874,-0.07014401342620313,-0.02194901496306776,-0.026916061813370046,-0.7042669340463459,-0.3466007028396039,-0.8044428220850677,0.5487483801809174,-0.589122973627723,-0.42110517838431993,-0.762710474146949,0.640221540592923,-0.4151768489254655,-0.44233242333602857,-0.006470134693689192,-0.4718428843062382,undefined,1497326360652
903d185fccf839df,-0.10403239181834795,-0.27578702999682336,1.3776994154332944,1.2491751833980984,-0.6002539125533891,-1.7735699983148325,1.978749437395319,-0.11417200382304715,-0.23474608160641353,0.027884833306870263,-0.19439053616330365,0.015207999002759287,-0.6346368092691622,-0.33549071253433904,-0.7728638233521239,0.19716266105135213,-0.6679029945845506,-0.4410539514553312,-0.7744511235993484,0.24324961251816957,-0.503203300361046,-0.4290655980649494,-0.22764492577076034,-0.3979175710630716,undefined,1497326362157
903d185fccf839df,-0.1262086045898,-0.30513780913088506,2.280485857360902,2.109132944968934,-0.35661660085563524,-1.752129348941042,1.9342347169791607,-0.239156435704133,-0.2249439433054003,0.0832392548174006,-0.24109272637894885,0.005576745468570587,-0.9131573083778967,-0.3484523527812444,-0.7581269577675657,0.2234305365403975,-0.6687107092088583,-0.4310858989099329,-0.754272321196172,0.17925367060479022,-0.5107444196505152,-0.44195228421652505,-0.2783472265422738,-0.45209974435680966,undefined,1497326363646
903d185fccf839df,0.2175231074326234,-0.33624963325931095,1.6539582238931527,1.7107970268653387,-0.17293462137020194,-1.7515633428393609,1.8949427862418031,-0.4482080229895302,-0.1594532751930058,0.2473261704092566,-0.2065338960299339,0.01635711469043422,-0.7477857620320856,-0.3123448421991164,-0.8391796890337004,0.26384267224527447,-0.7095729357044795,-0.43185218438066736,-0.7887805929843623,0.23625871544500818,-0.5132831707712961,-0.45127648559260186,-0.2925286096762596,-0.5095852802114248,undefined,1497326365164
903d185fccf839df,0.5460083971313957,-0.5117672930655598,2.0546292676693376,1.8622661557375628,0.10513920307610085,-1.6345493529807351,1.8222470568172349,-0.5994842025350622,-0.34296054533171005,0.7256172899801133,-0.18677250981666757,-0.04472125660759129,-0.7434338792335116,-0.28456984700979243,-0.8591797051222427,0.3426464400360182,-0.6249667713773416,-0.35030920136910193,-0.7738983757541881,0.29749833377916607,-0.4627399408793664,-0.4203001497443251,-0.2694584102080792,-0.5254248977749869,undefined,1497326366663
903d185fccf839df,0.625011224140513,-0.492395798127554,1.8517418296036101,1.6787778123302304,0.05411185182011012,-1.620771903068262,1.8336604106583498,-0.429125703835635,-0.15227791893124595,0.1867427046093584,-0.2956464730109041,-0.054690882290413675,-0.6346368092691622,-0.23272311766210196,-0.8118112401528791,0.40124404104779804,-0.5782398339663257,-0.32864419950401424,-0.7618988447153118,0.4287854803138581,-0.41904543269176814,-0.42735378375491345,-0.34729325055482224,-0.4773595974169341,undefined,1497326368228
903d185fccf839df,0.457303615056407,-0.398473223060178,2.191801973353163,2.0519702950164245,-0.0019760570734256226,-1.6881148680670706,1.9357415906975033,0.16488213051756614,-0.14455083219544704,-0.02958983072326157,-0.45516533473661674,-0.08807130547023678,-0.9044535427807487,-0.27160812905823983,-0.7812848862451998,0.3648731104339923,-0.5915122647160151,-0.3437039389653556,-0.7583934419767316,0.4017304096453862,-0.43256664964828473,-0.4124289623262078,-0.39962778030086593,-0.4901198544478369,undefined,1497326369666
903d185fccf839df,0.5085860380795704,-0.45658779555817236,2.461042535817745,2.297267180619724,0.09386606518630956,-1.7304301549287295,1.8852545729976222,-0.22905501164123357,0.013477541357448674,0.1545062410826836,-0.4849965251547441,-0.019229581684686702,-1.035010026737968,-0.32067735759192045,-0.7170742954896844,0.3972028359567268,-0.6591060687174115,-0.3581620487773449,-0.7067219935056611,0.46129159722396423,-0.41112346361257684,-0.41850059973783404,-0.40949728182526457,-0.5498070989535135,undefined,1497326371156
903d185fccf839df,0.44898732823465404,-0.37792778580990644,2.403621816917224,2.2486922328074925,0.15400654046945936,-1.7905315164427744,1.8659333839047358,-0.49710230783772985,-0.1334359844336897,0.7799968910163169,-0.4054710872513399,-0.09941095002402191,-0.9349167223707665,-0.279940670352593,-0.6718110759974468,0.43761494339688223,-0.6564304977907087,-0.27216067296842555,-0.7003548956751725,0.5319242663649195,-0.35933456757900284,-0.4066888316054992,-0.43662499035779845,-0.5352479555537568,undefined,1497326372661
903d185fccf839df,0.29098188124887775,-0.3479899916777234,2.3436488006336442,2.03279474537906,0.3552564941055369,-1.6466101513159073,1.7736508557612143,-0.8164013661569897,-0.06341158391960473,1.1549595322094806,-0.3096075359450542,-0.041886556571462244,-0.5345435049019608,-0.2780889945094034,-0.6612847308160759,0.37901737064982394,-0.6564204949888689,-0.2728572974318018,-0.6776712344887809,0.5090421738335122,-0.3539161067458084,-0.4345042382019897,-0.39238368315879557,-0.5694206676193,undefined,1497326374164
903d185fccf839df,0.5196742134761159,-0.38321083310902193,2.0590954704185047,1.9799495067577373,0.5961577995882444,-1.6331005639429343,1.7761123502319038,-0.717140039231325,-0.028667638009376613,1.962368329219907,-0.18793141348017764,-0.09575996838606178,-0.5737104500891266,-0.2679048032734097,-0.6076004852419313,0.3082960978353873,-0.5995667498943777,-0.24913408986262497,-0.6663014166245516,0.436700275295984,-0.3532482548842555,-0.44321897803348625,-0.2940290296080677,-0.5827276695170227,undefined,1497326375644
903d185fccf839df,0.5986771094960527,-0.5493363114013132,2.072493824529056,1.977663855779485,0.724204433447907,-1.5617047227612277,1.7563835523392513,-0.6872114703598289,-0.1189949888888614,2.0454291941557368,-0.1537719226505427,0.048275348113161615,-0.7564895276292335,-0.2179097756704579,-0.604442558128372,0.2517189439131746,-0.5283293600108733,-0.19909116899585022,-0.6304847422056206,0.41361800611049293,-0.33613558243354164,-0.3823316178951647,-0.13677736903747312,-0.5300043498304574,undefined,1497326377154
903d185fccf839df,0.5903610297067581,-0.5088322180749528,2.1509695355523557,2.0975691849116287,0.41610665970440736,-1.5838557901884294,1.7956728569394718,-0.5974344661982053,-0.08308538530412579,1.7599366495832325,-0.13202450391303247,0.040122732169720794,-0.29954183377896615,-0.16791478691982975,-0.628653146155738,0.3749761090293096,-0.4779083849146834,-0.18652660756059478,-0.60785005943553,0.5434423013509232,-0.3057925011125857,-0.3325968984106276,-0.09769183029111646,-0.41712426704672123,undefined,1497326378691
903d185fccf839df,0.3852307855275489,-0.46656713821021295,2.0712178029060007,1.9627334007358315,0.1020637590462292,-1.573730589036695,1.7287942606329014,-1.0708398295386115,-0.03550148192564782,0.8985873470580511,-0.15863011227835355,-0.056869029072741134,-0.1820409982174688,-0.2679047903226352,-0.6118110203695862,0.21332750968035863,-0.5943580751913513,-0.26127434204507544,-0.6326187701897668,0.4098761875826426,-0.3621811590993751,-0.3295053473260623,-0.14309339112413155,-0.4535089605602333,undefined,1497326380187
903d185fccf839df,0.17594263947533137,-0.43310728331729387,2.0182627784807483,1.7800000146382733,-0.2920121411278922,-1.5356917830178503,1.7313504260641797,-1.0162481536901098,-0.04325551109774003,0.14275955781550964,-0.2155093911530503,-0.10160944998485115,-0.04713263146167557,-0.21050311115002315,-0.6033899353898089,0.35274941036661395,-0.5366912545008806,-0.25375080372165726,-0.6464094830207734,0.6004935441257059,-0.33127492162325317,-0.3305877921795367,-0.1228853618861593,-0.48103315271218783,undefined,1497326381659
903d185fccf839df,0.47254983034759973,-0.48182952816136904,2.382567587205293,2.557660262368248,0.011014781080888067,-1.5310286468983063,1.7970771731675206,-0.34946951799353265,-0.15043536085345643,0.34669005255983915,-0.3579648869625265,-0.13757075840208946,-0.7738970588235294,-0.1040322034437305,-0.6697058010713856,0.4679239957122773,-0.42954151193282175,-0.18684958642578198,-0.6508524591080562,0.6895581531389819,-0.28366905488942473,-0.29521384655224925,-0.13016249604992747,-0.4903958191928212,undefined,1497326383156
903d185fccf839df,0.2992978920273528,-0.5012010230993749,2.7181615282056786,2.6342678383354445,-0.013053745403934062,-1.5332367645152765,1.8380863603290296,-0.08396366608207108,-0.18374274488875283,-0.1503918827616235,-0.29419931584810394,0.002041216476064996,-0.9349167223707665,-0.19013476753035943,-0.6286531608802056,0.43559432671898585,-0.5500169440051297,-0.22306136037738233,-0.6790146229662037,0.6717267523832826,-0.31057173605854493,-0.2930404878107497,-0.16422719289450233,-0.4623133270973946,undefined,1497326384662
903d185fccf839df,0.30899998511486304,-0.561076611363741,2.339182597884477,2.237238452466154,0.16301681139924204,-1.5980362000363013,1.864181926810594,-0.053504087334329806,-0.09733498875149883,-0.15927981977662314,-0.27657849142601226,0.06915238414036866,-0.7390819964349377,-0.27068235589051776,-0.7223374828048373,0.40326457293152984,-0.6280137507812069,-0.2636681966929627,-0.7362275458106462,0.5285058109777387,-0.3666821287275123,-0.3825548035740988,-0.269889560425827,-0.5971666963369573,undefined,1497326386165
903d185fccf839df,0.22306709161466695,-0.37147059160257884,2.2326346652909193,2.036769827432965,-0.11536557808068386,-1.5862921736066402,1.7763490270441427,-0.8452469942764174,-0.13168092501701634,-0.25628538839543646,0.10236456159052064,0.0733861705229296,-0.678155637254902,-0.2975314484043742,-0.7054953496564518,0.4093263947004974,-0.6214401427221395,-0.217000736312211,-0.7300213742999999,0.6154916286306957,-0.32304895037435405,-0.3663689709281694,-0.3327787294850922,-0.6545423204049,undefined,1497326387656
903d185fccf839df,0.3478083574649041,-0.4378033448462803,2.08142597589044,2.243022596833103,-0.11476901173751655,-1.5032221881777499,1.6889474342939428,-1.2590921624840796,0.026094959889443,0.10108785574181559,0.24998280586056387,-0.03091093795582658,-0.8348234180035651,-0.371598197214918,-0.7749691056404189,0.45580038043906357,-0.6173897840430196,-0.24803849390075228,-0.7710436757909644,0.6005397380081154,-0.35647290846317814,-0.3657068472174514,-0.31948675945219607,-0.6594357174523049,undefined,1497326389158
903d185fccf839df,0.27989367134692256,-0.33037954173408174,2.189249930107053,2.2102023702637363,-0.44822101698779543,-1.454182386115337,1.6993378076817216,-1.1570324734657038,0.027251588813352223,-0.14096516554356073,0.20022827379937505,-0.019869495218520012,-0.9218610739750446,-0.3715981713133689,-0.72760061122212,0.34264646830073975,-0.662581514022373,-0.2619836371905592,-0.7750178638428499,0.42248751099718684,-0.395423987344857,-0.3947991369401562,-0.3994627327518909,-0.6240156367248733,undefined,1497326390651
903d185fccf839df,0.2577174585754705,-0.4747852897279277,2.538880108961042,2.829104395194465,-0.39988852619992626,-1.4483802530969163,1.7560259066627286,-0.7517290274451431,0.03360324925414153,0.3429925792562118,0.07114673369215568,-0.03480071764904539,-0.8391753008021391,-0.3993731794534674,-0.7791796481303075,0.3466876168623679,-0.7056397347327908,-0.29491494548677066,-0.8032010169346833,0.3609553251074087,-0.4351213816165735,-0.4320256548130868,-0.4191830523737685,-0.5942015000574374,undefined,1497326392230
903d185fccf839df,0.1953468256503519,-0.42136692489888145,2.894252766324203,2.795470087547541,-0.4078496521427725,-1.5235611054285636,1.897635699227207,0.04977908554378575,-0.061277406117464225,0.3965971830463312,-0.1672716768659292,0.011235573573785443,-0.7260263480392157,-0.4049282328845853,-0.7686533029489366,0.3527494386313355,-0.590267141312246,-0.24604995157371432,-0.7623606318781039,0.43830171725722133,-0.3871631689042226,-0.3895315052246281,-0.4124553408444151,-0.5725048720298614,undefined,1497326393665
903d185fccf839df,0.30206978060214534,-0.39847333997214734,3.280887318109835,3.2686080390709007,-0.26738818079537574,-1.5724821169282737,1.9081259955470495,0.029665723158630718,0.01126567147396717,1.4127187035573274,0.3379720586268725,-0.01023058808196168,-0.7347301136363636,-0.36048821986042767,-0.6833900291929131,0.22949224525047895,-0.5409799969549347,-0.1636013562985553,-0.6768805936485381,0.30096298368148494,-0.34160680234954177,-0.3253071759613261,-0.44171548807871547,-0.5376716717325725,undefined,1497326395151
903d185fccf839df,0.29375390784530925,-0.4436734363715095,3.18582383426072,2.9766223130744116,-0.22127739481831857,-1.5541673075171771,1.7601073640852523,-0.8735014841350665,0.007869560917335301,1.6145285889181737,0.3555118043148222,-0.023011575698353794,-0.6389886920677362,-0.34660071579037843,-0.7286532486851507,0.19514204437345575,-0.5385354047074185,-0.1834551338579225,-0.6719128587396664,0.30967850632153504,-0.3550626589910356,-0.3336266409838704,-0.3766233812280846,-0.506162049146398,undefined,1497326396666
903d185fccf839df,0.5903609606959387,-0.3127689748784708,2.966348115095279,2.6640730110682185,-0.005524617612410709,-1.4915503712249418,1.7870812803162155,-0.5426712052497762,0.0004933399750950725,1.7063889478366212,0.3672210488018941,-0.11386651453688836,-0.678155637254902,-0.34660071579037843,-0.7402322166050846,0.18908016607504505,-0.546146967533433,-0.1904910349202215,-0.658360037001336,0.3130045679666319,-0.35742378935863756,-0.33024317627705563,-0.3520140228618302,-0.4766930120746811,undefined,1497326398151
903d185fccf839df,0.39770497422231016,-0.3286183798277482,2.1930779949762176,2.2400195121172124,-0.055543954798526814,-1.4865192133763656,1.757019969229421,-0.7293249813600797,-0.0022164319865471513,0.903092818810409,0.08474847998082403,-0.013408139964391943,-0.7738970588235294,-0.2919764985794526,-0.7107585001604358,0.3406258233581218,-0.5278152503074222,-0.20114304651225817,-0.6444993559820409,0.38063454129562163,-0.34588587042622576,-0.31619116174813605,-0.29248007778386953,-0.5237617102799353,undefined,1497326399657
903d185fccf839df,0.36998477726881457,-0.2094542767531219,2.103118343482373,2.0352818198624423,-0.0628982282150405,-1.4780477708379849,1.8961630119063693,0.25972550690856167,-0.0021014938137818035,-0.11221858192632979,-0.16880518553748133,-0.08383510595034485,-0.7477857620320856,-0.2475365114568442,-0.6991795322405019,0.47196520080334853,-0.5514978356507833,-0.1809029579988669,-0.6488863569339018,0.45077446062655224,-0.32276514373133675,-0.33485689671302854,-0.21346955353410066,-0.5950121912478724,undefined,1497326401150
