UUID,iqrAccX,iqrAccY,iqrAccZ,iqrAccXYZ,meanAccX,meanAccY,meanAccZ,meanAccXYZ, covarianceAccXY, covarianceAccXZ, covarianceAccYZ,pressureDerivative, pressureIQR, iqrGyroX, iqrGyroY, iqrGyroZ, iqrGyroMagnitude, meanGyroX, meanGyroY, meanGyroZ, meanGyroMagnitude, covarianceGyroXY, covarianceGyroXZ, covarianceGyroYZ, class, timestamp 
903d185fccf839df,-0.7963466898799012,-0.6473679329995543,-0.3800222763519376,-0.7011842205417212,-1.0862608002042629,-1.2783757749620595,1.7455377353963364,-0.8772867337958336,0.018441592377608826,-0.7978907896947451,-0.01580953287345496,-0.7023403457845878,-0.39745919674688057,-0.6724942137049982,-0.7876006815744483,-0.21706189244578578,-0.6180302830091607,-0.3615105107695061,-0.6571304383438147,0.5055605142988264,-0.4035992803117459,-0.30344588922751176,-0.3517450363558293,-0.3008442662424094,undefined,1497373235545
903d185fccf839df,-0.6369549708053361,-0.3611977706794699,0.37123653430366405,0.08426285203787041,-1.0416844582188185,-1.528185186195488,1.90459344052749,-0.30801824750227047,-0.340436601950266,-0.880504114198296,-0.1252291447352526,-1.0196835216211,2.0504748774509807,-0.6012050175115624,-0.9044429246144803,0.36285238069720976,-0.7078525005313904,-0.43689565466401453,-0.8025257128627379,0.34355657789512756,-0.5071624785550597,-0.34549314554925886,-0.43806610853818156,-0.38056729940217343,undefined,1497373236949
903d185fccf839df,-0.6764564015625997,-0.36325232317289474,0.5903935657345283,0.5041982554234594,-1.0386284088993314,-1.6163737703211967,1.8348322574355422,-0.9340160034205733,-0.3159607267997267,-0.9592681136940566,-0.0770900620820937,-0.6776623149142899,2.607515875668449,-0.500289124384064,-0.9097061045673995,0.13452377015433645,-0.6420886342602133,-0.3654491528632705,-0.8450128618732592,0.21803148820388857,-0.50768731102589,-0.3584707024043925,-0.47278812131832293,-0.42767229511018146,undefined,1497373238473
903d185fccf839df,-0.4061836013780696,-0.28400521074253043,0.8424079633563437,0.8587467612862856,-0.9076316779617101,-1.7289557469663652,1.939260262494253,-0.4380748763682285,-0.4327709314858507,-0.6915279851308777,-0.1319952227746501,-0.4619237513567821,0.8014845142602496,-0.33919405126994373,-0.9076008443658059,0.07794672929100989,-0.5967435609602907,-0.3555479720094214,-0.8953672668576438,0.10124039215502753,-0.5342592593838553,-0.38910888571058455,-0.44361222544864504,-0.4474622242533845,undefined,1497373239967
903d185fccf839df,-0.31332053787056546,-0.308072884121492,1.610573742846236,1.5342824128332262,-0.6659486546428127,-1.7639805178024406,1.8791902341639537,-0.808994369328275,-0.3451045211493768,-0.6253299797410641,-0.2093450188434367,-0.04675351209232673,-0.8870460115864528,-0.3364165375051593,-0.931811395582003,0.09815289606997377,-0.6137972939671821,-0.38886451940997596,-0.917697428872581,0.0914563927921055,-0.5576819691357261,-0.3941824322894193,-0.450555153443134,-0.47043543744350447,undefined,1497373241447
903d185fccf839df,-0.24263385966156212,-0.3127690041064631,2.0157107352346384,1.9492161220756876,-0.42546905757133663,-1.7581807120349051,1.9659238680952473,-0.13161053535843184,-0.3201506224670322,-0.43731103827767104,-0.24493188521595938,0.20898737048386648,0.31407364081996436,-0.24661063468292574,-0.9518114116705453,0.09411160618473792,-0.5194548948702605,-0.33077840016681204,-0.9301371617617669,0.05754435649149745,-0.5338750312644087,-0.3843417934710761,-0.4850931515405474,-0.507156849536196,undefined,1497373243008
903d185fccf839df,-0.11789245578968599,-0.37205760660070025,2.2064760949498194,2.039299519520474,-0.2191482575858906,-1.7854444588970249,1.931139426255949,-0.30836785645287895,-0.4083537009346234,-0.6546171340237348,-0.19652806226619876,0.18700625852321562,0.49685271836007133,-0.17717311433267954,-0.9118113868556945,0.03753459358613291,-0.5289276005211304,-0.29226777005769483,-0.9217339927246809,0.14068056508493768,-0.4976115009030298,-0.3618058940987998,-0.5135093751575137,-0.5054057907991679,undefined,1497373244471
903d185fccf839df,-0.18996528531854406,-0.22882583014711236,1.3821653640455118,1.111209495180353,-0.3592805957184241,-1.6631617290967529,1.9078104255884019,-0.3175178282439256,-0.46438013116973836,-0.5788139263308711,-0.08994739234502155,0.15585803841047013,-0.7869527072192514,-0.17717311433267954,-0.9812851354774278,-0.019042390747750555,-0.5026625630157661,-0.3631587431271502,-0.935503717166156,0.06815388704639062,-0.5477341396277984,-0.340658563099792,-0.5238679219875068,-0.4913661180877929,undefined,1497373246017
903d185fccf839df,-0.37014722111905024,-0.4501306598068294,-0.15352831119121987,-0.26151461815008875,-0.643196693633939,-1.5445685145582444,1.829142409879089,-0.7749547214208805,-0.5805595823456178,-0.6504683099360876,-0.0009093051404169539,-0.11542907594254082,-0.8957497771836007,-0.2382781063393471,-0.9939167261359249,0.24363657612811443,-0.44220123931354527,-0.48623950333116306,-0.9503019721458601,-0.06542762671550184,-0.6367569778392322,-0.31209525111385295,-0.42179943915957724,-0.43136612179157363,undefined,1497373247493
903d185fccf839df,-0.7610033852808092,-0.14840465849251291,-0.46615335470271857,-0.5780253456503558,-0.9816064120146241,-1.5591705138989562,1.8664462055316042,-0.6838107994661589,-0.2818591266872839,-0.5663662973846038,0.004529047388960997,-0.1060868012180498,-0.8174158868092692,-0.5641716754832269,-1.0149693944119653,0.24565727760017544,-0.5055230503434083,-0.6671147071253417,-0.9947317209374924,0.12311094078275968,-0.689089463811283,-0.35071371766565157,-0.554996970006754,-0.4898965116314866,undefined,1497373248984
903d185fccf839df,-0.7804075714558297,-0.1378384177543203,-0.3915062168224822,-0.5753982775246939,-1.202028896196132,-1.755404258615402,1.8996422403174904,-0.8173380334020702,-0.26806793724452854,-0.7305781784138803,-0.020267963371316453,-0.1474951493436467,-0.2168560606060606,-0.7123050953996672,-1.060232606541969,0.4295324766852967,-0.5658070105460694,-0.7826402662309192,-1.058990431154156,0.17093851316012668,-0.7424102021226603,-0.40221931442816455,-0.6497878463076209,-0.55193655274448,undefined,1497373250441
903d185fccf839df,-0.6528941754929318,-0.6778926982878704,-0.1599081651695449,-0.3426296989139982,-1.2666847845351001,-1.9370732718983543,1.9500977019470909,-0.7567298953026009,-0.25722491063859754,-0.7156075121546515,0.06996830411242408,-0.021926317313847105,-0.4605614973262032,-0.6410158797800697,-1.0865484326842274,0.577036815818416,-0.5575764148225962,-0.7549336370720526,-1.066344079416129,0.1666577479108224,-0.7298614513452519,-0.4217609826363321,-0.6397885973780784,-0.5870433541665189,undefined,1497373251965
903d185fccf839df,-0.765161356164637,-0.6614562637264753,0.49852000887457615,0.48809408949922717,-1.2540539489079483,-1.971343369131802,2.0124477766892626,-0.3520083513731486,-0.26768216945117906,-0.7324062781750017,0.02740673022534687,-0.1007926699203179,-0.5563029188948306,-0.5308416333381724,-1.078127355066684,0.5426866149413928,-0.6700917789408771,-0.6443161090285473,-1.0491878994279014,0.31454441852891296,-0.6436809929299151,-0.42772272508896125,-0.6840801740601857,-0.6098965492326232,undefined,1497373253482
903d185fccf839df,-0.7138788296252444,-0.5781000609232574,1.3968399939160672,1.373713061347897,-1.1771889360657661,-1.9217538659018172,1.9675201745105075,-0.5820930408733916,-0.2890459305565689,-0.6670837337283964,0.033380257260362214,-0.020382893729075268,-0.5388953877005348,-0.4493682912364538,-1.0654957717704208,0.35072882195343913,-0.7167862107308388,-0.568561437518108,-1.0416173501755608,0.35051518682219196,-0.5982424602172943,-0.4298593910776483,-0.7559295625165038,-0.6223838808855446,undefined,1497373254950
903d185fccf839df,-0.5212228086462062,-0.5927754358762921,1.456813010199647,1.459661566185974,-1.0649514108622264,-1.9169323403013483,1.9552600150501631,-0.6411586935001601,-0.3335429575314881,-0.41139443514400936,0.05372077150755873,-0.07197991164884825,-0.4083389037433155,-0.46510742582198167,-1.051811551011127,-0.010960008830329618,-0.7209040304304923,-0.47067946110337766,-1.0168696300068807,0.017800975875806754,-0.6259966198150194,-0.41457309224926037,-0.6122102492983313,-0.5951129307764774,undefined,1497373256464
903d185fccf839df,-0.42835977964411187,-0.639736708795984,1.3547307720813568,1.4097785393358335,-0.9410190489841715,-1.9104454086592046,1.9243387560702434,-0.8219542666713705,-0.41053177901401794,-0.18991564708176434,0.07803865110786296,-0.08668091352449543,-0.8783422459893049,-0.3586365440172381,-1.017074654613559,-0.24332988099371725,-0.7091989594101984,-0.38398146228168833,-0.9586491668243909,-0.13447425216565637,-0.6014817367915133,-0.40871056012482093,-0.5771720213778648,-0.5615705994392959,undefined,1497373257980
903d185fccf839df,-0.23570372415966387,-0.5857312412848393,1.5391160236812633,1.5489076394950276,-0.6756274923691816,-1.915814304405369,1.8892992096771875,-0.9654515608963952,-0.5163429710856191,-0.2340977801006919,0.060816600407367735,-0.029456594685296666,-0.9871393159536542,-0.22901981777882094,-0.9897062057327376,-0.409019713698461,-0.663594783165998,-0.3344198471718885,-0.9237700639557466,-0.27932743061938087,-0.5918125722872001,-0.39582314556421677,-0.5355993349168413,-0.49308540062820366,undefined,1497373259456
903d185fccf839df,-0.16224498484881927,-0.46539307898597787,1.7368996293917207,1.6921033127655136,-0.4684118390199824,-1.8013997466446268,1.9023982696335433,-0.5026903621936765,-0.37630707077526304,-0.7209765526980701,0.1298994171057889,0.10943053921101768,-0.7826008244206774,-0.31512234301312625,-0.8465481512749148,-0.34031905756192077,-0.5471604427362962,-0.31094362410714993,-0.6752363423768228,-0.08215033575078255,-0.45427559830451875,-0.0691208272097412,-0.5002395797482628,-0.15173981660422337,undefined,1497373260960
903d185fccf839df,0.33256217667912114,-0.2845923134246288,1.7611445485036625,1.737878628812289,-0.29487155309751095,-1.6978114910873086,1.8633798415989702,-0.454859720448658,-0.43416515203931605,-1.407253939023267,0.01201701771852987,0.005239568956612262,-0.6215811608734403,-0.2243906670231706,-0.7602322326936269,-0.2615153463006201,-0.4591261052357805,-0.2398816633744314,-0.624460484798759,0.04938318630145719,-0.36946177744283665,-0.09428378675256535,-0.592089432709509,-0.24097552097865868,undefined,1497373262444
903d185fccf839df,0.2674195861683905,-0.2235426367080352,2.0488875515710148,1.9608034915830308,-0.3139720928400363,-1.6824548166752575,1.9527722173072277,0.1835543839984757,-0.43057788962562443,-1.5081278728595946,0.004812423953054649,-0.01723298282049472,-0.6389886920677362,-0.13273304950542378,-0.7539164447266122,0.037534565321411376,-0.4221405668252208,-0.15211339530506632,-0.6101030291550852,0.18344204969129027,-0.29719910327624405,-0.13994284474542293,-0.5354458929646143,-0.28391303578824184,undefined,1497373263940
903d185fccf839df,-0.3618310723189363,-0.2587635365953184,1.6730985482389762,1.691203538533847,-0.48703923579850356,-1.7852045455945253,1.921945628109434,-0.36105502026530256,-0.5129788336661787,-1.2358484603384097,0.05907109347616147,-0.01072201817624453,-0.6607481060606061,-0.24105563305490604,-0.6949689971128471,0.1547299369333003,-0.5191077117120089,-0.13711065205998813,-0.6075981713077803,0.34768187121767363,-0.26007595884182755,-0.14963292466841047,-0.5640888710647352,-0.33883244707803206,undefined,1497373265468
903d185fccf839df,-0.3479710083475982,-0.4031694307291261,1.6022794752279044,1.5912203123831465,-0.6330755643391982,-1.8745937582691,1.9780972482313783,-0.2594484100313445,-0.5039585393413099,-0.865121839271367,0.10711402161247222,-0.014710309790064022,-0.7782489416221035,-0.1281039505528716,-0.7833901832579624,0.1951420726381773,-0.5552849364477334,-0.21048413646535816,-0.6350676505588153,0.3592307079679257,-0.30416755748643365,-0.1561455290881071,-0.5006877455439195,-0.31247180479622244,undefined,1497373266952
903d185fccf839df,-0.3257947955761462,-0.4378033302322841,1.366214966688851,1.2230296784626475,-0.6784560585926402,-1.8697186613195724,1.9003917384947167,-0.8147526110434615,-0.5242376614912473,-0.7621786541610565,0.021113195081170166,-0.027080429761377513,-0.7434338792335116,-0.1299556263960612,-0.9233903179644596,0.16079164564338178,-0.652918706985093,-0.24808915735604825,-0.8920045413155175,0.2572314066106432,-0.444018052695428,-0.41560417358645174,-0.506017674846355,-0.4773727792876632,undefined,1497373268448
903d185fccf839df,-0.24956396065805062,-0.3761666531315653,1.218196712551433,1.1356211404875214,-0.7101977198974178,-1.8416000864782454,1.9576242130778287,-0.4095462492549582,-0.47857691739629615,-0.7423054609905817,-0.1629892825257604,-0.03830418804419248,-0.6650999888591801,-0.14847228122176082,-0.9254956002527546,0.07794684234989604,-0.656942519939442,-0.2555936948884543,-0.8987214807725599,0.25441348992275187,-0.46299156623922394,-0.44086578153531175,-0.42166483386402015,-0.42883597281582087,undefined,1497373269943
903d185fccf839df,-0.35628708813689275,-0.33096649827621843,1.2028844530747744,1.0830960645733552,-0.8032009920831369,-1.8296464315479117,1.96637883090335,-0.33649168199767376,-0.5438416018335326,-0.9477014070543773,-0.22466690217115853,-0.10593743825482398,-0.9436204879679144,-0.19013476753035943,-0.9402324805617803,-0.05541337789099937,-0.6321444464105291,-0.33241230296311547,-0.900155827240844,0.1764357653733242,-0.5197889322718522,-0.417775271828379,-0.46639093824495004,-0.4203222886692643,undefined,1497373271443
903d185fccf839df,-0.5614171597890533,-0.3485769336058639,1.357283069464416,1.3157656715551178,-0.8830077165029006,-1.8534768780519613,2.0010896345793396,-0.15112484391750095,-0.5072870611789565,-1.0482514748892042,-0.21063867459325772,0.10659131190974792,-0.9436204879679144,-0.19661563298152301,-0.9391798283742822,-0.07764004828897349,-0.5783037244391817,-0.29394600254619,-0.900855508444736,0.1115775115380881,-0.5131009463452215,-0.3929487744244479,-0.4794977385491534,-0.39912914717104697,undefined,1497373272946
903d185fccf839df,-0.6556661675839537,-0.4372163006201666,1.1499296827864711,1.0930583975047037,-1.065517122208824,-1.8763360315267241,1.9408828617065403,-0.6446937903237498,-0.4842360051867961,-0.7471693098364887,-0.17718748296622153,0.1955157646386741,0.38805564839572193,-0.2317973185928308,-0.8781271352833909,0.045617003768275384,-0.5793657555121517,-0.279589220132019,-0.8721475937174654,0.11387187529201262,-0.5016126473982535,-0.37363260630668504,-0.4674697414719947,-0.41021681420066025,undefined,1497373274458
903d185fccf839df,-0.587751481465972,-0.5645987159664655,1.3170882612697123,1.3391349512514492,-1.0160634912839805,-1.9189401448052334,1.9850636012729026,-0.3879881484465449,-0.5031552417279314,-0.6746226005678441,-0.17835625300932836,0.17069912974788873,0.5055564839572193,-0.2290197530249482,-0.8507586569536344,0.0981528395405307,-0.5647605482063937,-0.24597395347571607,-0.8701535028561778,0.12743790303772928,-0.48440217679539566,-0.3657165307824229,-0.4332346859761671,-0.4013527236499427,undefined,1497373275970
903d185fccf839df,-0.5544870587925648,-0.49474385812003957,1.155033261004792,1.2226426720171124,-1.0991822120026136,-1.91705578957353,1.9336482650453979,-0.7468219779530704,-0.5018124000026251,-0.6372618231248613,-0.14273825308508306,0.15913139276954733,-0.9262129567736186,-0.2438331338689159,-0.8623376175113345,0.19716268931607367,-0.5203215056113283,-0.2377537919734279,-0.8593224389400878,0.17326367469345622,-0.4721103441978683,-0.3327145918308134,-0.41541553578701845,-0.3631716364632407,undefined,1497373277462
903d185fccf839df,-0.41588567721287495,-0.5047231130881031,1.4919034777651818,1.4673875906982092,-1.0883719450433469,-1.9298549589968348,1.9809058668078126,-0.42536657536540906,-0.4981387426919907,-0.8623326431419412,-0.19222004938527812,-0.012565243836816044,-1.0045468471479502,-0.2873473478238023,-0.8423376087850261,0.20928630458928738,-0.5471084454571864,-0.18514602856296294,-0.8553692405623169,0.2640991016213269,-0.4291075903382674,-0.3657877432752327,-0.41811144352698604,-0.3556057776438382,undefined,1497373278949
903d185fccf839df,-0.43528988064060037,-0.5152893830542882,1.7101034294445174,1.66005533975143,-1.105435918836793,-1.9260815932669493,1.8932754688478939,-1.0147909070651553,-0.4661913457192558,-0.805423262000708,-0.16292427043679195,-0.0793411303615603,-0.9871393159536542,-0.3169740059055413,-0.8739165854312685,0.3183991812248692,-0.551043489142617,-0.2193819225037305,-0.8533261724714379,0.30689138068189387,-0.4419592794579862,-0.37844229232311016,-0.37352312296847795,-0.35744217015333607,undefined,1497373280449
903d185fccf839df,-0.4006395654379114,-0.5645987159664655,1.8638641620911063,1.7645524082538315,-1.1507855528122894,-1.9311243957291935,1.9748967601320118,-0.4992047080099025,-0.4266921923126489,-0.8795288605418556,-0.20731178455383983,0.05040531969294192,-0.9523242535650625,-0.26420149043935415,-0.7665480353851092,0.3365844769434429,-0.4424408394810153,-0.2052911230983668,-0.7991288753105893,0.4487264592374988,-0.39121464505462455,-0.3456743932469394,-0.28321698202542894,-0.2985686887038481,undefined,1497373281940
903d185fccf839df,-0.3327247412982909,-0.604515750452716,1.9704120946846644,1.94357976049538,-1.1586849691560985,-1.9061945484846528,1.8920946897115214,-1.0218043987832917,-0.44742377106460557,-0.9049919828297859,-0.1633034894839698,0.017879578512437964,-0.8043602384135473,-0.296605649335103,-0.7928638541651337,0.5972429260679368,-0.391445148784295,-0.23815276928542337,-0.7787051838660866,0.5012967537277591,-0.39479728183474616,-0.3292639896996976,-0.2526933541404028,-0.2982063022748826,undefined,1497373283442
903d185fccf839df,-0.3063904713794867,-0.5370089672127718,1.2756176855889032,1.2834289359929285,-1.105795912411623,-1.8952657567715578,1.9742708690027078,-0.4614803707009731,-0.4618853030349499,-1.0783428481211073,-0.09919092359160227,0.04811497681528079,-0.6128773952762924,-0.30864150346351177,-0.8654955225381926,0.758891638475774,-0.5365907901308244,-0.29513026397170555,-0.8139691109231051,0.5528969456971845,-0.41743503369871343,-0.3394757838970269,-0.29446597576429495,-0.37446988023472483,undefined,1497373284952
903d185fccf839df,-0.022257538212799084,-0.4659800647561069,0.3262563273513177,0.30141054366823566,-0.851327769608413,-1.9149641336193617,1.9429656644784652,-0.6479966026785626,-0.5334031991519538,-1.0087912646002999,-0.026728628755247716,0.1098675885670114,-0.8565828319964349,-0.36048820690965316,-0.8749692228942991,0.6861496641892764,-0.5233499071692846,-0.43384706156706915,-0.8632406532206558,0.47776793130711415,-0.5070986823257986,-0.2889619800899067,-0.2692191346683684,-0.37460167189771243,undefined,1497373286433
903d185fccf839df,-0.20798349270075855,-0.5663597317328374,0.016821210828981525,-0.08497157621515496,-0.8026558507822654,-1.9433226205554195,1.9254984973026676,-0.8183120262006733,-0.4563091897967886,-0.868027629741843,0.044168373249644594,0.03300878388299897,-0.9131573083778967,-0.3540073544092641,-0.8770744830958928,0.4153882729989081,-0.6185948669395607,-0.5017678819423581,-0.8884711529789202,0.4821564894709138,-0.5376833230697449,-0.2777823472336436,-0.35267716211153183,-0.4475386922410451,undefined,1497373287980
903d185fccf839df,-0.2038254528061113,-0.5810351212998682,-0.1107809514765075,-0.21651612461975575,-0.7415073805862304,-1.927227577062596,1.9307896650140883,-0.7479591142919979,-0.4140810803817392,-0.9594786951126852,0.13570262912973294,0.05840607585722543,-1.0437137923351159,-0.41233493625734363,-0.9149692918825526,0.38103793079827725,-0.6554459632608186,-0.5409941335741507,-0.923679106423665,0.4499275435557053,-0.5638476680256617,-0.36094466028402356,-0.42926960040222556,-0.5352876675148878,undefined,1497373289464
903d185fccf839df,-0.21214153259540583,-0.5845572112885965,0.2579895517233052,0.19938556859433407,-0.7911255847322279,-1.8963441945498125,1.9687272433013419,-0.4696992460350865,-0.3527764123748251,-0.8983458690138381,0.09418154138507663,-0.04625454646168082,-1.02630626114082,-0.4697365895284066,-0.921285087211801,0.35072879368871757,-0.7217127531906032,-0.5717532421945534,-0.9341463350914481,0.5744085760184555,-0.5456803475995207,-0.38527157884238916,-0.4109192880380186,-0.5008120389354295,undefined,1497373290945
903d185fccf839df,-0.3687612078208345,-0.5505103121695637,0.6624886603686548,0.7141262082287234,-0.6489258234574736,-1.861326411968227,1.9650586627557078,-0.3910412215865826,-0.33636027581182865,-0.8229385935645628,0.020852334778934237,-0.041158378276200176,-0.691211285650624,-0.5447291762605452,-0.9360219380718917,0.29011066079320597,-0.6786182569817192,-0.5676938254191518,-0.9326070370289002,0.551572681004281,-0.5512379067469223,-0.4214990509900902,-0.37503662221635,-0.4820765915182796,undefined,1497373292449
903d185fccf839df,-0.349357021645814,-0.5023750530956176,0.6063437089542396,0.7318853193936045,-0.5150574759956735,-1.8854573317294194,1.9608062585084918,-0.438390498580826,-0.3866389915418816,-0.34513494065531025,-0.08723540202127894,-0.1836852178901725,-0.499728442513369,-0.4577007742523215,-0.8949692610695428,0.2032244262908767,-0.8048738725816617,-0.5680864683645467,-0.9180746609542659,0.36303411424644627,-0.5765553942859083,-0.42952429758955196,-0.39052172137643687,-0.4750582847985983,undefined,1497373293938
903d185fccf839df,-0.3590590457225048,-0.5651857163505908,0.8436839849793987,0.9116939211570957,-0.6726754953246217,-1.8949350066863058,1.920096868418077,-0.74648331895202,-0.3626984815266255,-0.41327864399406106,-0.06713881086359333,-0.2372018073695697,-0.16898534982174687,-0.4484424209379226,-0.9181271748227092,0.23555412354888966,-0.6488909108266281,-0.5145667603503074,-0.9221747916508679,0.5411325342512717,-0.5187591858338434,-0.48243014259851325,-0.4338826951842788,-0.4180135636709798,undefined,1497373295444
903d185fccf839df,-0.35905911473332425,-0.5475752371789567,0.8704804390635513,0.8313653424510283,-0.782187311799224,-1.9203912616031207,1.9773819322615704,-0.4505117046457188,-0.3354095748732313,-0.5991251487303172,-0.0014965987915389833,-0.3244167314443638,0.7623175690730838,-0.45677494928150125,-0.9223377025881303,0.4214500382384327,-0.5919148584129837,-0.5518804664630171,-0.9181726156520139,0.4579347343261864,-0.5535109040284157,-0.47908776919032287,-0.42571620124756426,-0.4105153891247108,undefined,1497373296957
903d185fccf839df,-0.7277389971128118,-0.5493363114013132,1.119304655559255,1.1491239734059433,-1.0247240487745233,-1.8944016098475995,1.94125366713748,-0.7103494948298722,-0.3149476749614421,-0.7706695945207859,-0.019915509177609262,-0.27089841969326245,0.9538004122103387,-0.4114090594834252,-1.0076009837063875,0.19312142769555937,-0.6287754620367273,-0.5694797152039763,-0.9609930981744589,0.22912923566109605,-0.629115089580988,-0.47268094260440663,-0.4564736645754109,-0.464935725232991,undefined,1497373298445
903d185fccf839df,-0.7762494625503631,-0.3702965031503514,1.1550335151417412,1.071145986034815,-1.0605697013831772,-1.8419028859089768,1.9562041076847205,-0.5458689231575428,-0.3120678480420804,-0.8475236717066946,-0.06728732311931168,-0.2510895041610105,0.13999832887700536,-0.4688107645575863,-1.0276009777082284,0.07794672929100989,-0.6597474170255839,-0.5927342845756063,-0.9583133201959294,0.18100909405878232,-0.6480253885536683,-0.4708902328475637,-0.49311254013896844,-0.4757485986662211,undefined,1497373299975
903d185fccf839df,-0.6778424838716349,-0.29809365838142077,1.1658798260061827,1.1235696486882016,-1.0074749327304617,-1.8147439569893584,1.9642776137458096,-0.43140678986716574,-0.33740887623384214,-0.9532485125128123,-0.11514957067162623,-0.07818263163285878,-0.5650066844919787,-0.5123249785124727,-1.0244430800436042,0.1547298521391357,-0.6694777140101723,-0.6155708797309684,-0.9649812806494326,0.1975316278265973,-0.6571138626711065,-0.4487481877083556,-0.47702867040945773,-0.4719887481101038,undefined,1497373301438
903d185fccf839df,-0.7069487286287559,-0.3902550423144709,1.4580887776857525,1.3705827822039112,-1.0093777876808385,-1.8267535148152323,1.9141692851258887,-0.7653846828617865,-0.3555413231975331,-1.0601824669815645,-0.10765486942949773,0.1344795683642532,-0.678155637254902,-0.45399743551671684,-1.0160220171505283,-0.002877485589300998,-0.6602973608442725,-0.546826775741922,-0.9472933425880319,0.26158916151587774,-0.6139278873310483,-0.4311288414514107,-0.47776982700201215,-0.4574598995646251,undefined,1497373302934
903d185fccf839df,-0.5558731411016,-0.3714705331465942,1.1697078908753473,1.2239925130014557,-0.9705904223062937,-1.7729271267377293,1.8232148229205742,-1.2752514915135482,-0.3530198569707159,-1.0282019062989038,-0.10184220629034786,0.04399786244378322,-0.36917195855614976,-0.4151124111698044,-1.0012851736526716,-0.1544231146076562,-0.7181421950581969,-0.5544453074619777,-0.9511136016876044,0.1039090825421947,-0.6559547297602452,-0.39650446756967506,-0.40150968183866814,-0.49643776235400155,undefined,1497373304444
903d185fccf839df,-0.5004326091729699,-0.32392234752675414,1.5518764940487615,1.518479923750594,-0.9492887446738685,-1.7549710212960308,1.8868692749431049,-0.8179541057510957,-0.31405463377540693,-1.0679424549741,-0.14636260765839001,0.053396519717047904,-0.5824142156862745,-0.3697465472732775,-1.0170746619757927,-0.2352474708115748,-0.7619506319119397,-0.5221472933397222,-0.9641346653894642,0.02831811455987662,-0.6609869955871016,-0.3821549439430067,-0.44644416561787004,-0.5016944147904506,undefined,1497373305942
903d185fccf839df,-0.4810284229979494,-0.3250962898390199,1.5212517209584948,1.3990351419059683,-0.7756353217634534,-1.730993831775337,1.8254475297275359,-1.1406185167415936,-0.33816886588021067,-0.9781302480422059,-0.1569597126207286,-0.025765140776530873,-0.5824142156862745,-0.3753015489012972,-0.9981272759880473,-0.295865688501251,-0.7758869910919023,-0.4919454854737599,-0.9588450769172316,0.023775572910900416,-0.6449523473964416,-0.3622589134361906,-0.4266139746307986,-0.49217819390485573,undefined,1497373307437
903d185fccf839df,-0.4131135643529191,-0.35386014165893726,1.6329042483181713,1.5397225392283,-0.784666165991809,-1.739395397727022,1.8725420920553788,-0.8556657621802333,-0.3009570915382693,-0.8630128188324561,-0.13620555954648672,-0.05597109771930703,-0.6215811608734403,-0.3475265019088751,-0.9402324363883775,-0.17058799150138423,-0.5854642606592059,-0.4542391388130315,-0.9246446648320834,0.2599261336752308,-0.5691593822366546,-0.35976802766863153,-0.41611973042839756,-0.3079341619237098,undefined,1497373308942
903d185fccf839df,-0.3867793806976393,-0.3908420573125923,0.880688357911041,0.8563211984610319,-0.7771061821954535,-1.8191299151002693,1.9469708672000985,-0.4905678432091432,-0.263356962985095,-0.9145556904112022,-0.10201572913804723,-0.023421275047130635,-0.5911179812834225,-0.3558590302524537,-0.8844429158881718,0.5103567763597722,-0.3150962607881645,-0.47791801504009,-0.9040810374881345,1.188082831664844,-0.35608047154052225,-0.3824837411251056,-0.6604353225062002,-0.2965320791808644,undefined,1497373310482
903d185fccf839df,-0.36737519452261874,-0.5182244872728874,0.6165518819386788,0.5027281131748551,-0.7486765134605738,-1.8767669404119054,1.9732978521963767,-0.4014162432168951,-0.28643098409524415,-0.9059581444121604,-0.057153690173451475,0.020174021089622195,-0.5563029188948306,-0.3753015359505226,-0.8970745065466688,0.6760466373292375,-0.31153062956215066,-0.4613510351164093,-0.8945793685989916,1.2271486865639272,-0.3362104247020999,-0.38303227084393254,-0.7251153672743506,-0.30241372963784463,undefined,1497373311956
903d185fccf839df,-0.36044505902072055,-0.4812424985492515,0.3409312113588225,0.21656630346400996,-0.755105073779531,-1.8683677044183908,1.880752340563925,-0.9961760945650032,-0.19689690155593317,-1.0396538356105993,-0.1547898183148236,0.02045515092403174,-0.6868594028520499,-0.43548079364179176,-0.9644430391402112,0.7184794745061754,-0.2290013814209717,-0.48268672164023957,-0.9190752039614862,1.125226376222268,-0.3657893172358811,-0.39573572943907287,-0.6969047559183653,-0.25092610768616175,undefined,1497373313446
903d185fccf839df,-0.26203811484740214,-0.47889442394276976,0.7805205334327575,0.7215369526969452,-0.6251555767593534,-1.8546880807618016,1.892139393751599,-0.83377537299656,-0.33715668390279757,-0.9608116023311893,-0.18881135927346726,-0.08946341162226516,-0.6433405748663101,-0.3364165375051593,-0.8549692068057568,0.9387257313963494,-0.20617373015289767,-0.43813446201714057,-0.8726933457121276,1.2462427592673428,-0.3065689635212272,-0.3953916596391095,-0.6775738496266726,-0.30122225544309866,undefined,1497373314942
903d185fccf839df,-0.2703541256258772,-0.29339753839644966,0.9821322040123796,0.9541715233550528,-0.7248445549128306,-1.8105513272996423,1.84639918387386,-1.0807622120995346,-0.3962836892321461,-0.8265199777158936,-0.19759825362314462,-0.08251836851875202,-0.7260263480392157,-0.3623398957036173,-0.864442885075162,1.0922918922984364,-0.13101218842887283,-0.49059023476827485,-0.8878694285219917,1.15489917953374,-0.35082204584712273,-0.4302826828547583,-0.6369992836764572,-0.2860907675489724,undefined,1497373316436
903d185fccf839df,-0.5073626411586389,-0.34975097821610285,0.9457654606868404,0.9046080458677052,-0.9576098820461952,-1.8417281927606044,1.905488300226067,-0.8267440119877054,-0.4028490959550799,-0.6323547393300306,-0.12186764930627807,0.059873212031929975,-0.7869527072192514,-0.363265707723663,-0.9939167482226262,0.2214099622595834,-0.5749253506101778,-0.48039419551411366,-0.9384213877482759,0.02457628970474084,-0.6254790572103329,-0.4201146318984212,-0.3023087084519117,-0.39268143463351923,undefined,1497373317945
903d185fccf839df,-0.568347226280132,-0.4014084149627543,0.6037914115711804,0.5066501310779973,-1.007402937840492,-1.839412930415959,1.9061799442983758,-0.8721382321514404,-0.3026890210343635,-0.40618882615821994,-0.05569305889892972,0.007147821581200881,-0.7129706996434938,-0.392892365805402,-0.9612851267511194,0.22140999052430493,-0.5905633800830544,-0.48774041057852835,-0.9458589973982137,0.001940573875564276,-0.6377934674704479,-0.4200794675856465,-0.24391092736856343,-0.3650751189970155,undefined,1497373319443
903d185fccf839df,-0.46994028210681366,-0.5775130313111398,0.49022574125624463,0.4827303897654213,-0.9286350684835256,-1.8545459979636676,1.9490641897096388,-0.6017659310507263,-0.313653939647166,-0.23252619922123235,-0.0404926773358288,0.059283387846144786,-0.6868594028520499,-0.44010989259434397,-0.9202324423865367,0.20322448282031977,-0.6106392481339021,-0.4700208346508756,-0.9152619432326412,0.04665765654372144,-0.6183439278425135,-0.41202923315020373,-0.2115562730588276,-0.3462818398777864,undefined,1497373320949
903d185fccf839df,-0.34104083834029025,-0.5716428521019337,0.4985197547376267,0.6465933946247938,-1.016608634427332,-1.8680206466518776,1.9592073453352477,-0.5683065388430802,-0.3184910674395271,-0.17798500094878886,-0.03873324702241214,0.0884874661134066,-0.3822276069518717,-0.49288248576517835,-0.9749693401481794,0.19716257625718753,-0.7080745913886585,-0.5616838623842167,-0.9555565763924313,0.020726675704556646,-0.6752253164720194,-0.4085568193389914,-0.30249347473229,-0.36996204551544504,undefined,1497373322477
903d185fccf839df,-0.3909374550976963,-0.6855239078774445,0.2911656056488335,0.3162806843877648,-1.0496154338111494,-1.892079358387714,1.9346502175462423,-0.7784777618735151,-0.2947814194508542,-0.3620781588503863,-0.024866410711092808,0.06711135281365871,-0.6346368092691622,-0.6021308619085445,-1.027600992432696,0.10421466130949832,-0.8132827692197452,-0.6656771305549635,-0.986895292272366,0.012257530991807528,-0.7266993541962737,-0.42223732480278364,-0.48675119634539715,-0.43573484338030344,undefined,1497373324070
903d185fccf839df,-0.5600312500070668,-0.5657727021207197,0.2752154624291221,0.24146165808764056,-1.0687879762276715,-1.8842670901461531,1.9533034245128615,-0.6459973731412745,-0.24865622747835198,-0.3885447737510084,-0.05289874869227952,0.06193234840338052,-0.7913045900178254,-0.6956400581386718,-1.0581273463403753,0.07794678582045296,-0.8519027063699821,-0.6952836421360375,-1.009543968651976,-0.01895511833168456,-0.7512977905394594,-0.4236616723502823,-0.5065545592055877,-0.462725232789828,undefined,1497373325449
903d185fccf839df,-0.4838003460781517,-0.4295851348725809,0.22098467051776396,0.2271959573754085,-1.015024638461767,-1.8535001696350348,1.9093830407270096,-0.8584548010038993,-0.2645022857556502,-0.4332913013677793,-0.08334443084181731,-0.03591704736191126,-0.852230949197861,-0.7317475816715744,-1.0991800159804905,0.04157571388303954,-0.8883044366512717,-0.7186648689859755,-1.0503003922104834,0.08071901921713807,-0.755097725514426,-0.44885641775016083,-0.5261623614987304,-0.4852286452623755,undefined,1497373326942
903d185fccf839df,-0.2800562532187972,-0.32450930406889084,0.35624296256158233,0.3891769035443328,-0.9215070852731269,-1.7783169865551387,1.9276864833092031,-0.5954399204853325,-0.26094167326320333,-0.5861933026112833,-0.131358437422038,-0.033557297178583065,-0.7738970588235294,-0.7271184114897622,-1.1065484450916527,0.043596387090378996,-0.8902964779669601,-0.7348772042741157,-1.05629665924802,0.14342148898018076,-0.7505464660342156,-0.4544980043593467,-0.5559963395212129,-0.5189079498883211,undefined,1497373328445
903d185fccf839df,-0.33688283295105276,-0.398473310744155,0.2611794787124677,0.27960276976153003,-1.0946050803394116,-1.7262468432305969,1.8992951031177236,-0.7593347294417863,-0.3092518392817098,-0.6348741400192611,-0.08885317353154473,-0.05428311316508439,-0.9131573083778967,-0.5984274972713908,-1.033916773037477,0.2092861632656797,-0.7590317429157496,-0.700362660695273,-1.0371883683951422,0.940198648429655,-0.5545347105253141,-0.4502331909071684,-0.3271930507161553,-0.33933377042507495,undefined,1497373329952
903d185fccf839df,0.0539732967052965,-0.6714355479225312,-0.006147178386006499,0.03855819971253726,-0.8665094581091073,-1.658596420099279,1.8483662779121885,-0.9567864860503258,-0.1034455427667963,-0.804406880056853,-0.04579268740614715,-0.004010626693057857,-0.9305648395721926,-0.5660233448510292,-0.9349692711599259,1.1690749303523975,-0.26984294963711214,-0.6533785510931587,-0.9255402580679246,1.3080675076105261,-0.4305292887855236,-0.47457120914497464,-0.2676681813089683,-0.23426433148570044,undefined,1497373331443
903d185fccf839df,0.15238041340566358,-0.6596952479601035,0.12719695415475482,0.1374476838155012,-0.6683040711164997,-1.635660400427876,1.9112475708589736,-0.46616792362578674,-0.16908609469934976,-0.8680567334012542,-0.01654857194639975,-0.050560063402529644,-0.843527183600713,-0.5206574939052768,-0.9423377481256078,1.3246618492559887,-0.22305945928632923,-0.6043109031097691,-0.9363223441610685,1.3141652915360749,-0.40967019913171854,-0.4773876594829384,-0.26585670092972635,-0.22382423109509325,undefined,1497373332964
903d185fccf839df,0.11357197204480306,-0.5569675063768913,0.2343827704913656,0.20268954378698506,-0.5684402402484457,-1.6749337033508787,1.8411790182371528,-0.9428488732648244,-0.18132264982434906,-0.779608682606175,0.018099685149060102,-0.02876826496322331,-0.7869527072192514,-0.5234349688177375,-0.992864096035128,1.3024351788580146,-0.2877207459363769,-0.580980339698517,-0.9076144288771454,1.3113473760867158,-0.3932296876995455,-0.4881912835566398,-0.3555126497118434,-0.2594860777219587,undefined,1497373334477
903d185fccf839df,-0.0776981046468389,-0.3532730974328235,0.7294799226475113,0.6810792137981612,-0.7929050083933812,-1.7448784268340818,1.894264284377921,-0.7294218436865666,-0.3272522301397593,-0.6850411121949586,-0.024650150053559895,0.07918917828007233,-0.6302849264705882,-0.5049182880904889,-0.9749693327859456,1.3367854645292023,-0.2599507537300762,-0.5469281016171571,-0.913393793988404,1.2458885853022905,-0.3884304591502523,-0.48946092732104063,-0.3818389007906876,-0.24176942986622427,undefined,1497373335940
903d185fccf839df,-0.44915008263357736,-0.38908108538820896,0.8577202228330024,0.9059249008846425,-0.9577641644549787,-1.8384998678035538,1.928367610262701,-0.6822298477547575,-0.40083448261512544,-0.6059998527907716,-0.06034878885903215,0.05853706778347092,-0.673803754456328,-0.3780790626660816,-0.9686535448189308,0.48408898566489145,-0.3188273576085553,-0.49317407582187067,-0.9280311226054463,0.716166664783507,-0.47975879674159394,-0.479903269314409,-0.418158545182554,-0.3519119422091053,undefined,1497373337444
903d185fccf839df,-0.5863655371785758,-0.4284111048763381,1.1952280691994956,1.2158055960101724,-0.9502761747743911,-1.8322807980163875,1.9323701721818916,-0.6375688833466933,-0.43607216305833435,-0.7847828957889996,-0.1273091295967925,0.022583516458837338,-0.843527183600713,-0.35863651811568903,-1.0907589530874147,-0.12613462244071447,-0.6932324976805551,-0.468171616176727,-1.0365446609442164,0.11625863331305165,-0.6290275628282852,-0.42792354139009414,-0.4731169436390393,-0.551811414710057,undefined,1497373338943
903d185fccf839df,-0.7027906542286989,-0.4783074089446484,1.05295178529735,1.0703515766498968,-1.0501091519862245,-1.8414277212734353,1.9239916141566282,-0.7419240571605051,-0.4182676850279933,-0.8817133014080027,-0.13237429893953578,0.011682165754551251,-0.8783422459893049,-0.39752160721647417,-1.0581273463403753,-0.12613459417599293,-0.7771144109450595,-0.4647834914477389,-1.0154352825170472,0.21724164052875813,-0.6023236051821477,-0.44685266427433623,-0.486212897556347,-0.5486701256898641,undefined,1497373340445
903d185fccf839df,-0.6321040105251053,-0.41784477645416845,0.9623539959235035,0.9449697366334183,-1.1153307575453197,-1.8164349843978622,1.9044942313742432,-0.8552959290663519,-0.46243341582914704,-0.7808392672725433,-0.11935835839576252,0.025026041572238242,-0.9088054255793226,-0.42807414207213157,-1.0497062797661827,-0.12613462244071447,-0.7797100289446705,-0.4985127491966952,-1.0205569484396815,0.10651141834176307,-0.6398410937448556,-0.4316905369187805,-0.48623953944081644,-0.5424465666672909,undefined,1497373341944
903d185fccf839df,-0.7249669532636753,-0.45247874902730734,0.5329725926970582,0.5465807302838532,-1.244292823056608,-1.7757641388338885,1.9227740167242429,-0.716229416016247,-0.4783411800249543,-0.5576824893662777,-0.10661591500626058,-0.04488246369957701,-0.8913978943850268,-0.5280641454749371,-1.0212851897412139,-0.11199033396016131,-0.7748638998029218,-0.5480427013598411,-0.9979432558208361,0.12418883343139162,-0.6556757399378934,-0.4112188559439953,-0.48699585633472037,-0.4960512706101971,undefined,1497373343432
903d185fccf839df,-0.7762494970557727,-0.6303444395980494,0.18142774606611295,0.09909228166100206,-1.3359178077781146,-1.731874284604693,1.8978171546186764,-0.8542506963277795,-0.48442458763270213,-0.41531231950420794,-0.07381509245361267,-0.06226163796480089,-0.865286597593583,-0.596575840854363,-1.0454957483196445,-0.09784610200905121,-0.9069996244509574,-0.6170907872488989,-1.0219283235672563,0.12886995975661555,-0.6914563765288037,-0.4241293922074429,-0.5663478702375359,-0.4927777536001531,undefined,1497373344976
903d185fccf839df,-0.7554592803298317,-0.5675338347990609,-0.0189073946165554,-0.08188377150052507,-1.4136673916278817,-1.789865354253886,1.9359388275285598,-0.7024639774361717,-0.3987697589971466,-0.4258384903024078,-0.06490397827148754,0.08496705956780809,-0.6520443404634582,-0.6234250369744158,-1.0728642045626997,-0.22110326712518621,-0.921281639722911,-0.6930227819297552,-1.0345435738164706,0.02419132544532795,-0.751629978251203,-0.42248783379011356,-0.5485711449287921,-0.47560038683205724,undefined,1497373346446
903d185fccf839df,-0.41449969842006895,-0.6931550443970379,-0.16373597590176014,-0.25873894752812804,-1.0597982777502413,-1.7640038122377684,1.9420610183721017,-0.5760750964432411,-0.19291752044678823,-0.6590240117337641,-0.0036336275211232972,-0.021098175439013527,-0.45620961452762926,-0.687307575122804,-1.0854957952211968,-0.158464347963449,-0.836366788421223,-0.7276576507962152,-1.0466620501325343,0.22432491992796535,-0.7311653173377826,-0.43858910235847803,-0.5685873647696366,-0.4661534882014776,undefined,1497373347947
903d185fccf839df,0.5806587295867894,-0.7641840345376798,-0.35641600339389684,-0.45540705102685275,-0.21845911832094786,-1.8224723741829236,1.9224821101110612,-0.5719553719043448,-0.07986994392234582,-0.8919562661266702,0.015786845489244035,0.07090408566860054,-0.5475991532976827,-0.7280442558867443,-1.0212851897412139,0.5830988071757129,-0.6044406783665248,-0.7042320932242655,-1.0226629883912202,0.9867789433602953,-0.5506122966475177,-0.431982305736515,-0.44000640475354164,-0.37290960653352223,undefined,1497373349436
903d185fccf839df,0.19396081235213616,-0.8064491144024196,-0.4674296304627229,-0.457845210807657,0.3921924285057227,-1.7177521086851104,1.862688211668206,-0.671115447766723,-0.19382940677305247,-0.7806958011125227,0.043435647537569934,0.017766310999166677,-0.9479723707664884,-0.7854459480101308,-1.0149693870497314,0.4315530933631931,-0.7790360273858203,-0.7288229135180418,-1.0184229215566063,1.1805067869874177,-0.5196237048833291,-0.4672539487969727,-0.4662148467148811,-0.4414634760664719,undefined,1497373350941
903d185fccf839df,0.07337737936408782,-0.7841425444738069,-0.3806601600949903,-0.3471643888932738,0.6083772162081691,-1.6836823259709413,1.8567842897982982,-0.5958246091383077,-0.2717157702767831,-0.4239384936341836,0.02433820918724726,-0.03525179344777401,-0.9827874331550802,-0.7965559512661702,-0.981285164926363,1.47014554344649,-0.4520998578052419,-0.6877347737708862,-0.955927407748153,1.8736985988175077,-0.3373929927828468,-0.4337862956379479,-0.4075272047597017,-0.3934146372698086,undefined,1497373352445
903d185fccf839df,0.020709012053528177,-0.6690874879300457,-0.05336023257598686,-0.0056599711283505435,0.12196660240676852,-1.7151899447463277,1.8808864673494625,-0.6172460500560216,-0.058718752782905004,-0.3882095694991514,0.0008459816577776258,0.03555946945705147,-0.9131573083778967,-0.7678550922537024,-0.9149692550713836,1.049859026856777,-0.5205717320702948,-0.70441574739499,-0.8937817340675736,2.0464845610263933,-0.288885333297662,-0.4367052466753837,-0.3522718190404799,-0.5387955830751877,undefined,1497373353941
903d185fccf839df,-0.16501711496147997,-0.6526510387546545,0.3824012787657329,0.40286664830570584,-0.24299050227678876,-1.7941744451388808,1.9264846730777738,-0.5258074555133649,-0.23750712607848876,-0.3074686474604809,-0.09770647610922965,-0.09012149913111706,-0.8783422459893049,-0.7428575849276138,-0.9223376952258965,1.0074263875328897,-0.5144353106745972,-0.701204944773379,-0.8840351771403023,1.6123561901343275,-0.37465796051889816,-0.4338797442241801,-0.3635112917083313,-0.5012494688054,undefined,1497373355458
903d185fccf839df,-0.2509500084616761,-0.7547917361117529,0.7977469524124732,0.7769739741229722,-0.17474490580142893,-1.861352033763166,1.9238049038720795,-0.5983741895856005,-0.34550032293973754,-0.25409949063347703,-0.08944663811837139,-0.21779942332479713,0.3445368204099822,-0.7178600776015251,-0.9076008296413384,0.7245413528045862,-0.7212672930694453,-0.7290129005217104,-0.9030385157382743,0.9066146430711581,-0.5414692481125847,-0.43817568684288505,-0.4863613029763804,-0.4306613662457561,undefined,1497373357186
903d185fccf839df,0.06921947749107951,-0.6966771928417509,1.2105403286761542,1.2263213714598977,-0.13609126039992397,-1.8793756872722007,1.940038688509579,-0.48786035404963923,-0.4201503105860205,0.0738375392353118,-0.09325758239995365,-0.3088469916952412,1.1365794897504458,-0.686381730725822,-0.957074576898997,0.9750966337454336,-0.5760960525136655,-0.7007679718312757,-0.9380785440948404,0.7187844034845462,-0.5690247521568778,-0.4493719860446749,-0.5273226480378355,-0.32978673492404836,undefined,1497373358443
903d185fccf839df,0.030411105141038442,-0.7301370769626623,1.6928770104648017,1.6670095659428112,0.07691524484909679,-1.9293937710220368,1.941435111529971,-0.48011403355354476,-0.3545193634237791,0.30009738111475465,-0.024069535391143048,-0.39510079425433975,-0.12546652183600712,-0.6539775653546859,-1.001285158928204,0.13452377015433645,-0.8380111250388326,-0.6951189869402985,-0.9848662180723914,0.25529120023620533,-0.6724968709564896,-0.467030658482416,-0.5618195512334753,-0.437904306871725,undefined,1497373359948
903d185fccf839df,0.4240393649100484,-0.7477475561342962,2.116516697592924,2.020095105675635,-0.12373813088080189,-1.9389646141994306,1.9531535210015858,-0.45176006339605757,-0.40709378540688,0.6460125870045933,0.010525998943149558,-0.2801950721707879,0.48814895276292336,-0.6104633773013486,-1.056022078776548,-0.08168128164476626,-0.9610823805009581,-0.7021992172130995,-1.0237964736556477,-0.085845961123188,-0.7577673128876851,-0.4874820129205463,-0.6381185074930925,-0.5239181336245456,undefined,1497373361437
903d185fccf839df,0.09693974345539455,-0.6708485036964175,1.7171211671658952,1.669873995282543,-0.4335844680275143,-1.8992114874131452,1.9642223789691375,-0.43241363502807273,-0.38289344999216507,0.5560866307941537,-0.0005198260000735826,-0.3203343092213793,0.8232439282531195,-0.6039825312763468,-1.0454957409574108,0.148667973840725,-0.7793548280302957,-0.6228221023399786,-1.0225300509909592,0.5208373870975229,-0.5907219853567439,-0.4633833409619542,-0.6307622140600508,-0.48436532808464555,undefined,1497373362931
903d185fccf839df,-0.1774911656346023,-0.5980586147013731,0.6880090928297526,0.691763058360788,-0.39496168231980244,-1.9038559903745944,1.9403411153841377,-0.5962280052877452,-0.3537431969227497,0.30293811285624755,0.001583093104107069,-0.26885405796549167,-0.09935522504456328,-0.6113891698952325,-1.0581273463403753,0.8861899521535371,-0.5612949952114622,-0.6212831967052456,-1.0167017063317432,0.8784354813483091,-0.5095739569111374,-0.46241609098015607,-0.6500992173601114,-0.46014754005691577,undefined,1497373364440
903d185fccf839df,-0.32302263095807576,-0.5235076222559799,0.5559407277750967,0.5764746072049824,-0.6218024452383009,-1.8572712072931512,1.918863491117388,-0.732544842355265,-0.35973806133725256,0.004988453178783357,-0.04069556420211409,-0.1997682391184878,-0.7042669340463459,-0.6280542006808406,-0.9960220157864537,0.863963281755563,-0.5698386284552123,-0.6437144831718112,-0.9693053091411618,0.8418795714953424,-0.5188703652990303,-0.45053431064752686,-0.5797213293326426,-0.5551519801371051,undefined,1497373365955
903d185fccf839df,-0.2661960857312299,-0.49239576889956166,0.6414341765197744,0.6709848205133452,-0.5344665881457424,-1.8493191845227446,1.9548050386242772,-0.4417965806954252,-0.3103625384155015,-0.2657731303646536,-0.02706552924450604,-0.08487763287973984,-0.39528325534759357,-0.6086116690812227,-0.9865483227925809,0.7609121703595058,-0.5415075939811304,-0.6284077587021949,-0.9519532180997147,0.8457907754001668,-0.5127649259467357,-0.43478814072508704,-0.5640928880745191,-0.5412222172070328,undefined,1497373367490
903d185fccf839df,-0.22600170008297307,-0.485351588922105,0.8168872767582965,0.8691677146497939,-0.4562027124602329,-1.7778697720454364,1.8592668211254146,-0.9413743500705526,-0.2689264257284952,-0.3766866270822628,-0.011316885507958745,-0.10274786529574365,-0.47361714572192515,-0.603056667453203,-0.9223377025881303,0.5891605724152374,-0.5225218156436917,-0.6364569296455435,-0.9411921224024985,0.7844587691127178,-0.5244817890028134,-0.4268511290239053,-0.539762342594623,-0.5485754111741734,undefined,1497373368956
903d185fccf839df,-0.13452468437909448,-0.4906347239051975,0.5144696438203887,0.6320454199019272,-0.18074146428010213,-1.835958668186993,1.9610403146830826,-0.24268997215440075,-0.2697326378908775,-0.7990534984642227,-0.0850938135502066,-0.033859557392361565,-0.8348234180035651,-0.5762075231362483,-0.9318114176687043,0.15270917893179622,-0.8507128208160053,-0.5929876021455287,-0.9562912397605347,0.4011144746950066,-0.6088022856134104,-0.42396973520700626,-0.3819826189959276,-0.5472652305310648,undefined,1497373370426
903d185fccf839df,-0.18164913651843007,-0.46187101822524185,0.49915763848067946,0.4234900902783098,-0.4072633722008272,-1.8186873590884824,1.923731270422619,-0.5536933915773604,-0.3098808178718168,-0.8542067186446278,-0.06318723068796618,-0.033219374648128686,-0.8261196524064172,-0.5576908294582251,-0.9581272290864952,0.1264413034427509,-0.9272506284455105,-0.6265522045990859,-0.9890293186232569,0.3967105222725393,-0.6308725446722026,-0.43924622774117494,-0.35783282122353766,-0.5725284944725963,undefined,1497373371912
903d185fccf839df,-0.3840073541012078,-0.4278240606502244,0.2726634191830123,0.3365252232588807,-0.6837634819374466,-1.7873660779926859,2.024889376352011,0.05765378769295876,-0.30536914700300766,-0.511124145870534,-0.09626932709894903,0.013831987153630156,-0.7216744652406417,-0.6104633449244122,-0.9981272723069303,0.2274717981609118,-0.9213683555955494,-0.6705914941343897,-1.0192905260563778,0.3932766710381375,-0.657949121310574,-0.4465155284266057,-0.37523063399722095,-0.5558065484977722,undefined,1497373373432
903d185fccf839df,-0.39648147378514953,-0.6097989146638009,0.2005683245488857,0.18408754815072198,-0.8004444239884917,-1.7428426706364333,1.957145571039575,-0.4005788871871108,-0.22674210609402692,-0.6415177060389338,-0.05396344472755529,0.018925374599315547,-0.7826008244206774,-0.6234250110728666,-1.0265483586507822,0.3709349322029599,-0.9186127837164325,-0.6633592730029381,-1.0351103151182237,0.723450139280162,-0.5891990625633827,-0.43167834153090456,-0.4332054488042542,-0.5725287213830842,undefined,1497373374931
903d185fccf839df,-0.2232296044757221,-0.6955031043895235,-0.0903651137815281,-0.11218319838139607,-0.9804646942959613,-1.6859859412302065,1.9468919500507098,-0.4426727261336994,-0.22109302343464854,-0.7220729208251349,-0.013561446543135635,-0.01914293752242362,-0.843527183600713,-0.7632259673996011,-1.0244430947680718,0.6336139414759072,-0.7191320722933979,-0.7329203270973246,-1.0135391474484614,1.126843211069018,-0.513801944113631,-0.435523476670884,-0.5521525480488292,-0.40425494195890055,undefined,1497373376430
903d185fccf839df,-0.44221991262626936,-0.6843498778812017,-0.09164088126763356,-0.13100943524310335,-1.081809665453533,-1.7211038816023785,1.9414929598735187,-0.5452844846485597,-0.15879481562223258,-0.7269761258862106,-0.006143994909637334,0.11550440391631672,-0.8391753008021391,-0.7808168037298677,-0.9654956471543067,0.9326639661568249,-0.6387358086392437,-0.7529894251348264,-0.9928425807039727,1.2753920100217921,-0.4793114238031082,-0.444940803474235,-0.6022845225057999,-0.27853168026360037,undefined,1497373377928
903d185fccf839df,-0.5378548992139758,-0.6526510095266621,-0.03102972710405157,-0.021309817714033858,-1.1847900681477077,-1.7478971203349154,1.968411660600574,-0.41679092778827553,-0.21912792852791255,-0.6643860144913317,0.006309480540401565,0.01822949589037635,-0.8826941287878788,-0.7280442558867443,-0.9770746040308899,0.995302772259676,-0.620715400764699,-0.7067272707852715,-0.9906385849597321,1.1686961835976686,-0.48528065870920545,-0.44831489358857585,-0.6615919526181301,-0.2290231841679591,undefined,1497373379465
903d185fccf839df,-0.5517150321961333,-0.6890459978661728,0.2784053894182846,0.18425255611671415,-1.1684769545531937,-1.799140383106052,1.9156551287966965,-0.8263725014016989,-0.23400014013896386,-0.6706513867108476,0.018016899876853475,0.010442996581949644,-0.7173225824420678,-0.7002692477466458,-0.997074627481666,1.0336943195513781,-0.5295463960011808,-0.7292408857355733,-1.0074309311860985,1.1283060598592904,-0.5072630287333768,-0.45704141669648174,-0.5842923212043055,-0.19829596580912398,undefined,1497373380927
903d185fccf839df,-0.6709123138643269,-0.5346609364482786,0.37793558429046487,0.41999561867806146,-0.9861321167350354,-1.7565269518631403,1.9693320980979805,-0.3772643500394669,-0.22061792898175692,-0.7464515751284216,0.004754124331207575,0.04940599034805378,-0.7869527072192514,-0.7123050630227309,-1.0349694178627413,0.8417365548281459,-0.39070577007107815,-0.7412608118331266,-1.01924854491585,0.7656110747673971,-0.5908272824203031,-0.47026453636335497,-0.5529594718452384,-0.15431337669139955,undefined,1497373382435
903d185fccf839df,-0.6875445769591452,-0.5041361273179741,0.3473110653371475,0.29485063535014755,-1.01319378861402,-1.7814963969100996,1.9078261907914,-0.8136789887212045,-0.2824486554009488,-0.8232550767059672,-0.011265976552287471,0.03983067261921659,-0.7869527072192514,-0.7086017631394499,-1.097074755778897,-0.015001213921400854,-0.6462435408524512,-0.7487400197667332,-1.069086829249201,0.310725595455818,-0.7046013543366284,-0.48900958799694727,-0.5603557859857962,-0.32669841077881817,undefined,1497373383930
903d185fccf839df,-0.6958606567484397,-0.5170503695926676,0.06403426501896188,0.07429807319136897,-1.1765203722659607,-1.7486517942899975,1.949224593579377,-0.5334417436220029,-0.29976190393778157,-0.7864837893583138,0.024167003745785648,-0.037101596958236206,-0.7913045900178254,-0.7048984049776834,-1.092864224332359,-0.0028775703834656064,-0.6591100560952,-0.7588030675192589,-1.086592850007594,0.4332818202588229,-0.6853517561687105,-0.48238746298841256,-0.4623982737131254,-0.442202682058639,undefined,1497373385427
903d185fccf839df,-0.5766634095856558,-0.6456068880051902,-0.26581821402005024,-0.2820739776007498,-1.0704954101782043,-1.7933522239663395,1.9156077829066547,-0.811121067734476,-0.30740129437651087,-0.7719567351961102,0.029519703242751036,-0.005998415091546432,-0.8261196524064172,-0.7132309268458747,-1.0360220626880057,1.7449482245220942,-0.10180155875294442,-0.7788721663208207,-1.053043142068024,1.01691370186603,-0.5554668794849009,-0.47724292037764815,-0.46021930095848207,-0.28413614203882,undefined,1497373386942
903d185fccf839df,-0.4228157264512489,-0.6996122678323579,-0.3194111221883556,-0.37797355396788584,-1.0758953959040407,-1.8330051932873117,1.965432092752502,-0.5382523955021647,-0.29844729541020143,-0.699352562942671,0.0021678611651652314,-0.08479952364443744,-0.8130640040106952,-0.7335992639901513,-1.0360220626880057,1.7045361170819386,-0.052055759412768896,-0.7606649536635687,-1.0424079888381297,1.0748426514809903,-0.5348728784443207,-0.4567004697770967,-0.4753636798052435,-0.2850237274659996,undefined,1497373388429
903d185fccf839df,-0.4699402476014039,-0.7007863270565929,-0.013165424381283108,0.01869746060003322,-0.9059242528574817,-1.8609118096136197,1.9462686986763267,-0.6551420765112324,-0.2981480420992239,-0.7614219226459439,-0.03308624994084558,-0.0517324334615489,-0.8870460115864528,-0.718785941424669,-1.0507589135480964,1.6883712401882107,-0.10974563387486007,-0.7790368248219492,-1.0533090199393105,1.1148940099715048,-0.5416668059241204,-0.4427498985491935,-0.42783570501131407,-0.263571939214927,undefined,1497373389979
903d185fccf839df,-0.5974536435643018,-0.4601099732308777,0.4825693573809659,0.4594029233857687,-1.0261743319269134,-1.8493517961505173,1.9590337772591253,-0.5563312168231797,-0.35013956351496117,-0.7126339056992801,-0.033210521215101485,0.011148787612058732,-0.8609347147950089,-0.7298959446807084,-1.022337838247595,1.6863506235103143,-0.15007352649917755,-0.7706203418331221,-1.0500205184969507,1.118820615916212,-0.5359368570519762,-0.4408701866065209,-0.4554884719793599,-0.27552279164241017,undefined,1497373391427
903d185fccf839df,-0.6321039415142858,-0.4518917632571783,0.6943889468080776,0.712908370737529,-1.096384500003524,-1.814620509851837,1.9860155943168296,-0.3466947112667751,-0.313528032493382,-0.658775892927653,-0.03456526089222211,-0.025651484621647437,-0.9044535427807487,-0.7104534130810904,-1.0254957248688685,0.34466708497863613,-0.5561405006991295,-0.7530464227740129,-1.0518256961313277,0.5009117976938172,-0.6860930266565245,-0.4279542584823798,-0.4367876546726531,-0.3473862213861096,undefined,1497373392928
903d185fccf839df,-0.6695263005661112,-0.5974715997032517,0.25926531920941065,0.3540807664770549,-1.1890792001457942,-1.7569066200596246,1.9411668851944623,-0.5924665177944886,-0.265240531724557,-0.6550643376108854,-0.02215467832734257,0.09950774721469613,-0.7347301136363636,-0.6900850694614267,-1.0454957483196445,-0.03924847273254981,-0.838397810386172,-0.7487210215502709,-1.0690798314228924,0.13860177486891517,-0.7660076627666582,-0.44385903851404396,-0.4578984912611132,-0.5170249780942303,undefined,1497373394425
903d185fccf839df,-0.7152648084180505,-0.6825888328868376,-0.03996213260238522,-0.011958052866415743,-1.3275761148238294,-1.729128112733381,1.9786258423938976,-0.3596708486902986,-0.18066901986447248,-0.7079364689533616,0.0062426477822026686,-0.0072285371533474425,-0.6433405748663101,-0.7623001035764573,-1.0581273426592586,-0.14027888265654612,-0.8808076187153522,-0.7835585439555441,-1.0692477550919126,0.09559391761248721,-0.7912286286176011,-0.4512678340444419,-0.47661912883633034,-0.5057612838313416,undefined,1497373395945
903d185fccf839df,-0.3715331999118563,-0.788251591004672,-0.18415283014453723,-0.22515455614501378,-1.1542312645570194,-1.8017537911348536,1.9550180699889423,-0.5840554331153128,-0.2738130735423593,-0.7166590956325852,0.008177920460327406,0.043086219619037865,-0.6433405748663101,-0.7734101327340458,-1.070758944361106,0.2840487259653522,-0.8762389715388816,-0.8008918106289293,-1.0702832832117681,0.38563903725034804,-0.7310302891286388,-0.45591273674463184,-0.5218183758432848,-0.5409309730397741,undefined,1497373397428
903d185fccf839df,-0.38677941520304904,-0.8082101593967839,-0.36598629263528326,-0.3687277579675545,-0.9475093268022232,-1.8798089257658164,1.9429104496047078,-0.7352250200797474,-0.25456243150312635,-0.7545280365696325,0.023679806892578623,-0.023965325112289847,-0.7390819964349377,-0.8122951506055709,-1.0739168420257303,0.17493599065337803,-0.8662364746620669,-0.8469893071029988,-1.0595011978832567,0.2430956279156214,-0.7722595039703739,-0.4605616654606333,-0.5868380281936006,-0.5558496261382024,undefined,1497373399793
903d185fccf839df,-0.2939164552117742,-0.8099712336191404,-0.26390405451699317,-0.3048702746002894,-0.9259402191342998,-1.8972805490080464,1.9552547533481925,-0.6599906150181247,-0.25352293433707274,-0.730972955799555,0.009201501856431383,-0.06768739047440407,-0.7782489416221035,-0.8039626416881541,-1.0676010319720144,0.12240009835167964,-0.8750306897689836,-0.8559060925814367,-1.0489220197153797,0.1711232953266829,-0.7890523847904874,-0.46002857266989894,-0.6211570889551473,-0.5377545126979019,undefined,1497373400431
903d185fccf839df,-0.17471913903817077,-0.7254409277496988,-0.12481744346706071,-0.1629786687931392,-0.712861717468912,-1.8233831066722566,1.9378059869402267,-0.5329184069566519,-0.18536616443256665,-0.8214502328513164,-0.1096203418580305,-0.12189972650188016,-0.9653799019607844,-0.720637578415535,-0.9770745966686561,0.13856497524540767,-0.857162461173708,-0.7359411417131305,-0.965631983100585,0.11707475255064417,-0.704702004029381,-0.35969514080705256,-0.6616864739898535,-0.5858121616995068,undefined,1497373401954
903d185fccf839df,-0.3784632318975253,-0.5158763980524095,-0.18415283014453723,-0.24284219281742617,-0.9408544805102539,-1.7630767740532418,1.9082574911296997,-0.6831711787074858,-0.22571703760259273,-0.6625190908498239,-0.10468276077182949,-0.08812673152500318,-0.42574643493761144,-0.6437933741186922,-0.9139166323328206,0.48408895740016994,-0.723752946357268,-0.6689829282397486,-0.8985745470773899,0.7412661395037569,-0.527000418244073,-0.3504814423924033,-0.6184136789272798,-0.3426758740155525,undefined,1497373403434
903d185fccf839df,-0.6431921169108313,-0.5199855614952439,-0.3927824925824865,-0.42627502062149697,-1.1079044837454053,-1.660792893329094,1.9337061196740761,-0.41485731497847395,-0.20242020245235837,-0.7193122781533502,-0.11248968684299826,-0.10423370788735388,-0.3996351381461676,-0.6687908943955554,-0.8465481365504471,0.8983134826325863,-0.6924045963249542,-0.6834853694492229,-0.8455107338963862,1.1310623873964307,-0.4252932120893815,-0.36795165540757235,-0.7239269484336137,-0.3811516894073736,undefined,1497373404943
903d185fccf839df,-0.8150578694058138,-0.6990252528342364,-0.5082628306743782,-0.5657496597238002,-1.3625989144401276,-1.6668582319352787,1.9269343605661222,-0.6282239767401928,-0.27757195953938935,-0.7193161037703554,0.03053169215879573,-0.07569774965447433,-0.9262129567736186,-0.6761975718667647,-0.8591797492956454,0.8275923228770358,-0.46827626532469574,-0.7248838222129674,-0.8695027982334688,0.8824082901682484,-0.5041763153505455,-0.3441954370234729,-0.6385987395827201,-0.24523321472062354,undefined,1497373406433
903d185fccf839df,-0.9162369609444978,-0.669674502928167,-0.5267650171401994,-0.5753677553144549,-1.5198775068710937,-1.6342255907259398,1.9153132438712048,-0.696311720936471,-0.3044187672484087,-0.7546136077706905,0.08547471297352405,0.07217899536269629,-0.9305648395721926,-0.6789750467792255,-0.863390262336599,0.783138897286923,-0.47252757343471413,-0.7223253130282044,-0.8705453221243004,0.7738646469653797,-0.5265788367922215,-0.34171176980021895,-0.6258447441484878,-0.2267310908504637,undefined,1497373407936
903d185fccf839df,-0.941185252070496,-0.7518566026651613,-0.6231042684754194,-0.6381342585512313,-1.5365609089198682,-1.6092724496209618,1.895195227471399,-0.7950191030664355,-0.31467481110953754,-0.7629396395679587,0.09144904705108364,0.029977400589692504,-0.8696384803921569,-0.8215534844938079,-0.960232481925855,0.5386453533208786,-0.6592303599221666,-0.834526074366678,-0.9688295252613834,0.8667634698506052,-0.5995997185406067,-0.40567967316228076,-0.475704494482615,-0.0846379837037356,undefined,1497373409443
903d185fccf839df,-0.9619754342910274,-0.8017530528734332,-0.6524530199426314,-0.7255966885880016,-1.549150599774349,-1.6143408724194004,1.9056487103809359,-0.7247053385087924,-0.3207920370306567,-0.7398789925637643,0.08527965053321337,0.05330341926631044,-0.865286597593583,-0.911359374365267,-1.0023377890290006,0.44367673690112835,-0.7354996585509843,-0.9448269542850806,-0.9779743578540673,0.8091270875085569,-0.6628046944398613,-0.4204521310586103,-0.5896025204781739,-0.23627644951745363,undefined,1497373410921
903d185fccf839df,-0.8483222403211065,-0.5510973563956775,-0.6224663847323667,-0.6634082129170028,-1.4651473122352217,-1.6756976906793937,1.9195235628828282,-0.6370969636949213,-0.3236483047446801,-0.7101609076335234,-0.003820449666020185,0.11281223473979093,-0.8565828319964349,-0.8826585153527992,-1.0212851860600969,0.33052271170391834,-0.8400966764500752,-0.8845689957151427,-1.0041914079337089,0.33916653061663077,-0.7487927580835297,-0.317145251425766,-0.4924346199594342,-0.3582042498764527,undefined,1497373412437
903d185fccf839df,-0.5766634440910655,-0.4401513756107735,-0.373004030356661,-0.4601921794335888,-1.2424208312009104,-1.7824513827550958,1.9100378623132184,-0.7822064668228667,-0.45486278850724504,-0.6569190247389114,-0.02370883513741052,-0.13797747030503377,-0.7477857620320856,-0.8817326774312043,-1.0833905460629538,-0.25747411294482736,-0.9591388877299177,-0.8686036448871475,-1.0463611869834524,-0.011456072841504279,-0.8307635907892595,-0.3013337553802805,-0.44211999136859176,-0.3705124057229149,undefined,1497373413923
903d185fccf839df,-0.515678651937114,-0.6749576379112595,0.4060080599976725,0.2942619084468556,-0.9593687373020501,-1.9164082600878982,1.9620001924235522,-0.5628372964214002,-0.35587722212507356,-0.5806094174260352,0.024959421148382555,-0.12159802703576891,0.08342385249554368,-0.7780392899650833,-1.032864146617797,-0.16654675814559144,-0.8543599217305087,-0.7692714230525679,-1.016757679656515,-0.015567456900612639,-0.7744654156430594,-0.30597765544956435,-0.45976352878097454,-0.38195878321406,undefined,1497373415487
903d185fccf839df,-0.6390340080053646,-0.7242669123674522,0.792004982177201,0.7778809068470164,-0.8327723776164394,-2.0089023510934685,1.9249935656099515,-0.929467923409513,-0.3117068395555701,-0.5314663465812729,0.07199349576006173,-0.24414650404821173,0.4359263591800357,-0.7113792380519106,-1.0391799493092793,-0.1382582801110105,-0.888800741195123,-0.7019142335793803,-1.0203050633826964,-0.01236457886116714,-0.7436871508665913,-0.3207616457563184,-0.47093106471613744,-0.38209442734511007,undefined,1497373416938
903d185fccf839df,-0.5239947662318183,-0.7031343870490785,1.1958662070794979,1.1683538355633007,-0.817179259665798,-2.0058836564473843,1.9156183073581183,-0.9773550245767069,-0.3058109370739985,-0.3355702949137866,0.15653466528199064,-0.3743966574228232,0.21833221925133692,-0.6271283886607949,-1.0233904536239242,-0.2433298527289957,-0.8307704206969646,-0.6037726062025803,-1.023558580489288,-0.1678426832458247,-0.7305474180860515,-0.3249957471968185,-0.4360186797750622,-0.37835565453866615,undefined,1497373418443
903d185fccf839df,-0.43251788854957857,-0.6661523690974502,1.6928770104648017,1.6144759631768615,-0.8271666711240557,-1.9951551813066837,1.9666286590898305,-0.6075322330810083,-0.3309360945313276,-0.5333456995651888,0.3074258597972682,-0.3432385424827804,0.8014845142602496,-0.6234250499251903,-1.0497062760850657,-0.3888136317136618,-0.8883584294308132,-0.5938172178392436,-1.0735298034952487,-0.379863877734156,-0.7839211442223454,-0.4662526338884384,-0.5462358893131607,-0.5103372707908131,undefined,1497373419942
903d185fccf839df,-0.3909374550976963,-0.6285834238316775,1.6947909158309094,1.627553817872056,-0.8832134334284473,-1.975810849948936,1.895268877681208,-1.070774417616279,-0.3539159963516196,-0.47724601371134984,0.349848284776526,-0.38378870475213545,0.24879539884135474,-0.4734399282640112,-1.0265483549696655,-0.283742030830955,-0.7880966961686152,-0.5335719249628772,-1.0579549028874913,-0.3398741154890292,-0.7423186331102223,-0.45561571306252446,-0.47990815808476495,-0.49559206452096827,undefined,1497373421434
903d185fccf839df,-0.6404200558089901,-0.6344535445848991,1.3706811694380177,1.331449941941227,-1.0381263130659213,-1.9648191705523694,1.886564218788844,-1.146871801281368,-0.4002818803355287,-0.6973262372495153,0.2387341880599768,-0.3250640647760729,0.13129456327985742,-0.44103578231903695,-1.0254957175066348,0.2416160725091042,-0.6974534156474486,-0.5119639220657757,-1.0571502701443893,0.18838495385665335,-0.6269512471986577,-0.4549923048072565,-0.4591069559591118,-0.4589156487413239,undefined,1497373422938
903d185fccf839df,-0.6584381941803852,-0.6097989146638009,0.9042946308690818,0.9336541290091531,-1.136344433508107,-1.9589098909080929,1.9017565981121747,-1.085246376899935,-0.37322153369021366,-0.4198635730072347,0.18267704736707047,-0.23852267853111356,0.4141669451871658,-0.5113991341154907,-1.036022047963538,0.5608719954541311,-0.6550324036828648,-0.572532195833749,-1.0644199570183979,0.5550065373947473,-0.5740946166892824,-0.45589352980593045,-0.5368129780719798,-0.4271952251540835,undefined,1497373425374
903d185fccf839df,-0.742985143393185,-0.5951235104827738,0.9259872525979643,0.991114971027034,-1.19526090424396,-1.9314435011812974,1.8975042043401766,-1.0845384278320416,-0.380461739382557,-0.5610615928217109,0.0920013664732668,-0.18043459532581962,0.2618510472370767,-0.38641151330501294,-1.0265483549696655,0.5689544339009951,-0.6438685906168675,-0.5503858915004661,-1.0541766258093035,0.6136900131924797,-0.5506923027263672,-0.4448112648222746,-0.545925891026916,-0.434889459112596,undefined,1497373425935
903d185fccf839df,-0.5822074627785188,-0.48946069390895475,0.9361954255824035,0.8922546085267828,-1.1201136023330784,-1.8901460894481952,1.949974089137799,-0.6446923313930882,-0.40582292319440844,-0.8379951875349686,-0.022053417737061515,-0.14376167579934576,-0.5214878565062389,-0.39659567863945755,-1.0423378432927866,0.5992636558047194,-0.6210609299801261,-0.527200984631094,-1.0517487321047754,0.7708619444895707,-0.514021845475851,-0.43739742539403315,-0.49822270365090476,-0.4135625519310917,undefined,1497373427428
903d185fccf839df,-0.554487162308794,-0.5088321888469606,0.8730322281727118,0.8759919184695272,-1.0720588246170533,-1.8649693424873113,1.9714911588852204,-0.45146890272257967,-0.35488352899868264,-0.7754038925228551,-0.03879437641014574,-0.12995211281372482,-0.4605614973262032,-0.3123448940022146,-0.9823377839838091,0.7568709935331561,-0.4830006308559322,-0.4898936144573978,-0.9846283254504498,0.7114547427789982,-0.481811569739237,-0.3966801432840584,-0.5185073318420685,-0.49751706977292665,undefined,1497373428930
903d185fccf839df,-0.07769807014142918,-0.5381829972090145,0.5731671467548125,0.5034866588095736,-0.788636445812857,-1.9142304224453055,1.975696226670091,-0.40277832818208925,-0.3698890564914047,-0.8597069509494278,0.0055092807225306534,-0.04962023215986251,-0.3604681929590018,-0.341971539133179,-0.9412850738514081,0.9973232758786862,-0.35701618851253963,-0.49128686121931425,-0.9069007523754253,1.1857114640657147,-0.3642454346088488,-0.40737460140931014,-0.5368393376522146,-0.3989700658432891,undefined,1497373430488
903d185fccf839df,-0.10126029621109697,-0.6679134579338029,-0.08717467851846673,-0.24362353285853516,-0.824636383158901,-1.887998529774432,1.9728270979972307,-0.39305194062276205,-0.26506594525176436,-0.8005941419214534,0.07356406752466203,-0.1010772569550068,-0.42574643493761144,-0.35771069314486875,-0.7918112314265706,1.148868933161763,-0.31238450800051476,-0.4989370573310937,-0.8294320629605617,1.320232282999831,-0.3102861655294438,-0.44761670391508185,-0.6250234648876101,-0.46374295533811377,undefined,1497373431943
903d185fccf839df,-0.20936947149356458,-0.42841113410433046,-0.2715601842553225,-0.3004565059228564,-0.903270539148548,-1.825567931140947,1.9330118368943683,-0.5896548306368342,-0.34166134056083164,-0.9081306668358499,0.030682206716687557,0.03363521799938887,-0.4213945521390374,-0.4206674127978241,-0.7002321623412987,0.9488287865211098,-0.3932709722771941,-0.48632183210834246,-0.7895922220795613,0.8665324900321926,-0.39797671076575425,-0.4241777674373253,-0.5061895191196761,-0.39106476034358817,undefined,1497373433430
903d185fccf839df,-0.371533234417266,-0.17951645339294645,0.15271738661585263,0.042546296346033644,-0.9707344254777212,-1.6609000351125511,1.8720976358908692,-0.7890013872526319,-0.14103241568750785,-0.6425133400253741,0.038475976904945156,-0.041005399012773815,-0.6302849264705882,-0.4530716234966711,-0.609705745443525,1.114518534431689,-0.3638830994065231,-0.5044783826667817,-0.6994383136216055,0.9122812718031298,-0.3645910773628846,-0.4211369935437913,-0.5545577637015044,-0.479232223222956,undefined,1497373434936
903d185fccf839df,-0.2675820300186262,-0.3250964067509892,0.7875387794280341,0.8394111320074152,-0.8264569530130951,-1.6293318563716481,1.8926311706656274,-0.5657732838676738,-0.17176304504029916,-0.8768196729112723,-0.05422393919515682,-0.06683587009093916,-0.9175091911764707,-0.39937327010888923,-0.7044427048311874,1.1488689614264844,-0.4033124127425682,-0.47277566507302776,-0.7761443510729887,1.0428446901229274,-0.34739427729074934,-0.4777291607549852,-0.4874537850672251,-0.44374765825061313,undefined,1497373436436
903d185fccf839df,-0.35628701912607325,-0.5117672930655598,1.0561414581495632,1.1325774934663986,-0.6701863604823127,-1.6354670737825452,1.9134224172758867,-0.3993554822993652,-0.16878797626224112,-0.9773656928755685,-0.13152237406279857,0.17248686317494105,-0.865286597593583,-0.3808565375785423,-0.7549690821896428,1.2519199032342125,-0.3947450837539213,-0.4239486702560322,-0.8106386293005963,0.8704436889963493,-0.37457965199609117,-0.444581701458418,-0.3645292113236715,-0.5024604067381215,undefined,1497373438026
903d185fccf839df,-0.17471907002735132,-0.44308647982937277,1.649492021143986,1.548639513589652,-0.618037874208681,-1.679564231725992,1.9055040685716311,-0.4704613239277375,-0.32303572887006027,-0.8866840111028962,-0.22783657889698855,0.012391518106741065,-0.45185773172905525,-0.299383201952211,-0.8760218603573298,0.42953244842057514,-0.44889813711492965,-0.3124761943731457,-0.8519408032510962,0.5072251613230054,-0.41844073033418067,-0.40594436755758495,-0.21922026858844665,-0.5290048720195256,undefined,1497373439440
903d185fccf839df,-0.10403246082916741,-0.4648060932158488,1.5499623345457045,1.5809939847142436,-0.46532612822000197,-1.7128187793901677,1.8909217910816045,-0.5778208316296648,-0.3728251181158677,-0.7580894644364604,-0.19672887927574914,0.021851608008419846,-0.45185773172905525,-0.14291726664296656,-0.8781271058344557,0.42347068318105063,-0.4028283150296367,-0.25532137772344005,-0.8420962899377682,0.5245022155251864,-0.38385799194405595,-0.4209692835675859,-0.24224457115839848,-0.5061546811736537,undefined,1497373440935
903d185fccf839df,-0.09017218982537095,-0.502374994639633,1.56974079677153,1.5207174400531838,-0.2872190026310081,-1.7952272635105513,1.8998710306000233,-0.5927134421014789,-0.4471444246126051,-0.6534262385070138,-0.18750983535651491,-0.030184055068292803,-0.5780623328877006,-0.07533138328358631,-0.8907587259418879,0.34062571029923566,-0.4022412118257981,-0.2177986880460623,-0.8743585848044879,0.5661858050193046,-0.36845425699634493,-0.43310695065340826,-0.30753669705320874,-0.45342094090328494,undefined,1497373442440
903d185fccf839df,-0.08185604102525697,-0.47008914051496425,1.1556716530217435,1.1605516677474768,-0.13799410810241283,-1.8061979776761252,1.9257220311208385,-0.3981587282042886,-0.4270951765638673,-0.6518681111599091,-0.12690125921776296,-0.14056482582137614,-0.7434338792335116,-0.06977638165556661,-0.9139166396950544,0.5467277917677426,-0.22432035769253972,-0.15928228682810755,-0.8946003588848122,0.7010761864018099,-0.33013999711232705,-0.3556648017936697,-0.14745912606555847,-0.314749428306488,undefined,1497373443984
903d185fccf839df,-0.23431771086144812,-0.5135283672879163,0.5578548872781538,0.4958827530201511,-0.3775994224960283,-1.8043881581863745,1.9318705226178212,-0.473263408911086,-0.40785029971289766,-0.9174413941631857,-0.058051644158885383,-0.0006964112102743454,-0.7956564728163993,-0.1568047448114667,-0.7876007110233834,2.10663699877642,0.07953724455053493,-0.21315030603591015,-0.7461560185972986,1.7474005423070518,-0.09393529493698367,-0.42068107482887224,-0.5729133045271129,0.3480974368446912,undefined,1497373445431
903d185fccf839df,-0.30223243148483947,-0.5006140373292458,0.47044702489346973,0.4403453135195716,-0.46304270738047876,-1.8065520215117292,1.923628701802406,-0.5867650233503193,-0.34938351596672984,-0.6002343611019795,-0.010778256613539417,-0.06270830860429094,-0.8826941287878788,-0.14847224236943715,-0.7149690279258569,1.4095272692273708,0.12929863537528719,-0.22643048909903787,-0.7927337893006837,1.5334237482491369,-0.14990513167835812,-0.4320583555130545,-0.6139541829984051,0.43641253103127015,undefined,1497373446926
903d185fccf839df,-0.00839740523064156,-0.5053101280862246,0.5808230223561924,0.47256504861331833,-0.4485090190015229,-1.842687841186643,1.9191212118568257,-0.6199465651193629,-0.46449998148274285,-0.8535249231081802,-0.027669116053050665,-0.06761510370582201,-0.8217677696078431,-0.27623735751853745,-0.7770743584797787,1.5105577922102533,0.103722044183195,-0.32298888017999644,-0.8373944331999189,1.646956486255361,-0.1840726005514939,-0.41303076996203303,-0.4800383770288276,0.444366929648088,undefined,1497373448435
903d185fccf839df,0.08723765036788429,-0.4336942398594306,0.9432136715776801,0.8032343542627796,-0.4260450573416826,-1.8494682562766531,1.9101746120933276,-0.6540050943555815,-0.39380176280381285,-0.9514724833872438,-0.07723198251537437,-0.043954286126652656,-0.6172292780748664,-0.1855056167747091,-0.7854954287350884,1.5024753537633893,0.1333213198488861,-0.3172005682857671,-0.8340079758731015,1.6109857167235495,-0.18465853301880114,-0.4109782953189545,-0.44476145400365713,0.39945925609021754,undefined,1497373449940
903d185fccf839df,0.020708874031889236,-0.48476457392398364,0.903018609246027,0.7892286946222701,-0.5352277292064537,-1.8569567604368171,1.8925628052032686,-0.7960981190324785,-0.42936967195887843,-1.1014891368549307,-0.08139363837867311,-0.11522368363276769,-0.6868594028520499,-0.2660531533317692,-0.8581270823836797,0.9953026874655113,-0.11359539004587908,-0.33714934173327166,-0.9184244991307972,1.4037996365554926,-0.2501328857183539,-0.4733253566551777,-0.5609106409407629,0.23518030192696002,undefined,1497373451437
903d185fccf839df,-0.30361851379387467,-0.49591788811628235,0.9738384446679469,0.8886714176013697,-0.6866126106686675,-1.886864190310218,1.9488643204563147,-0.5198979302020842,-0.4276932802123543,-1.4272432599208487,-0.060433329900809664,-0.01958086534891675,-0.7042669340463459,-0.05774051457638333,-1.0465483710582077,0.4153882729989081,-0.4862699247246359,-0.27663173157562077,-1.0320597051661493,0.5134153362981764,-0.44258556888020695,-0.4105729018476659,-0.39096143339388545,-0.5943836260854344,undefined,1497373452938
903d185fccf839df,-0.6293319149178543,-0.5381829679810223,0.8755845255557709,0.7793806542090921,-0.8083849786392875,-1.8619646232570541,1.8954266637939834,-0.878862836607311,-0.4969405254796309,-1.311123011278856,-0.08525573893399858,0.1314448892737615,-0.6172292780748664,-0.26883062824423,-1.0286536078090252,0.43559429845426434,-0.6236809405761126,-0.3505941816365281,-1.0230268216637162,0.5817536363272083,-0.46230641449994875,-0.406747678998173,-0.5111101215206251,-0.6026805624583557,undefined,1497373454435
903d185fccf839df,-0.5378548992139758,-0.46421899053375043,1.0408291986729046,0.9403015576817887,-0.9826658306214536,-1.833687659019971,1.9291828493364307,-0.6624223461331674,-0.4210394135829673,-1.264501322117759,-0.12463143655555568,0.14003565840919732,-0.29518995098039214,-0.32252904638588464,-0.9939167592659769,0.4073058062873226,-0.6251801321523287,-0.3864006480564952,-0.9985799645401281,0.6028649072284237,-0.4719259198309739,-0.3921781531442363,-0.526228365943132,-0.5807556325984935,undefined,1497373455975
903d185fccf839df,-0.5697332740837575,-0.5739909705504039,0.5769949574870278,0.4999874019040753,-0.9278224995577836,-1.8211889623314703,1.924798957011076,-0.6980921501061587,-0.30401209979988525,-1.0140348658642362,-0.12055769278280758,0.0641778363620451,-0.5824142156862745,-0.41511242412057897,-0.9581272069997938,0.36083182054875645,-0.6792585312814873,-0.4332011018767152,-0.961692778106002,0.7539236588873686,-0.45925444436057605,-0.43433199807881895,-0.5517045608963651,-0.5657944646445725,undefined,1497373457454
903d185fccf839df,-0.4630101466049154,-0.7113525970227779,-0.036134321870169975,-0.05817777953246569,-0.893787128233537,-1.8753437743378518,1.9889872669931408,-0.3587628739377483,-0.24531402133475985,-0.8343605933777831,-0.08930612526783269,-0.045596219935397045,-0.8043602384135473,-0.5789850628025818,-0.9781272672617388,0.2921311926769377,-0.7586629594703919,-0.5386446153953345,-0.9755954417522709,0.8268968951421238,-0.4976572429243855,-0.4116685701112418,-0.5789405527837294,-0.5230114194826456,undefined,1497373458941
903d185fccf839df,-0.6445781302090471,-0.7219188962169552,-0.26135201127088337,-0.3126026098101661,-0.8962556951366689,-1.8807988526884598,1.9695240711320225,-0.5305426187303757,-0.21334029458685666,-0.7628693254686256,-0.03748617909596009,-0.09401165594142961,-0.4126907865418895,-0.5919466900987126,-0.9876009234444425,0.33860517841550386,-0.7311919034877894,-0.6090352835611929,-0.9865104663773318,0.8175654375516944,-0.5351107081170563,-0.41780504896170495,-0.5387272715868153,-0.5153455384390409,undefined,1497373460428
903d185fccf839df,-0.5752773617820303,-0.5921884354921669,-0.22562340582534646,-0.28532105846155414,-1.1335981538532147,-1.8670423662129951,1.9604512408022694,-0.6205818158716595,-0.25544077560514833,-0.723309254094115,-0.05029636743491231,0.06094720711685653,-0.5563029188948306,-0.6595325475565438,-1.0044430860417632,0.22747168510202564,-0.810195227168688,-0.7085638266719183,-1.0007209904606902,0.7474255158513974,-0.5967253316054837,-0.41796306083726315,-0.5095300372748561,-0.5073668810396033,undefined,1497373461929
903d185fccf839df,-0.7568452418699327,-0.6585212179638607,-0.02209782987961676,-0.1441838269028709,-1.2479545349132692,-1.693625847604403,1.8881473520937841,-0.8328068233432103,-0.2682642490415348,-0.7553319327566053,-0.13640348162651053,-0.041568485599766974,-0.5693585672905526,-0.7317476010977362,-1.0318115275603508,0.1749358775944919,-0.7723665737883313,-0.7316854019175333,-1.0324515277680701,0.5697120569558045,-0.6458083150835973,-0.4479294011278424,-0.5408182959793445,-0.48648440750962085,undefined,1497373463442
903d185fccf839df,-0.7208088961163233,-0.4154967164616829,0.2694734921938498,0.21652646188898672,-1.2104323136533361,-1.6318637396646687,1.9015935576300809,-0.620575204363682,-0.2847960294181996,-0.8643783753085371,-0.15716667058667144,0.0665662666075252,-0.8739903631907309,-0.6947142331678515,-1.0581273463403753,-0.1301758840612288,-0.7439408539847099,-0.7181455693207959,-1.0689538898853637,0.2032444528507321,-0.7212445217741366,-0.42390603563464796,-0.6273667249468203,-0.5173385849437415,undefined,1497373464965
903d185fccf839df,-0.6071556331355829,-0.41373572992330343,0.455134765416811,0.41897559987375443,-1.0481754407489416,-1.585584085602005,1.8794926662761209,-0.6600740105286844,-0.3881140423692937,-0.8160988955845054,-0.13553224344272075,-0.05966734966201127,-0.9523242535650625,-0.6641617436399051,-1.0907589678118823,0.00924615794863425,-0.7496995179256786,-0.704574070488625,-1.0864809007460652,0.3455414887680315,-0.6825369545364331,-0.42720598632246454,-0.607706756226432,-0.5230052378226702,undefined,1497373466426
903d185fccf839df,-0.5932955001534254,-0.4319331948650664,0.13612885137918962,0.0772208287073265,-1.1811900733320218,-1.6900271721271451,1.9194210115467247,-0.6067392917179352,-0.2801688539666207,-0.7962322358160002,-0.06468122401776127,0.0771948004389862,-0.9044535427807487,-0.6252766998668308,-1.0149693870497314,1.0720857537841941,-0.46838237339482663,-0.6980068085540327,-0.9893581698905854,1.0863606955002036,-0.4747155602656492,-0.48470223161704845,-0.8423015894277557,0.10288814646895993,undefined,1497373467986
903d185fccf839df,-0.572505300680189,-0.4812425131632477,-0.060378478571263466,-0.12977271260702172,-1.2106174517728754,-1.7287531040400783,1.9442858279122592,-0.5261941842927794,-0.2495325520353433,-0.6745841076307053,-0.07980446278936679,0.07307275189599023,-0.45185773172905525,-0.6104633708259614,-0.9602325113747902,0.25373970191467865,-0.555534675024271,-0.6814144956929424,-0.9498331853399918,0.8347500994118713,-0.5085290246327926,-0.4871737700237821,-0.8326145537074008,0.0660864311976679,undefined,1497373469448
903d185fccf839df,-0.6265598538160131,-0.45423976479367917,-0.12545532721011346,-0.23445204912183468,-1.1595489704600468,-1.6645522833726958,1.8729049996957527,-0.8785571119315874,-0.1666197657636547,-0.6461835870918456,-0.08103356965611687,0.08309607828174277,-0.2342635918003565,-0.6197216982388111,-0.9918114806587988,0.24363661852519675,-0.509424700897968,-0.6865188478373772,-0.9652261688466044,0.8161487780801089,-0.521741139957055,-0.4854700649127975,-0.8343673653799328,0.11301435823364037,undefined,1497373470941
903d185fccf839df,-0.6210158006231501,-0.4741982747298063,0.07424192972950217,-0.14424114169267588,-1.0445343056437528,-1.5354076137393837,1.8488659374277163,-0.8007949429741347,-0.17998586742635012,-0.6118319399930606,-0.06896710681842713,-0.007178303231342072,-0.8783422459893049,-0.6252766869160563,-1.0044430786795295,0.5729956389920664,-0.47856321784223,-0.7124395853400259,-0.9487276883283859,0.9332231585524414,-0.5076881779858882,-0.46187613186213566,-0.7520768830070089,0.2163898935537178,undefined,1497373472418
903d185fccf839df,-0.6251738405177973,-0.6643913679450746,-0.2249850138083949,-0.35539284191319176,-1.02834462171804,-1.4197119715139808,1.819256952471199,-0.7957976973505276,-0.20818606676730114,-0.7302893198549733,0.0022552882029260313,-0.08975869279342848,-0.49102467691622104,-0.6900850500352649,-0.8918113339559833,0.7043351294961793,-0.5540458142238142,-0.7252004661911075,-0.8720216507791299,0.8666864715922591,-0.5095540213968294,-0.46992349299558955,-0.7774811580936151,0.1441239247372325,undefined,1497373473967
903d185fccf839df,-0.7762494970557727,-0.6045157212247236,-0.36534790061833167,-0.5133997304531279,-1.2837384743699607,-1.4752503533146193,1.8499152410562112,-0.7673273327209807,-0.15186681650234962,-0.7193227250192151,0.027543352812886678,-0.07603465406017534,-0.6041736296791445,-0.6974917339818614,-0.8254954829988743,1.2559611648547269,-0.37706186695414373,-0.7437939886064636,-0.8489811513021173,0.9626803816083184,-0.4942712942432416,-0.46211908755366804,-0.7935028547504807,-0.0657294284930214,undefined,1497373475420
903d185fccf839df,-0.7942676699325776,-0.6309313961401861,-0.5969459522712689,-0.6192503470324155,-1.312126998012086,-1.4892257875562507,1.8589828201592116,-0.7480401136172259,-0.15067742015483,-0.7582004112117872,0.015184953941479555,-0.044424748560310846,-0.8348234180035651,-0.7548934390560225,-0.8370744435565745,1.290311422261193,-0.5697386102266557,-0.7819816394019238,-0.8534241259213053,1.3174759606456792,-0.4423771595553773,-0.4417807592533605,-0.7968888743483513,-0.13559600677064484,undefined,1497373476941
