UUID,iqrAccX,iqrAccY,iqrAccZ,iqrAccXYZ,meanAccX,meanAccY,meanAccZ,meanAccXYZ, covarianceAccXY, covarianceAccXZ, covarianceAccYZ,pressureDerivative, pressureIQR, iqrGyroX, iqrGyroY, iqrGyroZ, iqrGyroMagnitude, meanGyroX, meanGyroY, meanGyroZ, meanGyroMagnitude, covarianceGyroXY, covarianceGyroXZ, covarianceGyroYZ, class, timestamp 
903d185fccf839df,-0.4158856254547604,-0.27872213421542263,0.7575526524916683,0.35097401637338665,-0.8029135271057084,-1.6488914539191624,1.9894628382488226,0.15179544233512982,-0.6833098470189685,-0.7576345368024981,-0.3328559193731137,-0.26354294883020063,2.0635305258467023,-0.5391741228294273,-0.7876006815744483,1.4034654474584032,-0.7368285902137905,-0.49250007059401674,-0.7425046814676464,0.7939398281700252,-0.3855274611968127,-0.2963795209270141,-0.9488240274564373,-0.9060865028394993,undefined,1498668372019
903d185fccf839df,0.22029499600741598,-0.5939495097145234,0.749896522753339,0.36202875021568104,-0.4128169951774331,-1.6115829341606767,2.012510751458612,0.42584800630545294,-0.543435606681956,-0.47510533117927184,-0.40935480397877,-0.005695297507458937,1.0103748885918005,-0.45862659922314175,-0.8002322722329452,1.441857136073713,-0.4797885442350384,-0.5583472641466299,-0.7438302158377814,1.6744434432603368,-0.23165008267971868,-0.4190067733983982,-1.0251888742642834,-0.45070640523552247,undefined,1498668373430
903d185fccf839df,0.12466007843052906,-0.3955381772975634,1.0258361352047216,0.8312677597420045,-0.4270450884018956,-1.6304898257495297,1.9466443403126423,-0.07746878680259137,-0.4266295480216386,0.004517436723707659,-0.11704218999454698,0.04569119105914296,-0.4823209113190731,-0.4873274582356096,-0.9707588197449921,1.0720857820489156,-0.3678893460333656,-0.5936328508380662,-0.8583406188108701,0.8702845152282687,-0.44656335511769296,-0.44007727432252514,-0.8499400871968406,-0.27681153758014787,undefined,1498668374973
903d185fccf839df,0.17178453056986465,-0.3427067982386462,1.2756176855889032,1.3022534896449491,-0.38199141510344686,-1.6351200163820772,1.979617267300713,0.16430635589853332,-0.49412135349408387,-0.1019332354005855,-0.12095545529822699,-0.13577844272243447,0.08777573529411767,-0.4539974484674914,-0.9107587641171315,0.5386453674532393,-0.5303433062645848,-0.5504150938205197,-0.8685625049215889,0.4248323658999569,-0.5170910931571304,-0.4514728554774087,-0.7967340354812341,-0.3356589370894525,undefined,1498668376456
903d185fccf839df,0.14960828329300288,-0.38438498001723403,1.5614465291531985,1.7452157517599938,-0.5308254501017878,-1.6614031520914958,1.9196971414341681,-0.26309893834190307,-0.3744014820758959,-0.662642455370078,-0.004896993566647928,0.024130828668915808,-0.3909313725490196,-0.455849124310681,-0.9139166765062233,0.16685358047123555,-0.6100946913854629,-0.5078047956234093,-0.872156173349507,0.30244922298677446,-0.5237137917768339,-0.4544712546152814,-0.8175458009703143,-0.36655119283106213,undefined,1498668377939
903d185fccf839df,0.27712167925590075,-0.3755796965894286,1.8089949781627968,1.9074954881513964,-0.4997009297590945,-1.678311100023784,1.882338113100025,-0.48497718739153,-0.1739031047548435,-0.8249239302866888,0.01898758643074892,0.0926171680381573,-0.4126907865418895,-0.4234448877102849,-0.8939166088820446,-0.18473222345249432,-0.6776016658033531,-0.4796722413245942,-0.8825308607403672,0.09848883160290058,-0.5560907555402228,-0.4709922593698852,-0.7941356426228805,-0.34322576332106125,undefined,1498668379477
903d185fccf839df,0.37137072155621087,-0.4695022132008199,2.473803006185243,2.461544055228656,-0.234905940175451,-1.7065694307222299,1.9586866421544025,0.07162729706654666,-0.009223353143245263,-0.2808325812798661,0.11906426342679192,-0.1019699676374591,-0.6215811608734403,-0.4123349233065691,-0.8307586629517936,-0.5302561914748958,-0.7504639278545713,-0.4254495788543441,-0.8633036235826356,-0.3572589633057456,-0.6108342446821214,-0.43402687744959517,-0.6231203622352336,-0.5198341955169492,undefined,1498668380944
903d185fccf839df,0.4198811179829427,-0.4929827546696907,2.386395652074458,2.3666489076666495,-0.13587525012134455,-1.7313967908898518,1.8518192114312384,-0.6974767144312392,-0.04533850012454796,0.6867497828404618,0.09490585404766637,-0.028391742106453805,-0.5301916221033868,-0.36511739651762715,-0.784442783909824,-0.514091300448807,-0.7408394890684479,-0.3761602766075693,-0.8342108836576758,-0.4112613116474201,-0.5888349391908526,-0.42506511315553736,-0.6134368681236039,-0.5169982499087591,undefined,1498668382461
903d185fccf839df,0.3353342377809624,-0.549923355627427,2.521653944118276,2.470320952628653,-0.052036529693780066,-1.7822883375872833,1.9391208876245274,-0.21733105925107013,-0.092377779571463,1.0610640565391032,0.09640606687552683,-0.08217789365158422,-0.4605614973262032,-0.3299356850047703,-0.7739164681773882,-0.5019676569108718,-0.726584037729247,-0.2768977188531974,-0.8036418170659314,-0.4389323194202411,-0.5267956496034549,-0.4000384492696015,-0.6326380876511064,-0.5175395421848844,undefined,1498668383929
903d185fccf839df,0.2937538388344898,-0.41784477645416845,2.630753919957944,2.3803451933514936,-0.15059408166515395,-1.7538273638393271,1.9319599265078893,-0.2687993050637433,-0.2164117670814008,1.1674080694669982,-0.08973388526561633,-0.16034520540142316,-0.8261196524064172,-0.3845599022156961,-0.7876006962989158,-0.4635761378838912,-0.7369336084021464,-0.29023489800524493,-0.8095121413180589,-0.4300936127302835,-0.5400210139007341,-0.3941049067220397,-0.6297207128865677,-0.5262586341792009,undefined,1498668385435
903d185fccf839df,0.22999722711656517,-0.3826238181109005,2.4961335116571783,2.236347237496306,-0.11449129063158031,-1.7047665993873031,1.865460016662475,-0.5555036897346716,-0.11322119335829904,1.5815341576806654,-0.07346533042351854,-0.06594396632767122,-0.6955631684491979,-0.31789983087636153,-0.7854954287350884,-0.4959058492742649,-0.7433260357758703,-0.26501711795947985,-0.8171526588810293,-0.49258050400129416,-0.5399952814416183,-0.36273797902815613,-0.6210168787016885,-0.5371115955377926,undefined,1498668386927
903d185fccf839df,0.6541175034030438,-0.5235075930279876,2.5318623712396646,2.417287526226484,-0.08724448544430959,-1.6720361311102574,1.8298577022796567,-0.6773199435726044,-0.05075433550535873,1.2745371929444718,-0.05961086109642082,-0.09609883504873058,-0.499728442513369,-0.39104068996221236,-0.8844429379748732,-0.4474112892548847,-0.8229847769547117,-0.3309367281603962,-0.8701954823022797,-0.48100087128904867,-0.5918019387215516,-0.38496332734266236,-0.6743574233964245,-0.520404898747852,undefined,1498668388427
903d185fccf839df,0.7261904019427213,-0.5235075930279876,2.4795449764205153,2.6880041305828977,-0.03170172042831684,-1.6989667948556233,1.9178510057849054,-0.172519507918152,-0.03177680274761845,1.956165810782887,0.01999557603280226,-0.07096438447796924,-0.6389886920677362,-0.38548574013729087,-0.7949691143667273,-0.39487542521790786,-0.749008169058314,-0.2934140361520824,-0.796784943520093,-0.4594584450865584,-0.5388971465075749,-0.35928824201928156,-0.6861570722293171,-0.5256559726855459,undefined,1498668389947
903d185fccf839df,0.7525245855980012,-0.5440531764182208,2.830451431034509,2.783423504063276,0.14942941000656992,-1.702577111994629,1.93508938215441,-0.003938772412995275,0.11674734463092153,1.7917789170294895,0.04251931497326881,-0.020391739631463172,-0.6825075200534759,-0.3438231890748195,-0.8023375692457078,-0.38477245488731204,-0.7325963687669708,-0.3585293615924201,-0.8088474453552603,-0.42990882676735587,-0.5732738201407408,-0.34300442489878924,-0.6631825847593344,-0.5407125918960933,undefined,1498668391473
903d185fccf839df,0.4115650381936482,-0.49474385812003957,2.87256014459532,2.9790828632785136,-0.0005360476209488855,-1.7149919578113615,1.8578572425406936,-0.5872667019049309,0.13554122870042296,2.0692150384518375,0.018358854604953286,0.02429527209730492,-0.8261196524064172,-0.348452365732019,-0.7897059785872108,-0.37466941389491243,-0.7367101576557816,-0.3803400202153179,-0.8333992550701931,-0.3880250544668787,-0.5810575335363886,-0.33275809957744384,-0.7036159812421934,-0.5694722013196153,undefined,1498668392947
903d185fccf839df,0.5640265700082004,-0.45834886978052886,2.7985506363211874,3.0325998231991114,-0.0019040509905404646,-1.691424715704975,1.8969072413108528,-0.22130340591781214,0.3834866044937265,1.5818240039436398,-0.06327564054760425,-0.036246443908503095,-0.865286597593583,-0.3503040545259831,-0.7844428133587592,-0.33223659085033524,-0.6911194128589031,-0.3815622785554478,-0.8293411047005497,-0.3340996976120085,-0.566716274936449,-0.38185843618694026,-0.6727050304699781,-0.562861762561651,undefined,1498668394428
903d185fccf839df,0.4004770698295611,-0.4653930497579855,2.983574279938045,3.108935926663634,-0.20197114618433892,-1.6432327591551448,1.9338796827744704,0.0834221952855014,0.3460147744708295,1.143108220505959,-0.1010819912975534,-0.08535519216877117,-0.4779690285204991,-0.3095673025327829,-0.7728638528010591,-0.21706197723995038,-0.7065273204907153,-0.32443912769270544,-0.8275639147011713,-0.30856907662369343,-0.5325361016636719,-0.37235207196050146,-0.636762070048789,-0.5858441197403594,undefined,1498668395957
903d185fccf839df,-0.07076796914494068,-0.5810351797558528,2.372359414220854,2.4479637227241517,-0.46012157429282236,-1.6577625524511312,1.8074780512347894,-0.9161550526224361,0.21306869168046036,0.7735656821035234,0.09445194950158264,-0.03550772163930804,-0.6868594028520499,-0.23550067027920998,-0.7802322487821691,-0.21100015547098275,-0.6499788892130999,-0.2557456905363212,-0.8472249533135706,-0.23493370943602876,-0.49571586190554323,-0.31874696318993373,-0.629936963423437,-0.5256939567478163,undefined,1498668397420
903d185fccf839df,-0.04443368197343165,-0.3532731558888082,3.0939500232638184,3.080020776579255,-0.34858347009423335,-1.6976181642145582,1.9067137849738,-0.29584505781592024,0.20712006804825306,0.9299883689823458,0.024806528920214704,0.023231612850701296,-0.6302849264705882,-0.20217064756031727,-0.8928639566945463,-0.291824469277819,-0.6804808166284106,-0.2186726386585818,-0.9229794246631206,-0.2591862632082866,-0.5021073273350912,-0.3502139440725538,-0.669683389575137,-0.518185934853765,undefined,1498668398926
903d185fccf839df,-0.009783453034267047,-0.47595937818015516,3.181357631511553,3.087833436354481,-0.5604996841952847,-1.7580293127936313,1.8889021109254596,-0.6067542348329857,0.11493038059154419,1.0281036623532447,-0.06086828500971975,0.08586160084417414,-0.6563962232620321,-0.21976146446442205,-0.8897060811166235,-0.29182444101309746,-0.6474125371695394,-0.18122594189134672,-0.9148211426854329,-0.27901946040461106,-0.4878613384416157,-0.381297700533932,-0.5873342614913136,-0.482630639837493,undefined,1498668400436
903d185fccf839df,-0.009783349518037844,-0.524094608026109,3.4244401319089337,3.5487255948551124,-0.4874506690254346,-1.7831245360942183,1.8406399221448888,-0.9522864503109535,0.05355146600117352,1.1620291156620886,-0.06374528313507664,0.056682779612925414,-0.7695451760249554,-0.2234648032000267,-0.891811348680451,-0.3261747973460891,-0.6824652200527597,-0.2162724511113106,-0.9138205989380481,-0.29181556966092237,-0.5096717839881497,-0.3813551922629412,-0.6169412023480364,-0.47407878627807093,undefined,1498668401910
903d185fccf839df,-0.15808697945958175,-0.5957104962529028,3.197308028868214,3.0955701111681466,-0.4820198209091024,-1.7827798078718096,2.0061599176552067,0.12043675077572215,0.11528249101184573,0.9173823970602959,-0.12169650559866677,0.011966928471006943,-0.8609347147950089,-0.1743956135186697,-0.8823376409621106,-0.3989166868384222,-0.6111038998533879,-0.2509263182994294,-0.9201037352398796,-0.32010251258605743,-0.5328770883389964,-0.3615611711544057,-0.6576563522987368,-0.46986824073420064,undefined,1498668403429
903d185fccf839df,0.2798935678306933,-0.5998196596957373,2.506341430504668,2.63834412405739,-0.35319146729675116,-1.7347625402975255,1.960590638717474,-0.1206962360032167,-0.0361597763792861,1.049787809457673,-0.09728496663776154,-0.04350360893542367,-0.9436204879679144,-0.3206773187395968,-0.9223376952258965,-0.3968960701605258,-0.6838131788385374,-0.3590929940613979,-0.9701309324820543,-0.3818964743908646,-0.6141312856970762,-0.4119994250799865,-0.6645361579908061,-0.5110445269362602,undefined,1498668404925
903d185fccf839df,0.08723758135706482,-0.6385627080277335,2.4399883061058136,2.5306866006046063,-0.4114085126225061,-1.767008528087996,1.9737528118619134,-0.137109666191936,-0.07718855779068338,0.9877884876939882,-0.10120682478081314,0.0919894186212093,-0.8913978943850268,-0.39752155541337597,-0.8876007988283285,-0.3019275526673009,-0.7064083396775995,-0.3928602498655217,-0.9572078221627742,-0.30288705049633524,-0.6197429208023749,-0.41661158294948647,-0.6612413280277807,-0.5030232585321311,undefined,1498668406457
903d185fccf839df,0.008234754347947466,-0.6638042944909684,2.3238705925447682,2.5191487727017656,-0.3851182669511279,-1.7548615450436196,1.885038924399755,-0.6974364349430396,-0.06211732797431094,0.9530604888742248,0.03715718765649652,0.15949598140363333,0.1487020944741533,-0.4391840935250728,-0.8770744830958928,-0.2736389898385554,-0.7386685064647135,-0.38611566479926934,-0.9400516417891717,-0.29449489918203847,-0.603322284120188,-0.4144687549046811,-0.7106007894570543,-0.508228961101747,undefined,1498668407941
903d185fccf839df,0.23415505997875402,-0.6567601145135118,2.797275122972031,2.934773608708291,-0.10513130761290909,-1.760400476290571,1.8992766939697172,-0.4795007164376025,0.019148694940738186,1.961620807359326,0.02818304227215675,0.10160364446734232,0.12694268048128343,-0.48732741938328594,-0.8939166236065121,-0.28374205909567657,-0.6819451081933371,-0.36232279559709096,-0.9600905081583263,-0.2225533624339326,-0.5858890552635628,-0.39092460202308077,-0.7025168617533889,-0.5375955781090553,undefined,1498668409443
903d185fccf839df,0.5390783306403168,-0.5346609364482786,2.660740301031259,2.8239036672387243,-0.11983984641184411,-1.7161728805993752,1.9312551417984367,-0.22188535239023893,0.08428896084508722,2.286152614658983,0.09894324254951276,0.11794101153655087,-0.9088054255793226,-0.5336191471029568,-0.9549693387841047,-0.3059687436260114,-0.7155701704269483,-0.4242843162266407,-0.9856008809388956,-0.2828382757368779,-0.6348225063785248,-0.4276290047547631,-0.6773859226647074,-0.5335821650700743,undefined,1498668410933
903d185fccf839df,0.9160744998415573,-0.49122176813131124,2.2147703625681507,2.2703877782576947,-0.023452582039025827,-1.7205262296964758,1.9066533099693537,-0.3440754062835265,0.07739367679734944,2.1302816372806177,0.006197300961786376,-0.0679965613425302,-0.8174158868092692,-0.4660333025959001,-0.9939167592659769,-0.15442314287237774,-0.6320775348081838,-0.38638798182033046,-1.006080546393281,-0.1244036711189152,-0.5904511790428656,-0.4024330939885746,-0.7159442498225093,-0.526510050845249,undefined,1498668412419
903d185fccf839df,0.4378994633867962,-0.4865257066023248,2.056543427172395,2.2578669843357946,-0.376056563437085,-1.689295792265809,1.8882893750986045,-0.5073662267591,0.0460909144550674,0.549048219616749,-0.004810492592719252,-0.1575296134955785,-0.5824142156862745,-0.4715883042239198,-1.0097062291835135,-0.17867042994824825,-0.676449695885636,-0.40080176223910785,-1.0208997923561505,-0.09936579922712262,-0.5984603023602796,-0.4176431364555983,-0.6486914216286735,-0.5336793955283344,undefined,1498668413930
903d185fccf839df,0.16069642418413863,-0.37675372658567136,1.7490222160161664,1.8310168458210587,-0.4504118700788906,-1.6504510700728618,1.8452762567473615,-0.7338773800919758,-0.013828809534347083,-0.022912528322750935,0.004471034231010885,-0.05693919913636391,-0.3343568961675579,-0.5400999866525712,-1.0265483549696655,0.0011636629723271671,-0.7020143986097902,-0.49302842228640015,-1.0538337813422989,0.016584495185349536,-0.6412865425286588,-0.4507627173065204,-0.5554896946236295,-0.5493044971957881,undefined,1498668415428
903d185fccf839df,-0.08047013124327042,-0.45365274979555775,1.3343146802494281,1.4799806178656592,-0.7165131346982088,-1.65309941428572,1.7586662204362935,-1.4379862636036647,0.037076262039537886,0.08775255564709392,0.12892613682495854,-0.07792690296794372,-0.5954698640819964,-0.5373224987893359,-1.060232610223086,-0.11401097890277923,-0.7776479800870917,-0.5116282769976438,-1.069877468731456,-0.00762186100236371,-0.6602758785397301,-0.4519167148376959,-0.5337062133849237,-0.5422246972362502,undefined,1498668416929
903d185fccf839df,-0.2772841576115462,-0.3744056665931858,1.2596672882322424,1.382068792549101,-0.7400570924645461,-1.7257344104246286,1.7997017150601358,-1.3128249999166934,0.0833412181594803,0.7141676323518823,0.19063649455807047,0.003631195784148875,-0.7347301136363636,-0.5762074583823756,-1.0581273463403753,-0.2049383337020151,-0.821836717848415,-0.5554712458935184,-1.0800088507891288,-0.03555464133809812,-0.6922878216724792,-0.455349548880189,-0.5113935032911622,-0.5366498291428948,undefined,1498668418433
903d185fccf839df,0.06367538979280676,-0.48769961968659825,1.8058053053105836,1.942504882996629,-0.5560151182379788,-1.7353611568183052,1.8643318346428972,-0.8096846975763446,0.0742112624132308,1.3176081489250606,0.0334297612594561,0.027134466895377126,-0.8130640040106952,-0.5928724762172093,-1.0076009579385692,-0.2898038667322834,-0.8691204053967666,-0.554768287816528,-1.0378320747878165,-0.14697779095848798,-0.7005423897300219,-0.46581892573941136,-0.5329644964330208,-0.5556270382732434,undefined,1498668419939
903d185fccf839df,0.055359344508921986,-0.3749926231353225,2.441902465608871,2.611019774542167,-0.4122005036664812,-1.6979745410259417,1.9640041084242206,-0.025562187358418084,0.06550160809119071,1.4851338624333228,0.03993094023841449,-0.024755372950949553,-0.7913045900178254,-0.5613941681938297,-1.0644431343073901,-0.3625457703569772,-0.8802433026592669,-0.5483783481941694,-1.0508321495740773,-0.22868194412542386,-0.7117125850042709,-0.46965052392328477,-0.6195300086453475,-0.5515840767439216,undefined,1498668421459
903d185fccf839df,-0.06106587605743041,-0.37616671158754994,2.7436819606667764,2.753222754889667,-0.5759076644925083,-1.6906816917871927,1.8991005013277402,-0.46529797640377163,0.05577227841764393,0.7754939560352825,0.039533347511619035,0.0015051032990401492,-0.7608414104278075,-0.5178799542389433,-1.0665484092334514,-0.3827517958123334,-0.8714785618919885,-0.5271249883768054,-1.0720114960243745,-0.2845013079123885,-0.7171946553217179,-0.4696479793905007,-0.6505512821621593,-0.5361177823518614,undefined,1498668422924
903d185fccf839df,0.10941389764474606,-0.45482672133581586,2.6205454928365555,2.6819645472350087,-0.5903487824383366,-1.6950373683607853,1.9120470321594436,-0.38219261018055417,-0.05198199069421559,0.9488924923165463,-0.04578594741556144,-0.007268469863956319,-0.7738970588235294,-0.5086216656784172,-1.067601039334248,-0.3706281522743981,-0.8427350487280446,-0.4807678408908363,-1.0650566659089673,-0.32944937151632986,-0.6974164485670235,-0.47654888689203606,-0.6727642168419857,-0.5235753219192704,undefined,1498668424431
903d185fccf839df,0.11218592424117757,-0.44073836138090255,2.5963013361354617,2.6237371649961796,-0.6029384760775429,-1.7145191216127282,1.9411537335583398,-0.2307055421576436,-0.027371045609680237,1.045156257949118,-0.12388835127510382,0.0073776015810372055,-0.7651932932263815,-0.44196162024063174,-1.0749694684454103,-0.27768020906198737,-0.8345776476087368,-0.44061064496051716,-1.0586825713960604,-0.29635811280421476,-0.6658706984556645,-0.4700143146000778,-0.6793774756232558,-0.5366709457777292,undefined,1498668425928
903d185fccf839df,-0.022257538212799084,-0.4460214963639951,2.2651730896103444,2.480713895385716,-0.604687042897646,-1.697566918710191,1.8416103133378432,-0.832221357145993,-0.053458448053827615,0.7492612791816212,-0.18270309225446282,0.06455067938883678,-0.8043602384135473,-0.44566492012391273,-1.057074701515111,-0.19887652606540826,-0.8396884377940734,-0.439071739430981,-1.0686110460606506,-0.2698573883392412,-0.6660473669089146,-0.46370031502107734,-0.6499429799295773,-0.5249866521397651,undefined,1498668427434
903d185fccf839df,-0.3327248275618152,-0.4389773163865384,2.814501033677848,2.917642487214082,-0.646261826418118,-1.6839431991578158,1.8996580248996422,-0.38168154081062383,0.023399542276591537,0.7971623432384699,-0.1818344669536186,-0.001334304744938715,-0.7129706996434938,-0.3771532376952613,-1.0097062255023967,-0.17462923898953778,-0.7886751916951875,-0.3878445585228573,-1.0178561797532542,-0.24956223558517143,-0.620691166399776,-0.43260671903934916,-0.6209221009528808,-0.48948965386150495,undefined,1498668428935
903d185fccf839df,-0.13036667898985696,-0.49709185965654046,2.8062067660595167,2.9884977753548547,-0.5166620375077925,-1.6567027474341205,1.928293981265208,-0.09151257889781786,0.1121891083530051,0.811045914841959,-0.10737872131006826,-0.07711643094276281,-0.5737104500891266,-0.3697465213717284,-1.0065483388811232,-0.2473711284818708,-0.8017006547810657,-0.35000522118545696,-0.987657943373341,-0.21212861296861094,-0.5896375866785568,-0.422790010982424,-0.608653792872592,-0.47426886020687176,undefined,1498668430430
903d185fccf839df,0.15099433109662835,-0.5839701962904751,3.241968785675135,3.2700671223707736,-0.36541086512778187,-1.6800440536539463,2.0166686109865335,0.450477960226531,0.1656185995376673,1.6984380190737927,0.003654759461993397,0.005385836966395342,-0.7477857620320856,-0.3753015489012972,-1.000232536189641,-0.19281469016407987,-0.7595263096868531,-0.32764993043058643,-0.9742940345560683,-0.12472703645394072,-0.5569676512896717,-0.40921606332241284,-0.6436595563035835,-0.48684128988515174,undefined,1498668431937
903d185fccf839df,0.20782091082888393,-0.5270297414727005,3.028872920488019,2.981466575522668,-0.4510084411913001,-1.6967540157312833,1.9191554053251032,-0.2797854621484539,0.02251501467411702,1.7806600646188604,-0.04085301995322292,0.04581716745589607,-0.8000083556149733,-0.3484524045843426,-0.9823377582159909,-0.2049383337020151,-0.7115117391951655,-0.3248381026571546,-0.9688645085327829,-0.11354776670233852,-0.5495372586117611,-0.4187253409311411,-0.6558658302417867,-0.487351549804632,undefined,1498668433415
903d185fccf839df,0.6236252108422973,-0.5117673515215445,2.924877031140571,3.1241950649310817,-0.22307740106046256,-1.6925637156300681,1.9717778247468674,0.10881814839264116,-0.0416710499736406,2.3360135720448296,0.03371774196830951,0.09145236816154204,-0.9871393159536542,-0.36233988275284273,-0.9876009234444425,-0.21908256565312523,-0.7278742627841804,-0.3194487671281508,-0.9707466502854684,-0.01809280220958738,-0.5304970344547382,-0.41338430832346923,-0.7050471458422053,-0.5138430358795755,undefined,1498668434938
903d185fccf839df,0.24940134428076624,-0.5493363114013132,2.8189674905639643,2.8547909170996917,-0.34883033362492816,-1.6908167870638338,2.0147909331466543,0.3317617296950038,-0.07806095016449872,1.6281054129283759,-0.015760925219425553,0.044263048427467394,-0.9784355503565063,-0.320677370542695,-1.0339167951241783,-0.20089707208150082,-0.6993461205101675,-0.31689658776438545,-1.0110482816018886,-0.038172376727409266,-0.539006760389614,-0.4111884943746085,-0.7420785527729888,-0.5338160519626084,undefined,1498668436423
903d185fccf839df,0.15376635769305988,-0.5012010230993749,2.47826920893441,2.488128165139505,-0.2662464749538066,-1.6350664467300555,1.856831635164579,-0.5662641106852446,-0.06559565906190715,2.0522969484128444,0.022458467748785068,-0.007960703497257905,-0.8565828319964349,-0.37252402218573827,-1.0212851971034476,-0.1726086223116414,-0.7482097956594402,-0.3942154965458507,-1.0046462005611712,-0.08638491238144029,-0.5775443246780627,-0.43217281827542964,-0.7530507678823122,-0.5471679475056735,undefined,1498668437956
903d185fccf839df,0.3810727801383114,-0.4618709013132725,2.2875038492192292,2.3169820790277846,-0.4598438572379413,-1.6306595250661617,1.7530989333126468,-1.3037818573234385,-0.02304266600050468,2.0283211582856313,0.03788214970831726,0.028286903889312053,-0.8000083556149733,-0.44936824590874286,-1.0349694178627413,-0.31809238716394667,-0.84207709844172,-0.4662147339394232,-1.0218443620080138,-0.1678118916456196,-0.6420074826965817,-0.43136872454470954,-0.7111319042775617,-0.5432548968372926,undefined,1498668439426
903d185fccf839df,0.4101790939062519,-0.4342811964015673,2.3104719842972674,2.7529420736764414,-0.5182460418895496,-1.6196212584121668,1.9233367972842679,-0.17903775154166301,0.006942256651581364,1.916575379825653,0.04611074596978009,-0.014593138852700143,-0.8565828319964349,-0.47343995416556034,-1.047601015883472,-0.42518456232746754,-0.8907527682450888,-0.5042377289522577,-1.0250628957453325,-0.24220177914648963,-0.6826864889718764,-0.4122717448022879,-0.6644261205068288,-0.5320647153083096,undefined,1498668440937
903d185fccf839df,0.45314554065635,-0.40258238650301237,2.7041250362151255,2.921296692005946,-0.645017252925382,-1.632560182035873,1.9414745727234695,-0.1554597971601412,0.024171034522292047,2.040562884184461,0.17127041329411244,0.00649812002685393,-0.8957497771836007,-0.5521358148794309,-1.0654957791326545,-0.4494318918004203,-0.9041369225713545,-0.5822089327651307,-1.0442901323402947,-0.33696381406533865,-0.7430115353359873,-0.406040773221951,-0.7029150667340046,-0.5284720029714643,undefined,1498668442429
903d185fccf839df,0.10802788434653031,-0.41843179145228987,2.5994912631246243,2.6242766608509545,-0.7153919941791352,-1.6823826099324188,1.9180535268396512,-0.4326836139889841,-0.13332820170582285,1.1762855983554001,0.12282986864337128,0.07920281516409988,-0.865286597593583,-0.6132408392630347,-1.0170746693380264,-0.4918646300508329,-0.953915255150622,-0.6145766107959574,-0.986293566047607,-0.3886717941701396,-0.7588016162291729,-0.36196668103893903,-0.6702270448948652,-0.5018298191313149,undefined,1498668443932
903d185fccf839df,0.22029499600741598,-0.560489537909635,2.625011695585722,2.692381422978299,-0.6707006423394561,-1.7204260752655332,1.9093514935606637,-0.5625079456882522,-0.039783421783252025,1.4220757176639736,0.18896464556789147,0.0530596310608331,-0.7695451760249554,-0.5401000125541203,-1.0486536533465027,-0.5019676710432326,-0.8389309160417919,-0.5460541602010396,-1.0055697796091265,-0.3772923414371683,-0.7338391928535849,-0.34349914254803415,-0.6572991411442298,-0.4953225963748176,undefined,1498668445421
903d185fccf839df,-0.06799604606473839,-0.5634247298122113,2.568866744171307,2.755960844267494,-0.8437163558584825,-1.740872136604349,1.9424239228699107,-0.41020906941704943,-0.08276775986567002,0.9300855719625689,0.09943675374749983,0.01438439614323457,-0.8739903631907309,-0.5428775133681302,-1.0402325904534269,-0.540359260732017,-0.810398924788865,-0.5397782114830878,-1.0025821414504243,-0.4057640662326889,-0.7368786880462539,-0.35178193050933826,-0.6407390465599909,-0.49092601837637645,undefined,1498668446929
903d185fccf839df,-0.026415612612856076,-0.5886663747314309,2.6014051684907322,2.6223682106495088,-0.830540376065713,-1.7223989399067874,1.844718725319046,-0.9753827102134279,-0.06630091741106754,1.216085938796426,0.0526525965806391,0.014909362514160222,-0.9349167223707665,-0.5336191600537312,-1.0265483476074315,-0.508029506944561,-0.7793135473579734,-0.5295315087071908,-0.9687805479828556,-0.3851763449537123,-0.7147980041976709,-0.32900824652195915,-0.6344347718742566,-0.5154143292549591,undefined,1498668448446
903d185fccf839df,-0.2065974794025428,-0.4507176163489662,1.8874704350491471,1.964971218036977,-0.8391392127743058,-1.695745455195706,1.7929089206670377,-1.2487736949032064,-0.09797260238940703,0.710072340220134,-0.0010587144944634364,-0.016283611450211052,-0.9479723707664884,-0.4780691049212107,-1.0433904807558172,-0.47569976728946567,-0.8247551993583304,-0.5118815944457595,-0.9797445511649101,-0.3725958154145032,-0.7023748914928407,-0.41276806206468575,-0.6607326895597537,-0.5261592234948503,undefined,1498668449927
903d185fccf839df,-0.09710229082185945,-0.5328998914539145,2.0590954704185047,2.1901057763722274,-0.7204936959451829,-1.688983673508425,1.8261496793959155,-0.9740868727039249,-0.11320278443530195,0.9929570351949533,-0.09223035840339198,-0.0018242625565841322,-0.7738970588235294,-0.43270321512313464,-1.0812852748180095,-0.5060089043990253,-0.835373196503497,-0.4564683372408965,-1.0004411176585997,-0.4234876764297969,-0.6854010211769451,-0.4054338414710375,-0.7096637086670694,-0.5400583382552345,undefined,1498668451432
903d185fccf839df,-0.2273876788757791,-0.605102736222845,2.529947703462709,2.6293911110646215,-0.6831463358940391,-1.7203515383420878,1.9546919670267975,-0.24707390405591348,-0.10124432930976865,1.391276285167174,0.06576235061278485,0.020747260621162344,-0.7826008244206774,-0.4725140903424164,-1.0044430639550619,-0.4938852325963685,-0.8399047625356529,-0.4699575074675247,-0.9838376859559606,-0.43657635604188905,-0.6909251487249406,-0.39409196099759236,-0.7081863538615647,-0.5318823642056418,undefined,1498668452947
903d185fccf839df,-0.26758206452403593,-0.6244742311608509,2.1943540165992728,2.207193862406801,-0.6849360531362841,-1.720216442279899,1.8279510973873179,-1.067692638599159,-0.13026334516766203,1.2938397937989432,0.0006825192870786356,-0.09563174511853278,-0.7956564728163993,-0.41696408701299403,-0.9981272686258135,-0.4817615890584333,-0.8116554361544586,-0.46842493525262247,-0.9781562754017575,-0.40804303739727177,-0.6815879115623811,-0.38206376500311656,-0.7214022522494947,-0.536052249806374,undefined,1498668454450
903d185fccf839df,0.0013046878568687057,-0.5270296830167158,2.7768587770031528,2.9433398484586286,-0.5439808637738542,-1.7080461662417252,1.9977261149018148,0.1295456868537454,-0.07196297304734253,0.9035883934342482,0.03567841681354085,-0.09975499420471717,-0.6868594028520499,-0.40122493300130424,-0.9781272672617388,-0.4292257956832603,-0.8040774938830143,-0.43641823796245016,-0.9919120057198803,-0.3650351780003363,-0.6669285393528488,-0.3974811076495606,-0.6913499019753958,-0.516387051390707,undefined,1498668455927
903d185fccf839df,0.3062278895076121,-0.49533087311816093,2.9044606851716925,2.8776465038873535,-0.5364620168521118,-1.7066020376928914,1.9577583189129306,-0.09159748522297902,-0.1319464434231123,0.4840658125116899,-0.06506529429915059,-0.15666439636843468,0.17481339126559717,-0.40029904327661125,-0.9718114572080228,-0.35850456526590596,-0.7525356909201112,-0.3913720091145445,-0.9998953665019745,-0.2855484000487665,-0.6308216857236645,-0.4010794317000263,-0.7195028433420299,-0.5114567269070858,undefined,1498668457446
903d185fccf839df,0.00407671445330021,-0.5152893830542882,2.239014773406194,2.290874328952652,-0.5386117251405288,-1.7303532897468685,1.8972701544507167,-0.5418908305101814,-0.16882649860076118,0.10436367801443446,-0.09382321214758504,-0.12657451353254762,-0.28213430258467026,-0.4364066056618375,-1.0054957087803262,-0.29182445514545824,-0.7938046902125457,-0.4403003320103681,-1.0129094348059988,-0.2045679739928162,-0.6443148818922184,-0.41291398464916546,-0.7307766199448761,-0.5243538079336133,undefined,1498668458929
903d185fccf839df,-0.11373451941126794,-0.5634247298122113,1.957651624317166,1.9964001304270582,-0.6730354969655525,-1.7500446803715528,1.9475231170235292,-0.3699594428149789,-0.18730968624183328,0.694333156800048,-0.06338864501640917,-0.015364791067928605,-0.8870460115864528,-0.4382582297019289,-1.0339167951241783,-0.37264878308465527,-0.786619485627712,-0.46061008220105415,-1.034158749199902,-0.15911176303537847,-0.6494388207589102,-0.43370835980055544,-0.7353251061646982,-0.5126611572910901,undefined,1498668460428
903d185fccf839df,-0.24956396065805062,-0.6150820496468934,1.5525148860657132,1.5791583174472663,-0.7130057188498732,-1.752213202381017,1.912381026627023,-0.630971418167636,-0.155486754549187,0.26826242187370025,0.050330102162572485,0.12148955124720268,-0.7216744652406417,-0.43825821675115434,-1.0676010209286637,-0.25747416947427043,-0.8062929134593072,-0.46775364288508237,-1.0482013479565164,-0.1224788607263212,-0.6442413187929136,-0.46321697622425473,-0.7451730708408629,-0.5296040748191918,undefined,1498668461929
903d185fccf839df,-0.0499778731879336,-0.6526510095266621,1.0484855825481834,0.8163181894883776,-0.514008338178604,-1.81610190487995,1.9316180531051368,-0.5354778621607146,-0.2755511836892649,-0.06271523101601034,0.05609766537617483,0.0356853249470541,-0.6607481060606061,-0.6187958732679909,-1.094969502939537,-0.21100015547098275,-0.9401942622544691,-0.6083323268628323,-1.0758947253207658,-0.07258789971509609,-0.7065600534907118,-0.48518232596460537,-0.7885810677435828,-0.5570041667051068,undefined,1498668463422
903d185fccf839df,-0.15115684395768353,-0.6074508546713153,0.14123344614530803,0.09635156261995123,-0.5468917089999082,-1.8435170490924113,1.9647851647667716,-0.3909262487003108,-0.3461731259583879,-0.4987108523300321,0.09223156522993489,0.0000397120407299483,-0.6607481060606061,-0.6974917275064741,-1.1181274093304698,-0.12007285720118992,-0.9378065145454102,-0.7127878999331021,-1.0923302339599736,-0.05988418253154276,-0.7653700018502461,-0.4842997861691457,-0.7288042141229425,-0.5556863601094394,undefined,1498668464934
903d185fccf839df,-0.1858072454238968,-0.6643913094890899,-0.02209782987961676,-0.035882365044737886,-0.6746297809747676,-1.900597385418703,1.9412510347152119,-0.6667267398156105,-0.361110079993117,-0.6604782208128553,0.1239842265959563,0.03910782316684176,-0.6433405748663101,-0.7178601099784615,-1.1118116066389876,-0.029145417607789416,-0.9094287513770292,-0.7201974426736308,-1.0849485984055571,-0.021927015314185044,-0.7641135362539246,-0.48173694835329334,-0.6249542349538642,-0.5618710878555685,undefined,1498668466421
903d185fccf839df,-0.23293169756323237,-0.5047231423160955,0.6305881197922826,0.3924546407609082,-0.9082076711783491,-1.853262585443547,1.9318784057430818,-0.6980928088579745,-0.26704814078600125,-0.1589695013548603,0.07022125526920218,-0.015573749136126587,-0.6433405748663101,-0.6743458960235751,-1.0907589604496484,0.11633827658271202,-0.837469442673214,-0.6761708190090719,-1.0802537391820468,0.14109633098743862,-0.7127042336762365,-0.48309895874255054,-0.5501017572085203,-0.5560897547000438,undefined,1498668467919
903d185fccf839df,-0.08185621355230564,-0.502374994639633,1.8064431890536363,1.5697162688010298,-0.6790834835413171,-1.7995992448008005,1.9334983688667746,-0.4666203178590403,-0.19186819196817675,0.14438724172673242,0.042136906138410105,0.028898666055724408,-0.6825075200534759,-0.63916420393688,-1.0991800196616075,0.11633838964159816,-0.8017387543068488,-0.655253104835653,-1.061579251521082,0.1466705670273864,-0.7035459209880431,-0.46260462491805787,-0.5030230329765765,-0.534799507475721,undefined,1498668469440
903d185fccf839df,0.6832238861818039,-0.36970951738022234,1.5442201101734827,1.489881935201195,-0.32615035624509114,-1.8018096933100813,1.949566482171195,-0.20926269879068995,-0.1489045460362434,-0.0011087404699946467,0.1248596524766972,-0.07733279620248565,-0.8130640040106952,-0.5641717078601632,-1.077074728647004,0.10017347035078784,-0.7716865111436785,-0.5969836901153363,-1.0464941267938352,0.03846569110519033,-0.6915735787395687,-0.48084273773490416,-0.501435474402758,-0.540926552838644,undefined,1498668470963
903d185fccf839df,0.9437947658058723,-0.5129413522897949,1.278169728835013,1.3211724745946911,-0.006316604039183333,-1.8111219917366028,1.8664804029280881,-0.6755054664702185,-0.17753672971180465,0.0996693419239407,0.20965775472287448,-0.21333696612960615,-0.2864861853832442,-0.4465907580455075,-1.0286536298957267,0.013287363039705487,-0.8169405583013043,-0.5289488752755646,-1.0060665532853608,0.02899564519022692,-0.6432233318338884,-0.48135590023659164,-0.5424061280493891,-0.5647654752935679,undefined,1498668472427
903d185fccf839df,0.540464550970991,-0.3661874858474787,0.8832404011571509,0.9467018456315596,-0.08248219710873607,-1.802790301356834,1.8385203000294292,-0.9233760361985183,-0.25143267991454765,0.14968954245319765,0.16571523015411413,-0.2120672565526356,0.1530539772727273,-0.4632557629295666,-1.0181272847143557,-0.04733095357649613,-0.7734233285213254,-0.5519311275043267,-0.984187525453777,-0.06636692659703779,-0.6602481719456881,-0.4995231694408206,-0.5271177922917795,-0.5830001872359545,undefined,1498668473933
903d185fccf839df,0.18703067685023791,-0.4689151689747062,1.0988883095903768,1.1444884775624977,-0.2704430238734719,-1.8505280577641356,1.8682108099408414,-0.904496227222027,-0.23345585613263065,0.5501527720113332,0.09553368613942477,-0.16294582547666328,-0.6085255124777184,-0.6234250304990285,-1.0581273463403753,-0.31000990632000036,-0.9019429652506145,-0.6290600483796467,-1.0032818221588344,-0.31178735437404237,-0.7515523461364741,-0.4663153423787553,-0.5947368240957196,-0.5616788275580514,undefined,1498668475456
903d185fccf839df,0.17317057837349015,-0.45306570556944403,1.1403593935450849,1.1163323425624843,-0.5149134799340979,-1.8356535360581874,1.945072141766694,-0.46701714141921685,-0.14095444469803023,0.29209316466903545,-0.040533927972537145,-0.1455112586131379,-0.6563962232620321,-0.6604583725273641,-0.9644430391402112,-0.3261747973460891,-0.9164932391197591,-0.6629982938457702,-0.963043162635786,-0.3329756163447304,-0.7502538799072327,-0.4913845645739814,-0.6642352164758077,-0.5770440861314432,undefined,1498668476929
903d185fccf839df,-0.21768562029367858,-0.4648060055318718,1.1256850178114788,1.0851664858841268,-0.8885928508930229,-1.8152494022384977,1.9378270190828049,-0.5998884378111385,-0.12266112878172185,0.11876032194245903,-0.02611172216763899,-0.10617657467625492,-0.3996351381461676,-0.7317475881469616,-1.016022031874996,-0.47569982381890874,-0.8995305307703381,-0.7618492120051613,-0.9909254538570035,-0.4585499392957547,-0.8315570001954699,-0.4681470174949005,-0.6641672566859599,-0.5666848936005638,undefined,1498668478428
903d185fccf839df,-0.19412335971860104,-0.6673264137076892,1.0937844772351066,1.0842813400460791,-0.9661778609714924,-1.822421131781787,1.983785508409397,-0.34240990182510883,-0.10937414434370904,-0.11002765125418514,-0.017985539465564828,-0.1276316147374685,-0.44315396613190733,-0.7169342267291557,-1.0107588556031935,-0.582791970717708,-0.9279919596264021,-0.7673272081642987,-1.00153961617102,-0.5956576955301436,-0.8682749705978419,-0.4637943294999655,-0.6379890575392982,-0.5352072250299981,undefined,1498668479922
903d185fccf839df,-0.2038253492898821,-0.5739909997783962,0.9732000526509953,1.0106303860970387,-0.9267322086818853,-1.7927419652066563,1.9761248830633826,-0.3385414747710974,-0.12111892885610345,-0.4370777777878306,-0.062021010419860585,-0.06406879522992664,-0.7260263480392157,-0.7308217502253669,-1.011811500428458,-0.5706683413121336,-0.9491933296477373,-0.7628371503385045,-1.0266721610663756,-0.548338274935373,-0.8675559274523905,-0.4795322302418593,-0.619613578468467,-0.5159317110723687,undefined,1498668481474
903d185fccf839df,-0.23847571625068564,-0.5264426972465869,0.36517536805991596,0.3349139312066023,-0.9510990222473092,-1.8323623234751991,1.998420392443914,-0.24165003094566873,-0.1666324556973512,-0.6697811861197602,-0.06061680020181857,-0.0052375098413382165,-0.8739903631907309,-0.7465609430893803,-0.946548268528795,-0.22110315406630007,-0.7045243610835562,-0.7470997855604088,-0.989372162545843,0.19649993147012823,-0.6879004935345817,-0.4490833411533717,-0.605999442491712,-0.30279729080802814,undefined,1498668482919
903d185fccf839df,-0.35905901121709505,-0.5076581880787101,0.1552694298619624,0.19111246152018455,-0.9308567746947021,-1.8306130641244738,1.983220109568648,-0.34421094452648304,-0.1617414986830673,-0.6106533217475639,-0.020972746353291292,-0.008153748591777444,-0.9610280191622104,-0.7678551246306388,-0.9476009059918256,0.5770369571420237,-0.4326350786416178,-0.7634261137184721,-0.946222829991716,0.4849282155342747,-0.6164299567260554,-0.4682157235277338,-0.5850180313005834,-0.3980661282683376,undefined,1498668484432
903d185fccf839df,-0.23293180107946157,-0.40903959532433615,0.22481298952387804,0.18387515411782532,-0.8262512382661156,-1.8281650356776227,1.909312044937426,-0.7519093133367764,-0.11678260869334658,-0.7473075404564326,-0.01722096087413966,0.026940929430993587,-0.9697317847593583,-0.7724842883370636,-0.9960220047431029,0.6598818310973134,-0.3601730706182859,-0.7346175539542993,-0.9759802671028867,0.5000186909138766,-0.6129848256442612,-0.4321811664991997,-0.6277458675105685,-0.36023865242340447,undefined,1498668485926
903d185fccf839df,-0.14145481988099273,-0.3421197832405248,1.191400004330331,1.0649878529177212,-0.686725762198399,-1.7529795218608035,1.9310815695322265,-0.4515112748503438,-0.12187491997558754,-0.0009675672613886718,0.003253312667285697,-0.010854138074356895,-1.02630626114082,-0.7845201230393106,-0.987600941850027,0.7043351012314577,-0.28997924900215993,-0.7021422187600233,-0.9666325279979773,0.6033730573955428,-0.5758181702031284,-0.45518095155580873,-0.615238554419562,-0.39018714879202177,undefined,1498668487431
903d185fccf839df,0.008234788853357202,-0.37381868082305675,1.700533140203131,1.6625126153562193,-0.6299075724800868,-1.7286808976732513,1.7989890419878138,-1.2459507073500038,-0.13754631487202623,0.23379201051839846,-0.002969741232923472,0.054494409884053,-0.9479723707664884,-0.7474867745355878,-0.9897062204572051,0.6093665696058721,-0.36014039110234086,-0.6735553120245592,-0.9648623350725091,0.6767928436141106,-0.5501396991656934,-0.45624710583400385,-0.6603608524594807,-0.39604816289340833,undefined,1498668488924
903d185fccf839df,0.264647559571959,-0.4788943947147774,2.295159724820609,2.241461145515046,-0.46817527044273716,-1.6799229318976698,1.8935095302600937,-0.4672856080217394,-0.15128764968260464,0.31003875307894746,-0.0730697442904294,0.09255662707962202,-0.7782489416221035,-0.6604583725273641,-1.02128518237898,0.2638426439805529,-0.4482843213667432,-0.6256275950713366,-0.9797445520090646,0.5140928694325163,-0.5594771732520736,-0.48090484769274827,-0.7355411364705671,-0.41207847336299464,undefined,1498668490456
903d185fccf839df,0.10664183654290482,-0.46480603475986415,2.0508014569371227,2.115833287590962,-0.49547351309153803,-1.6765082679368333,1.8546909604798663,-0.7588092814341012,-0.10586205285115519,-0.18852791250161247,0.04739485926121057,0.017341050394532466,-0.6955631684491979,-0.6012049980854006,-1.034969425224975,-0.14836132110341013,-0.7960039710720276,-0.6081930026279131,-1.0168346466192568,-0.2671010681659837,-0.7331961562303867,-0.4647671792609397,-0.6191006047742063,-0.525794947850858,undefined,1498668491928
903d185fccf839df,0.022094956340924458,-0.48065549816512626,1.908524664761078,1.7944508940076302,-0.3994359611496975,-1.6514363366460707,1.8957185594081867,-0.4260081722127785,-0.16690212729345275,-0.45363533820842533,0.10040720762740511,0.008947097002070546,-0.8130640040106952,-0.5326933480336856,-1.0507589098669794,-0.16250555305452022,-0.8218954080951452,-0.5763446292120454,-1.0525673594667113,-0.2594018444870164,-0.7401530028460556,-0.45057849160181157,-0.5502364299049968,-0.519877993631939,undefined,1498668493413
903d185fccf839df,0.45868955934380323,-0.4894606646809624,1.7617821781097658,1.708372233385967,-0.2805435927689995,-1.6829462841075298,1.9649113838102867,-0.01727269263633459,-0.30418923339302756,-0.4733611799741874,0.1316106734056725,-0.030490272508132903,-0.7347301136363636,-0.44196159433908266,-1.0412852242353405,0.043596443619822074,-0.7188619079205222,-0.5064099316123294,-1.0392174438185293,0.1384939839737665,-0.623093295266392,-0.45821856030700264,-0.5914309781847783,-0.5240531570093189,undefined,1498668494922
903d185fccf839df,0.4877958386063341,-0.5845572697445812,1.7368996293917207,1.631792603486689,-0.3641971632439428,-1.6896917614840665,1.9588917594919137,-0.09539454250135847,-0.2819792023756598,0.0509656797342384,0.04346271213523585,0.048906974634558106,-0.7782489416221035,-0.49658578564845934,-1.036022051644655,0.0718849357867638,-0.712496671128755,-0.5380556501661206,-1.0372373464933562,0.10589547791222369,-0.6436063546951949,-0.4548730577380469,-0.5760966940441743,-0.5324182792105242,undefined,1498668496432
903d185fccf839df,0.3173159958933381,-0.5916013912660532,1.855569894472775,1.9216460699429596,-0.41045194070338287,-1.711987239456804,1.9979207067403417,0.08967403573817645,-0.30662029852149564,0.4091693587095157,0.025780234951759465,0.004797478413139889,-0.9218610739750446,-0.48640159441246567,-1.0602326028608522,0.07592614087783504,-0.687541078286529,-0.5293478527591966,-1.0514898494233442,0.0983964354645251,-0.6430287177470153,-0.4752622587773461,-0.5685912715668557,-0.525800559095217,undefined,1498668497962
903d185fccf839df,-0.03750375350399183,-0.600406616237874,1.6533200860131507,1.6704167933968834,-0.6491521007002121,-1.7565712074449749,1.966457715055802,-0.27582333674750875,-0.08052385795967783,0.7354967135619114,0.04194620977895399,0.04568093584287966,-0.7869527072192514,-0.5539874518702969,-0.9928641033973618,0.3143578348101903,-0.6840056665885353,-0.5444582554266839,-1.0197383218668463,0.4901944822345029,-0.5673666051216294,-0.47485577686286823,-0.5901465675265186,-0.4776105684682237,undefined,1498668499420
903d185fccf839df,-0.0763120223378037,-0.5757519570887834,1.5799487156190197,1.669862819162481,-0.5764219368351735,-1.7895881722731175,1.9486013359198626,-0.3865511479256219,-0.09095826835112535,-0.07498730243889157,0.11522355907445883,0.03277385135585397,-0.7826008244206774,-0.6234250499251903,-0.9918114806587988,0.3810379025335557,-0.7438190134896103,-0.5376946707265827,-1.0089982166450795,0.5030829800633715,-0.5533332230058321,-0.4892651090596547,-0.6232636824663536,-0.5003804216967034,undefined,1498668500908
903d185fccf839df,-0.1359107666881297,-0.6092118412096947,1.244355282892533,1.2175013681331674,-0.49657407195586245,-1.7650077127120354,1.9273919578915364,-0.4702220180900231,-0.12394331400089109,-0.35049443091147575,0.01277868986673389,0.07991045938627107,-0.6825075200534759,-0.6873075427458677,-0.9644430170535099,0.595222337654762,-0.7143706523121153,-0.5874462779946872,-0.9420667235174007,0.41914605514727143,-0.5717100643228606,-0.5061664496546963,-0.6268826507652792,-0.48987749907976025,undefined,1498668502400
903d185fccf839df,-0.142840764168389,-0.5340738922221648,0.5017094275898398,0.5495822740813626,-0.3897776847467823,-1.8415348665682998,1.9162021342022655,-0.6433476489314616,-0.25516563308919077,-0.20908763343300724,-0.00031642103110577827,0.04441634774531531,-0.7913045900178254,-0.5863917014214675,-0.8497060636640066,2.763334620885314,-0.029844069871462226,-0.5747233942796867,-0.8896186292837015,2.1863794361692683,-0.15018324334766714,-0.5250161568894843,-0.6219731043077682,-0.5439576747574066,undefined,1498668503904
903d185fccf839df,0.06921940848026004,-0.5968845847051303,0.2216225542608167,0.0737918489632837,0.003794228045520358,-1.9247329625429805,1.9845876000370912,-0.19852973805634072,-0.17819960509607125,-0.46049515203635016,0.12337781895767794,0.01271632579689673,-0.9131573083778967,-0.4817724501322026,-0.9065482142650091,1.5348051075508453,-0.2113039254064983,-0.624588991865311,-0.9226995516163473,2.823982863115369,-0.054950416462662285,-0.468411292306148,-0.47560902095893814,-0.5351103912249365,undefined,1498668505434
903d185fccf839df,0.20643500104689738,-0.5023750238676252,0.5482845980367674,0.4962506244780566,0.01057250316407191,-1.8540475409223567,1.925322289995385,-0.4784558425172273,-0.059333234557402956,-0.3046571850405376,0.12944937051776306,0.154442826584749,-0.7956564728163993,-0.4336290595201167,-0.9654956397920729,2.5733975011046994,0.06518897301280448,-0.5549582763649265,-0.9439418697804945,2.423607879875906,-0.10287631399317326,-0.44814210527503684,-0.6879582764057739,-0.43628332743398685,undefined,1498668506922
903d185fccf839df,-0.10264644753095166,-0.6062767662190879,0.9470417364468448,0.8370550571569761,-0.23410366242817507,-1.774420167319993,1.8969861362004035,-0.6583043702298021,-0.17580563506503025,-0.11837921676255318,0.02902454121033543,-0.05076156603213278,-0.852230949197861,-0.48084661868599504,-0.9991798913643765,1.6802889430649544,-0.23395013720948205,-0.5451422134158189,-0.9754694989668619,1.9399427065502473,-0.2205718154805885,-0.4259728096975867,-0.7456152575929608,-0.6124754498658533,undefined,1498668508428
903d185fccf839df,0.012392932264233662,-0.5405310572015001,0.6216559684308983,0.501273916510145,-0.13818953684227298,-1.844502317432423,1.9427368600543882,-0.4205723865748784,-0.1581748877807405,-0.13516207273713293,0.07232980850279519,-0.03686088620381047,-0.6259330436720143,-0.4641815879003869,-0.997074623800549,1.035714907964553,-0.5242932415664106,-0.5254277593107012,-0.9724188901036243,1.4293302662135348,-0.3419806431031596,-0.4304846300124266,-0.7431412752119488,-0.5145490469056125,undefined,1498668509930
903d185fccf839df,-0.10957651402203042,-0.6368016045773847,0.3428448625879807,0.33809327065177625,0.05084100654353925,-1.9170581194429075,2.0165055388169058,0.0005538223325943742,-0.06048200506129869,-0.1457550384651811,0.1750420922099145,-0.07749957159747706,-0.5475991532976827,-0.5521358278302054,-1.0444431182188478,0.9407462632800812,-0.4752758309782728,-0.5732668167964898,-0.9956552982604367,1.035576623118391,-0.45718389682246907,-0.45184693994119923,-0.6909515268013389,-0.44116909930439724,undefined,1498668511431
903d185fccf839df,0.2244531049128827,-0.5945365100986486,-0.17330626514314654,-0.307263106977251,-0.01028689503114077,-1.9036812984385203,1.8963681124835328,-0.7482868094258621,0.08538057252532572,-0.5661195291626352,0.1381411864095537,-0.09213951786177235,-0.9131573083778967,-0.5289899833965318,-0.9349693079710949,1.4620630767349045,-0.23571074115083054,-0.5535586949097463,-0.9279471594680021,2.314971878013732,-0.158662663152248,-0.42291288804105215,-0.5649631681171758,0.23823896254905857,undefined,1498668512928
903d185fccf839df,0.2355412803094282,-0.39319011730507786,0.25479911646024384,0.18006850714904582,-0.26103162107987676,-1.8202060239387565,1.9095618642199716,-0.5893751913926805,-0.015624049138473164,-0.7458840297010407,0.16334003057098517,-0.06398502343046128,-0.7608414104278075,-0.5271382816517931,-0.8876008135527961,1.5873408867936576,-0.17194939334361528,-0.5517664715666744,-0.9013662749597395,1.8354950878805776,-0.24855381757249476,-0.37791153691882934,-0.5713857723822978,0.2673205254306444,undefined,1498668514430
903d185fccf839df,0.26880559946660626,-0.5235075930279876,0.8915346687754824,0.850709121638334,-0.21089913291417273,-1.7104848817817608,1.920225734025405,-0.3451904838941234,-0.2207629711322758,-0.34936065877224587,0.10354157868312519,-0.026268433210808694,-0.7738970588235294,-0.4502940967811122,-0.8560218295443198,1.2438375213167916,-0.31965442131367316,-0.5040794060136495,-0.8970912238688794,1.491016462782355,-0.29251773582859564,-0.38936377014648194,-0.5406564640055662,0.17397013379487594,undefined,1498668515921
903d185fccf839df,0.3505805220829746,-0.48006845393901254,1.2564773612430797,1.2986534043638231,-0.08444676996631363,-1.8191788300607028,1.93445034357907,-0.3550659705230857,-0.3865096044882713,-0.14169853120453876,0.043701058145318654,0.034962318986312725,-0.6085255124777184,-0.44103578231903695,-0.7970743892927885,2.5087379652650657,0.06777628618750471,-0.42563323151355875,-0.8416974729779122,1.8796578260549497,-0.1695102023958369,-0.3872852672393498,-0.5272149503595562,0.24749246199230376,undefined,1498668517455
903d185fccf839df,0.4725496923259608,-0.47067618474107803,0.5163838033234458,0.46480256841969725,-0.06533594464878169,-1.8975577288364867,1.9393523087580455,-0.4154700430517602,-0.2919682496051714,-0.25960389953744134,0.02471312989782673,0.046252090135437074,-0.517135973707665,-0.4549232863890862,-0.8412850007709307,2.3107184070375877,-0.11327388231756233,-0.39912986186932675,-0.8135632956536923,1.878487538748797,-0.1467395078999282,-0.3925886481132915,-0.6806383447139863,-0.07679097988100443,undefined,1498668518924
903d185fccf839df,0.19118878575570464,-0.592775421262296,-0.07441497056181669,-0.04965064735465404,-0.2652796054805566,-1.9757945440385551,1.9701815125702375,-0.39249101643787465,-0.14798933282118018,-0.7342571687363275,0.019059113113320536,0.02565511068665172,-0.8957497771836007,-0.48825324435410616,-0.8939166088820446,1.0539003450067344,-0.36163706326394646,-0.43874242577287,-0.8915357567301426,0.9564594133501537,-0.38810598484897885,-0.34862157797554266,-0.5675071673902414,-0.3828959735706153,undefined,1498668520428
903d185fccf839df,-0.2551079103346844,-0.5023750238676252,-0.16947794613703246,-0.16324666709257085,-0.5555522640658195,-1.8609886729145153,1.9555282351005412,-0.44105580191277916,-0.2799565885347094,-0.6506809693378145,0.03192110881768089,-0.03461391156062867,-0.8913978943850268,-0.44751662186865143,-0.8360217840068425,1.1670543702039442,-0.2682612146222223,-0.4456200032709176,-0.8212038140485831,1.0568726740591172,-0.3433495192831467,-0.40094252373345873,-0.5848615183343375,-0.25608214969365095,undefined,1498668521916
903d185fccf839df,-0.21214156710081555,-0.5992326154696236,-0.2875103274750339,-0.35916689346393915,-0.7728376236039681,-1.8373841638268964,1.9545762493892662,-0.47928761301183204,-0.45112228584610564,-0.7292288577882956,0.03810648628998265,-0.07368734419296537,-0.7086188168449198,-0.4373324047311086,-0.7886533337619465,1.0458179348245917,-0.2122353442622184,-0.47391559644093145,-0.7626544999596716,0.8958665273688361,-0.3690972378338062,-0.3059833933292916,-0.5539325740381913,-0.124283727008744,undefined,1498668523412
903d185fccf839df,-0.6612102725349313,-0.5041360396339971,-0.5305928278724147,-0.6048990118133503,-1.2069248943841093,-1.7202443936814604,1.9230396211127014,-0.6211424564282801,-0.5830524173454026,-0.6855152173712855,0.024453882109705435,-0.07158950439221773,-0.6563962232620321,-0.5289899833965318,-0.7812848788829659,-0.008939363887711695,-0.5203123437743347,-0.6174264334465107,-0.8307754504959571,-0.15022686429388543,-0.6723373601113536,-0.2426760913204171,-0.37760281036228005,0.003012713210594301,undefined,1498668524904
903d185fccf839df,-1.1213671361128876,-0.8939144660344758,-0.8151459039506046,-0.9113441044139958,-1.677114954067269,-1.6326323892145231,1.8883209243599943,-0.8720593145181712,-0.39203771169853563,-0.6660074476893162,0.052805424493902,-0.15135150285667914,-0.8609347147950089,-0.6595325410811566,-0.766548039066226,-0.332236604982696,-0.5296653732063654,-0.7357891510704098,-0.8797601241103338,-0.384113853631461,-0.7854105595195742,-0.2059872462595544,-0.31405456080904115,0.061019785694416455,undefined,1498668526436
903d185fccf839df,-1.1962119232273576,-1.0553437074298266,-0.9421101825130409,-0.9763634304384703,-1.8130301548256167,-1.5042260904641225,1.8568894829843656,-0.9155555670464328,-0.29344031787921765,-0.6889427819307488,0.08787805436496733,0.0429590533184535,-0.7651932932263815,-0.8974718541067496,-1.0139167643111684,-0.7585848656133926,-0.7773360441120929,-0.8329555056191913,-0.9817456387269673,-0.6438548306386082,-0.915812628403166,-0.18456467435252266,-0.2513926815668416,-0.23373766922408704,undefined,1498668527915
903d185fccf839df,-1.157403499119202,-0.827581595878805,-0.9089336203136137,-0.9546429401115032,-1.762352526235269,-1.5751048420860967,1.8573602109954668,-1.0046240214934312,-0.352707500918843,-0.6746200068758624,0.08332541314803318,-0.00015103523495918388,-0.7564895276292335,-0.9946844149740306,-1.124443212021952,-1.003078427244888,-1.1836786057818642,-1.0154456098462483,-1.047837514359816,-0.9907356121898534,-1.0884323073575475,-0.323954565916939,-0.6038082070833025,-0.39583372723177473,undefined,1498668529481
903d185fccf839df,-0.9009907887850672,-0.8099711459351633,-0.8138701364644991,-0.8713161560177324,-1.634665883627832,-1.5829077919084173,1.8412552725861417,-1.099273263392282,-0.33881095385128407,-0.6604521573450943,0.060332817657057926,0.043789510108028784,-0.7956564728163993,-0.9956102496579318,-1.1223379444581245,-0.9808517533138237,-1.174165534624102,-0.9839012172618156,-1.0600679397171942,-1.012847779635324,-1.0818992337625035,-0.28142302376996703,-0.5866868590316424,-0.42274762091948676,undefined,1498668530931
903d185fccf839df,-0.8316900979952223,-0.8199505178151962,-0.8425804959147595,-0.893652169685609,-1.4535553319749464,-1.5895135139370362,1.8432644403373237,-1.087596497709071,-0.29651950172945757,-0.6640189919532711,0.06359710516533372,-0.03047390588630375,-0.8739903631907309,-1.020607750508633,-1.164443266285738,-1.015202081382094,-1.1643673267410446,-0.9991636118399201,-1.086410932600596,-1.0282616232443482,-1.1015052700681278,-0.2769400475799384,-0.584302410194844,-0.4188022796321042,undefined,1498668532444
903d185fccf839df,-0.9786076456277311,-1.0465384824580057,-0.7634671552853562,-0.8542967536289436,-1.235601410997607,-1.5142325058661064,1.8177316654147626,-1.1212433541783247,-0.2675991767959216,-0.7135877513982761,0.06381491162466722,0.018724646264191607,-0.9001016599821747,-0.8919168557164235,-1.091811594231562,-1.0232845127627774,-1.0945355568734105,-0.9409828584473569,-1.0710249456418266,-0.961493963318069,-1.0589779307730207,-0.2961295973940143,-0.572936999784383,-0.4148777966935866,undefined,1498668533941
903d185fccf839df,-0.8469362442755957,-0.34857700667584474,-0.5159184521388087,-0.582959728733043,-1.302252728585086,-1.7289138242909974,1.920491345222755,-0.705764898217392,-0.1581298632481271,-0.823165937337198,-0.019663569034130322,0.024746709056296185,-0.8913978943850268,-0.8002592997148558,-1.1097063501185107,0.16887411235496733,-0.6824348097540609,-0.8853669474157739,-1.0968011973519336,-0.19380446829937834,-0.8866376584677018,-0.3859711665202633,-0.4863444444112255,-0.4148128828599191,undefined,1498668535417
903d185fccf839df,-0.6944746089448142,-0.6368016045773847,-0.18989480037980955,-0.21009333464665272,-1.2487259607887893,-1.9156046745859363,1.9933632735744307,-0.4523781430644441,-0.1981618466584034,-0.5269906864085355,0.05477340459571854,-0.06900138481365452,-0.843527183600713,-0.7447092672461907,-1.1097063464373937,0.42145009476787576,-0.7714705391417906,-0.7954581455018569,-1.0576540402522425,0.21420814209095587,-0.7476601269033283,-0.4076033853849615,-0.5925676964140872,-0.5291433090019613,undefined,1498668536906
903d185fccf839df,-0.3715331999118563,-0.4560008097880433,0.1412329378714092,0.09294715802246865,-1.049512581049861,-1.7867674660479258,1.9898314386188192,-0.22983680446428822,-0.15058664537495342,-0.8318588838919269,0.11618450829964606,0.05971809648432073,-0.7434338792335116,-0.659532554031931,-0.9886535535452393,0.04763770524033638,-0.8571314234094134,-0.6161661779758363,-0.9490145577639587,0.07429786905458918,-0.6584181789715416,-0.38524267459514583,-0.5498304098918265,-0.3960997582415515,undefined,1498668538428
903d185fccf839df,0.09971173554641632,-0.4518917048011936,1.3904596316638433,1.3261659898288483,-0.8232581006559807,-1.6729305564474641,1.9443173787449313,-0.244062572992778,-0.0288558837525494,-1.148850781580571,0.10479216533625416,-0.0014263435405825402,-0.7303782308377896,-0.5123249526109236,-0.9086534744666027,0.26586328892317085,-0.683390656226018,-0.47990022901888335,-0.9059072059282821,0.15463156095375025,-0.5674767235642337,-0.42619494179879314,-0.4839898271229859,-0.3397279766110823,undefined,1498668539937
903d185fccf839df,0.22722516601472395,-0.4624579747673786,1.8721581755724885,1.938796528766937,-0.5956870531377224,-1.7376671015342409,1.9598753054635567,-0.19879350659051112,-0.014922409958685259,-0.7134222334634194,0.23900639899629164,0.012401484465154286,-0.6825075200534759,-0.41603826204217376,-0.9202324423865367,0.3507289067476037,-0.7074486355332174,-0.33165868301431584,-0.8644161172277234,0.09336114556715205,-0.4882131073743195,-0.48649826213471387,-0.5384223906543132,-0.3420580348263099,undefined,1498668541428
903d185fccf839df,0.10802784984112057,-0.48828666391271197,2.4814591359235725,2.50144281784733,-0.4911123666643929,-1.8436358389810106,1.9193394813542206,-0.6027937796836779,-0.0947280416338988,0.16274501240384795,0.18466245115850108,-0.17505975723456624,-0.49102467691622104,-0.2503139734185304,-0.891811378129386,0.22343059306984056,-0.6266814509299562,-0.2740098972394634,-0.8151165880598067,0.19414397295166988,-0.4247253476235539,-0.4933455622162794,-0.6212279640951562,-0.38035560734017526,undefined,1498668542943
903d185fccf839df,0.0955537301571788,-0.6197781550178683,2.3927757601897324,2.3166135641023624,-0.4319078954632158,-1.9496255406041278,1.9144270079603696,-0.7848653794445853,-0.28780620265121004,0.18955419618426894,0.1633014604249137,-0.18227938880396186,-0.21250417780748662,-0.13551058917175726,-0.9381271909112515,0.21736877130087293,-0.5296587651047676,-0.2272221095114547,-0.8636464676030946,0.19779340553211297,-0.4112566607994552,-0.45093743179759843,-0.7141072850471191,-0.4613155690604779,undefined,1498668544479
903d185fccf839df,0.16624061539864057,-0.6197781842458606,2.106308778745434,2.1291838804028056,-0.2746498710994597,-1.9837908225190028,1.9361833966318742,-0.6065877793800092,-0.31080944081386047,-0.1349914916662991,0.16721460860421755,-0.23341585668349576,0.30101799242424243,-0.08921891325518465,-0.909706089842932,0.12442071502957604,-0.4760369924231022,-0.25763290489526425,-0.8833564838488113,0.15303012694873772,-0.4386791131010478,-0.3789540262563698,-0.6517228356945122,-0.46497574008530945,undefined,1498668545944
903d185fccf839df,0.15376635769305988,-0.5792740909195002,2.1905262058670574,2.116060325498383,0.028274188813548796,-1.9737890692876197,1.9476335781966985,-0.4074253585833193,-0.2413352997166858,0.6472052744660214,0.08304445689265581,-0.25653959438813734,-0.26037488859180036,-0.1577305568315124,-0.9465482538043274,-0.08572245847111595,-0.708895104966518,-0.32137398312448434,-0.9299342536529883,-0.01111730362225923,-0.5189743694962594,-0.3285169603673236,-0.6986690364485959,-0.5518901512492085,undefined,1498668547444
903d185fccf839df,0.2244531049128827,-0.4835905731557332,2.2957976085636616,2.3551954922663962,0.00402051117579256,-1.9652477491260194,1.9383713925898671,-0.457316808569488,-0.3496859225444127,0.6309340414139143,0.17956320454799854,-0.2207649176565055,-0.025373217468805696,-0.15495305601750256,-0.9728640504976506,-0.027124829194614567,-0.68557045005577,-0.3490046167100722,-0.9456001133649122,0.058914825971280976,-0.5279525105520494,-0.33190417543291184,-0.689645535999152,-0.5422097871503858,undefined,1498668548906
903d185fccf839df,0.4184950356739075,-0.32861846751172524,1.2079882854300446,1.228494545573231,-0.11375072660041396,-1.874162850246028,1.9208332154829417,-0.5367025728270047,-0.2955853278429902,0.622271020155709,0.23433325814132341,-0.262753132200364,0.3445368204099822,-0.3132706801207112,-0.8118112401528791,1.910637944167952,-0.13156552106299413,-0.4179767065386247,-0.858650743823578,1.5461890833793208,-0.23476155778902802,-0.41688793123615675,-0.7888392058558419,-0.2629892145014612,undefined,1498668550416
903d185fccf839df,0.7483665457033539,-0.3309665275042108,0.6510044657611608,0.8173564094775636,-0.05901024762185626,-1.7984788817323096,1.9506657290200207,-0.23205607901078634,0.02731965498966079,1.150309485629551,0.3229099584437264,-0.28525598750124004,0.14435021167557935,-0.5021407613749299,-0.8560218148198523,1.5509699844445732,-0.35916615004535457,-0.4827057225419848,-0.8135423055146813,1.9809487868056246,-0.1664033604712204,-0.4238339797468442,-0.7877008895165097,-0.47286771127716526,undefined,1498668551914
903d185fccf839df,0.9243903725983934,-0.49180881235742496,1.3834413856685666,1.4624394327880554,0.19623960797222934,-1.7755125828430833,1.8602451043475645,-0.7282667886381468,0.15235801467625346,1.4654936620866574,0.3410936403558911,-0.20615239015227713,0.09647950089126561,-0.4938082848344495,-0.8623376469602697,1.9207409992927125,-0.30576153878333434,-0.500393633513174,-0.8293830853333614,1.664141167985907,-0.23667750458272832,-0.3908168892641341,-0.8554595372986071,-0.3874986875679917,undefined,1498668553418
903d185fccf839df,0.30345593192200004,-0.5129413230618026,1.5990890399648432,1.751166713843182,-0.09333361685276056,-1.700846489877424,1.790515792182467,-1.1667980894177625,0.05989347193480437,1.5993363865764625,0.25167586288419314,-0.15892890042035535,-0.6215811608734403,-0.6437934064956286,-0.89917978147273,0.9730760735969803,-0.4052778753693501,-0.5261370494953322,-0.8592594676972511,1.0846360686947825,-0.37748849968131615,-0.33786474422578516,-0.8350305355867306,-0.4947995543671855,undefined,1498668555007
903d185fccf839df,0.2646474905611395,-0.32274822984653434,1.9933807380366018,1.8755043402692249,0.2451686717589992,-1.6458461630885877,1.9114395307989926,-0.1797525742262971,-0.13770708244741955,1.7570813435724262,0.21732174769693705,-0.08546251924788273,-0.7608414104278075,-0.7048984114530708,-0.9486535213681548,1.0539003167420127,-0.5455775869305637,-0.5035031080338103,-0.8939216694654208,1.1277209205208838,-0.3773408563653696,-0.33057015485872415,-0.6651508128022569,-0.4726361750872517,undefined,1498668556424
903d185fccf839df,0.490567934213585,-0.2793091199855517,1.7356238619056152,1.7022947923724059,0.34877650353892853,-1.6962345944701345,1.8904352779645912,-0.32019668595793155,-0.20585606525270347,1.3101798500128823,0.22779861644886848,-0.07396600717054022,-0.8739903631907309,-0.6900850824122012,-0.9423377334011401,1.3004144208565105,-0.48460499270490026,-0.5592456774018844,-0.921356163995313,1.2469202871783063,-0.3821301463228807,-0.3662853546431333,-0.713287315894508,-0.443959936686028,undefined,1498668558866
903d185fccf839df,0.5155161735814686,-0.3896680565443419,1.5716547021376377,1.6499835634627782,0.2953423052295128,-1.7207871044127674,1.8762343287856853,-0.4646680858231083,-0.19290800941631636,1.2432005752355038,0.2115896251821224,-0.11808731872988909,-0.8826941287878788,-0.6660133871061583,-0.9181271674604754,1.1003743307453004,-0.4384351265443324,-0.5486823286214277,-0.9159336359206777,1.1204220590890572,-0.40336581621468065,-0.3655546101975238,-0.6757225903354958,-0.44763128129139657,undefined,1498668559442
903d185fccf839df,0.6153091310530028,-0.5000270515591168,1.65842417250537,1.7452567489112312,0.6081406334032179,-1.819805393624477,1.9319888485846195,-0.16907720421622213,-0.1916990860150273,1.0861985775963108,0.09476943679661212,-0.27301366299345764,-0.06454016265597147,-0.6002791536884186,-0.9097061192918672,0.872045607143541,-0.44617269316364794,-0.4874934260021134,-0.9055013903346653,0.8455598085190335,-0.425777162916772,-0.3922911625056416,-0.7060168955958998,-0.42701136519333394,undefined,1498668560975
903d185fccf839df,0.2008908788432149,-0.5851442262867179,2.0131589461254777,2.1468949168995928,0.7302524245788574,-1.8677830635857076,1.879597858414667,-0.5165236318325123,-0.22896396580900086,1.066891102770869,0.022573259024892333,-0.3005244062647023,0.8841702874331552,-0.5271383205041168,-0.8960218838081058,0.8599220201350488,-0.48202611488166086,-0.4544164615294418,-0.8810965137766009,0.9434169296802044,-0.3811410615726412,-0.4411337506389568,-0.7595692699974951,-0.473139999843779,undefined,1498668562426
903d185fccf839df,0.1302040626125726,-0.45013071826281414,2.218598681574265,2.2388773689861523,0.5452950196449109,-1.847998504565647,1.8209531814666207,-0.9415254520395845,-0.23173517472974153,0.9966191623344279,0.014207119869583514,-0.322846703368416,0.46203765597147956,-0.5021407743257045,-0.9233903253266933,0.8558807302498129,-0.4913020260987418,-0.42660217149202306,-0.8586857284590822,1.0061963939859957,-0.3536078505982572,-0.452635266724368,-0.7762490033185757,-0.5261873770699699,undefined,1498668564323
903d185fccf839df,0.10664183654290482,-0.4841775296978699,2.219236565317318,2.2941077330107493,0.6192080340941817,-1.8788446206009635,1.8218104994908129,-0.9257970093942975,-0.3129378178555885,1.0850978630050214,-0.024736201521405113,-0.34516442369871053,-0.22555982620320855,-0.5002890984825149,-0.9391798283742822,0.5265216532535002,-0.5381073689673159,-0.43527830454598004,-0.9050675873201469,0.7874152806543631,-0.40876595896763024,-0.47607711337079134,-0.7865497399832371,-0.5667087865786278,undefined,1498668565428
903d185fccf839df,0.17039858628246837,-0.43662930023604135,1.7088274078214625,1.5900210134851949,0.45511003102040204,-1.8818027542998232,1.8112413146565716,-1.0780432032273575,-0.3314256359700935,1.181150766329871,0.014409177189037158,-0.3072287200370901,0.9450966466131908,-0.44566492012391273,-0.9328640330450336,0.12644141650163704,-0.7724822080134122,-0.4324411466145451,-0.909979348818608,0.36645257317421476,-0.5047822821554017,-0.49927221965676283,-0.7674177069161323,-0.5278957923056316,undefined,1498668566936
903d185fccf839df,0.10664197456454376,-0.39260318999093347,1.12058067718231,1.2125871839613886,0.22370242271789204,-1.8370487516444336,1.8326689747525553,-0.980046715333943,-0.2071666834864599,0.8002617106073453,0.12281111069970986,-0.3056568481548574,1.0321343025846703,-0.4299257402106739,-0.946548268528795,0.6901908975450691,-0.5166842588740688,-0.3718285427225199,-0.900645603366037,0.8074640536502578,-0.3846550329307479,-0.47134305208370864,-0.7356952215546645,-0.46790975797022305,undefined,1498668568441
903d185fccf839df,0.12743217403778004,-0.40845253648422625,1.4089618181296644,1.3440994160324822,0.13682943088838184,-1.736786650169066,1.8034202702517534,-1.0631540304694447,-0.09904966200607283,0.8525033236695966,0.13721025694012978,-0.2658178415592877,-0.38657948975044565,-0.4604782750663313,-0.9518114337572466,0.93670505818901,-0.46090146242660684,-0.3752166685975978,-0.9176268638225122,0.9396905075515295,-0.36768537671826723,-0.44757789950147914,-0.7144967483382292,-0.4006407431761315,undefined,1498668569925
903d185fccf839df,0.3173159958933381,-0.4700891697429566,1.8779003999447101,1.640367294860161,0.19775162286742426,-1.6408010300140028,1.8664619738771677,-0.45678671660408665,-0.07737496214299044,1.363643785499633,0.1335530641079467,-0.20085883909549518,-0.6085255124777184,-0.43362907894627856,-0.9507587889319823,0.9973234172022939,-0.4464100736218633,-0.3767302418928811,-0.9124142405207228,0.8851030180271124,-0.37612990275383273,-0.4298140372581217,-0.6655903401860409,-0.40830743594480085,undefined,1498668571426
903d185fccf839df,0.7663848566017977,-0.4507177332609355,2.064837948927676,2.1456142878103885,0.44451578188768043,-1.628782156269594,1.8430225070607231,-0.456301275834456,-0.14220821474919954,1.6150435461264834,0.1581411199641068,-0.07996616876953606,-0.29954183377896615,-0.4308515781322687,-0.9244429848764253,1.0074263875328897,-0.3948101139788216,-0.35737043411752384,-0.9048716783773135,0.7956226498559525,-0.3754293064861414,-0.4094815238325459,-0.7097448940746501,-0.3931499134236239,undefined,1498668572934
903d185fccf839df,0.6846099339854292,-0.39260318999093347,1.4459666993352056,1.4724689101556345,0.5818504144267926,-1.7174865735826887,1.85058846786222,-0.4958832213134613,-0.3768518620239309,0.9082845067593496,0.10183807686590667,-0.08397866203316325,-0.7477857620320856,-0.3734498730581076,-0.9286534831929112,1.2963733005596039,-0.3534060445755144,-0.36579324983409833,-0.8806067381040705,1.3078365433006944,-0.27122474483108966,-0.3812316679223489,-0.6917608746096948,-0.35321212300047894,undefined,1498668574442
903d185fccf839df,0.2480153309825505,-0.40786557994208955,0.5208497519356632,0.4058753825119298,0.4935579847909488,-1.7017502356321708,1.864755239023795,-0.4527639155336516,-0.5284895681663976,-0.07353846402655771,0.13866855611587306,0.02550623393656172,-0.9044535427807487,-0.4419616072898572,-0.9012850416743237,0.8094068010406898,-0.4471303656629951,-0.4482101777221975,-0.8420473131608395,0.9101100940915348,-0.3665641370598464,-0.45124911489992425,-0.6808019805979912,-0.47075781930990074,undefined,1498668575926
903d185fccf839df,0.3547384239559829,-0.49122176813131124,0.3173244301268829,0.18803339051130338,-0.09959759848914057,-1.7400266231170967,1.8906351587406551,-0.5686440338431862,-0.46827822753067627,-0.7732839432650489,0.1089374705383219,-0.020173277897830636,-0.9827874331550802,-0.5086216009245444,-0.8876008135527961,0.473985874010688,-0.5702856400496079,-0.5334262675849605,-0.8344907572855699,0.8448668769661722,-0.41602617226691935,-0.43319315958432303,-0.6624652117508724,-0.4569324395347175,undefined,1498668577436
903d185fccf839df,-0.07908418695587413,-0.4677411682064557,0.31030618413160627,0.12892106064258932,-0.6527726778968369,-1.6910753323778183,1.8810205857548257,-0.7521861601618387,-0.2646044849623588,-0.6589165233075789,0.1500161122237633,0.03298312155833855,-0.9610280191622104,-0.5567649915366303,-0.8570744817318181,0.3709349322029599,-0.6055670911250818,-0.5662689129920786,-0.8329794470965862,0.8377989897658997,-0.43072891959562054,-0.40392532395748704,-0.5993761319432904,-0.4705831622654625,undefined,1498668578931
903d185fccf839df,-0.5198368298534002,-0.42371501411935936,0.4589628302859757,0.3744328551948746,-1.005222372837058,-1.7603888332955662,1.883571497209606,-0.9190069352782,-0.34793181200886913,-0.41213980857064886,0.13336123997805113,0.04592664965310704,-0.8739903631907309,-0.6354608522505009,-0.9044429540634155,0.4376149716616038,-0.6068109975654453,-0.6508137117828813,-0.8778150108028417,0.8797905492324659,-0.4819153535188809,-0.4103020523413321,-0.43430072641396295,-0.45598641968199,undefined,1498668580477
903d185fccf839df,-0.015327506227130057,-0.42547600065773883,0.6178276494247843,0.6411221367604032,-0.7837918891134591,-1.7439024784223414,1.903005766280146,-0.7006152376292232,-0.27331809559664394,-0.29537283842677886,0.10973797129533999,0.17236324128336605,-0.8870460115864528,-0.6947142590694007,-0.9581272143620275,0.3588111756061385,-0.7171739827272982,-0.665715127635678,-0.9078313297451717,0.556423194268107,-0.5627936738063277,-0.4058785904664757,-0.530597027676414,-0.544061226850199,undefined,1498668581935
903d185fccf839df,0.02902502283200322,-0.40551746149361934,0.6733347170961467,0.711326816420972,-0.7361896809868449,-1.7441470483966073,1.8495970295995015,-1.0304641738013163,-0.2091178629749934,-0.5467252823319815,0.1202540366247263,0.131364618912802,-0.8087121212121212,-0.689159257441381,-0.912864031680959,0.16685358047123555,-0.7392737909399774,-0.6537078666060527,-0.9027026676111326,0.4765206592183868,-0.5743391485763031,-0.3994667122905186,-0.5215514321379026,-0.5443012304484423,undefined,1498668586270
903d185fccf839df,0.05535927549810252,-0.43369421063143826,0.6758867603422565,0.7236666169869481,-0.7185599967310317,-1.7349116144873573,1.858990695951819,-0.9519037357257434,-0.22376204416251266,-0.5635381048788264,0.08475653940555983,0.1403583658922232,-0.8304715352049912,-0.673420051626593,-0.9160219219833494,0.20322445455559823,-0.7465458663683242,-0.6465706391536087,-0.9066208816653696,0.4986020302306832,-0.5685685712842934,-0.3996285759357293,-0.5243843948685027,-0.5458450972062071,undefined,1498668586438
903d185fccf839df,-0.187193327732932,-0.4102136399345751,1.0810242610045577,0.9266067300155194,-0.4574678548103848,-1.7057658454105389,1.9059064374055041,-0.5428376520199056,-0.15340316586216088,-0.37818636444076315,0.1276843580964462,0.0007535340990798605,-0.3343568961675579,-0.5743558472930588,-1.020232563321534,0.15877100070076386,-0.7560774619757815,-0.5625324777616105,-0.9752456029823847,0.37110290470866664,-0.5720290501922237,-0.3647300046745302,-0.5641231801979715,-0.540567860711232,undefined,1498668587938
903d185fccf839df,0.08585156805884907,-0.34916393398998913,0.7160815685369603,0.5860612939460251,-0.3794199826977082,-1.7615977076387173,1.8667907055952546,-0.8166792504435626,-0.07572837189190536,-0.42478312275078167,0.13713506387866192,0.025316276977347472,-0.4866727941176471,-0.5289899769211446,-0.959179859187292,0.995302772259676,-0.38694460175918016,-0.49126152882449803,-0.9732375183341831,1.120345062823133,-0.36731235429833237,-0.4184703123213003,-0.4687326124731271,-0.512614665343397,undefined,1498668589447
903d185fccf839df,0.20504891873786218,-0.3808627731165364,0.7990232281724775,0.6041223916883518,-0.15144779021622604,-1.7531402397899625,1.8573365558583164,-0.7247808952777477,-0.008576075845806006,-0.784517121379477,0.12071413442211022,-0.17500514160778452,-0.6128773952762924,-0.5549133286442153,-0.9360219564774761,1.607546827454849,-0.2328448228084509,-0.4461329731040261,-0.9651282133230533,1.3321198807573191,-0.29354136304322537,-0.45704993436711144,-0.6098863851766841,-0.5107619804748224,undefined,1498668590927
903d185fccf839df,0.5931331253140091,-0.25171935661786177,0.916416963356578,0.9041842586291815,0.15588882661843442,-1.7104056868917996,1.8468988465319525,-0.5732368322313062,0.07702709656209088,-0.7119183344332658,0.18880723344385908,-0.05495435692998816,-0.7564895276292335,-0.4465907580455075,-0.9360219307096579,1.1933223304871543,-0.276089001305377,-0.39205596692650624,-0.9639947301812457,1.2237764187857194,-0.2865768894810685,-0.45360520382563985,-0.7619390907584601,-0.4768451286010487,undefined,1498668592438
903d185fccf839df,0.13436196448558094,-0.36207829317665197,1.4000299209052296,1.4313296931489996,0.6126869129305951,-1.6378615321243484,1.7915835083634146,-0.7076107018029365,-0.09140803086037579,0.057948703991111614,0.25270547435172563,-0.02504108311302267,-0.8130640040106952,-0.22253897822920646,-0.9265482229913176,1.2155489443556853,-0.10656124461957395,-0.29371168373532325,-0.94299030324435,1.0897945452268265,-0.2516096530465047,-0.39009705322699734,-0.8662441041062808,-0.5180318917006338,undefined,1498668593930
903d185fccf839df,0.3727565278219682,-0.2781350899893089,1.5193378155923871,1.520637536052696,0.5151373583687563,-1.6662107023300476,1.800117235268251,-0.7540822291303484,0.031153922594334315,0.7132274147087674,0.2998668866848147,-0.02443986308772884,-0.9044535427807487,-0.19846723112006534,-0.9160219109399987,1.2600023982105197,-0.10616491538411782,-0.30468034197970933,-0.9432281952056489,1.0177914146700109,-0.2771216458591117,-0.4068716302719043,-0.7732035163357013,-0.4458548810901232,undefined,1498668595436
903d185fccf839df,0.35058045307215513,-0.3415327682424034,1.0912324339889967,0.9606053209528854,0.44125520056448453,-1.708043838458081,1.8382020846445122,-0.6193222824712075,-0.12173777323731018,0.22965311980562933,0.14937446530441195,0.04754513679202643,-0.9740836675579323,-0.2873473478238023,-1.0086536064449505,0.44165620501739655,-0.5288080903114597,-0.33057575003304834,-0.9746018946873045,0.40085269392008416,-0.44223895502253235,-0.3707702381961108,-0.7151824957279236,-0.492261931629933,undefined,1498668596931
903d185fccf839df,0.4476015219688967,-0.40962650802448436,1.331762382866369,1.218910105806576,0.4038975502971254,-1.7271342817013866,1.9313182432673701,0.050107743413492604,-0.21237154928132512,-0.9081328343930491,0.11852922904530383,-0.09046062056646613,-0.9305648395721926,-0.2549431630265044,-1.043390488118051,0.6740260771807842,-0.4951862957913314,-0.23990066124762038,-0.9826062469602805,0.5433191156720761,-0.384238267763643,-0.3337330041598315,-0.5319843305063097,-0.49084727261866723,undefined,1498668598437
903d185fccf839df,0.1939608813629556,-0.49356979889580443,1.0893180203489903,0.9904848331393407,0.07626724662985393,-1.7898374013482772,1.9101114867605382,-0.22025837824552122,-0.2837008322453134,-1.6946219937398586,0.15114801574934197,0.07202509354247505,-0.7434338792335116,-0.14754643034939147,-0.9391798136498145,0.7407061166394281,-0.33755352798898136,-0.1923465850313944,-0.9492944304681764,0.6607014670996056,-0.33646629620875823,-0.2886615428373911,-0.4120031904967051,-0.4615842567601656,undefined,1498668599960
903d185fccf839df,0.11357197204480306,-0.5422920437398796,1.1301512205606457,0.9676339517086158,-0.22219282914264052,-1.7857845242919443,1.88135455707872,-0.5072453491689743,-0.34469348996117655,-2.00504060003858,0.15434863585454686,0.0747070716438505,-0.2342635918003565,-0.2743856687245733,-1.0170746693380264,0.6720055170323309,-0.3445610441627156,-0.2502106931723844,-0.9874340475356734,0.6498147664517895,-0.3850685247356647,-0.37329113571771466,-0.3319306782552171,-0.3992776073508321,undefined,1498668601434
903d185fccf839df,0.006848879071370653,-0.5035490538638681,0.7390499577519483,0.7662697201438731,-0.24362821337662252,-1.7818923668414208,1.886669405264225,-0.6091191289960598,-0.22395151793161786,-1.2379785822012506,0.19640113355802694,0.09362477732834848,-0.2342635918003565,-0.36419157154680687,-0.9812851502018954,0.7649533471858555,-0.3168880150081175,-0.26230661399057004,-0.9649392996557142,1.077814555827374,-0.30426597423398755,-0.3485741485625877,-0.3985284118126334,-0.4352437348486371,undefined,1498668602952
903d185fccf839df,-0.22461561777393785,-0.43310725408930156,0.1973783975597232,0.14824837865687254,-0.31021782025677586,-1.7719814533800466,1.8523583289976993,-0.928287641892034,-0.20702064632266176,-1.0453268522554633,0.11236954601738267,-0.04544664113506105,-0.6650999888591801,-0.47436577913638056,-0.9728640725843519,1.0882507154720866,-0.24806647931597037,-0.30724518165540693,-0.9201037354172745,1.4414950432048543,-0.23089834249551922,-0.38390904997739606,-0.6440467018971254,-0.3069260012494065,undefined,1498668604496
903d185fccf839df,0.17178439254822572,-0.29691954070120097,0.078708132478669,0.09425070861900241,-0.06613823035413055,-1.7092946387759913,1.8060290350258095,-1.0304887182935527,-0.000645764196515985,-0.8169397303567024,0.08750114055546673,-0.08413062897527249,-0.504080325311943,-0.4919566089912599,-0.9097061045673995,1.2014046841398536,-0.21412865961835725,-0.3291318342625602,-0.8657175229497144,1.474909674427406,-0.21310339539161344,-0.41978816263957913,-0.8385905473117771,-0.20062331592447907,undefined,1498668605943
903d185fccf839df,0.16624040836618217,-0.29222347917221453,0.061482221772852105,0.06676659347238463,-0.09776675307054714,-1.6782551967603867,1.8795663015587445,-0.5202907991474303,-0.04016176202179366,-0.528228978615266,0.008312779827460518,0.006685617266020854,-0.6215811608734403,-0.5910208133247942,-0.9349692785221597,1.3630533400182476,-0.21577133757191444,-0.4704261414682788,-0.8855814686371091,1.2707878799490302,-0.31853363788914907,-0.47396900120491464,-0.7582344172846548,-0.22717120991535225,undefined,1498668607442
903d185fccf839df,0.20920688962168996,-0.43134623832292973,0.7958330470463656,0.5916360706341863,-0.12451985212988066,-1.6294250259947258,1.8473985099756867,-0.6617719502173722,-0.12758620824427153,-0.256490956324147,0.11078847163662423,-0.00747228431086899,-0.8174158868092692,-0.609537519953592,-0.9412850738514081,1.510557679151367,-0.21506873987856345,-0.450205052262073,-0.8836993264317611,1.3454241451214168,-0.2953804024833624,-0.4760498852760567,-0.7244907406045905,-0.2521717518916717,undefined,1498668608932
903d185fccf839df,0.002690701155084458,-0.36207829317665197,1.2775318450919602,1.1961901843691092,-0.2646624699358835,-1.6963580449781723,1.8567711394715778,-0.7955115761028918,-0.14419774711333505,0.35625842421590936,0.18446447737770963,-0.003711477612031867,-0.8565828319964349,-0.474365766185606,-0.8823376556865782,1.5913820636200071,-0.18822121233897737,-0.41095346728315757,-0.8774091930376681,1.4993931980694297,-0.24556581640113165,-0.4737520127341622,-0.651518294941956,-0.2851658810036117,undefined,1498668610430
903d185fccf839df,-0.023643551511014837,-0.3591431889580527,1.2902915530486103,1.2352810298531334,-0.3271480777561404,-1.7175285011330736,1.8499967565834103,-0.8831435997161263,-0.1342851213546123,-0.02900226494423772,0.1828617143173308,-0.044958091857768306,-0.7913045900178254,-0.4854757694416454,-0.9212850724873335,1.1367452048296631,-0.2643704583147017,-0.4560946902253208,-0.9287587881166556,1.0250902837215041,-0.3763206751271699,-0.49152913985560875,-0.6010299710458272,-0.2984265433975242,undefined,1498668611928
903d185fccf839df,0.10386987895729279,-0.36677441316162307,1.3732332126841276,1.3370677528234634,-0.17234833797135637,-1.708111386652265,1.9221007749910488,-0.3689827377842374,-0.10428241169861616,-0.26833879273161504,0.1841796811684427,-0.018137428712199557,-0.8043602384135473,-0.4086315716201899,-0.9812851354774278,0.4456974101084678,-0.4373740985907612,-0.4033539351692672,-0.9875110093172645,0.3780630032081468,-0.5019023766501962,-0.4689411384665412,-0.3910625299165859,-0.51736155542867,undefined,1498668613422
903d185fccf839df,-0.06799604606473839,-0.28283120997428,0.8979147768907568,0.8844321399154567,-0.21378941386600428,-1.7078714743110877,1.7967352925630558,-1.1921724058695542,-0.10006711580181431,-0.23614990160571359,0.17847645543501536,0.00874409911846965,-0.9436204879679144,-0.48825327025565524,-0.9876009308066763,0.4113470679078369,-0.5484123911656897,-0.42580422098177506,-0.9744759511005604,0.20449172178927913,-0.5435033799644104,-0.4745934362141068,-0.3780877366529054,-0.590207493426558,undefined,1498668614930
903d185fccf839df,-0.37430526101369754,-0.39025507154246325,0.5195737303126082,0.3967039628753004,-0.5562516947612939,-1.6772629429565278,1.838806931322857,-0.9731851529940162,-0.21366832068595165,-0.7151539412195315,0.13895183923168,0.031807979321717486,-0.9131573083778967,-0.5317674842105417,-0.9676009220803679,0.7528298449715279,-0.4386829490987863,-0.5062579383009357,-0.9521351335309017,0.5168337921700007,-0.506055450891865,-0.5114749120368395,-0.49681012097883614,-0.48788863940571275,undefined,1498668616444
903d185fccf839df,-0.4948884524638777,-0.38614596655561356,0.10486644868281952,-0.11173641484633694,-0.9227413607636192,-1.7681288949229481,1.8823644137534665,-0.90476740033244,-0.1536242700091387,-1.0062358768892097,-0.026636185404999364,-0.018122438744041583,-0.9218610739750446,-0.6224991990528209,-0.8623376469602697,2.0601629282436895,-0.2760530037725342,-0.5951218036554364,-0.8870717897636844,1.2120890033634095,-0.37106582444142444,-0.5230187847264336,-0.7147911267628927,-0.352289496730933,undefined,1498668617915
903d185fccf839df,-0.38955133828325134,-0.5634247005842189,0.27776750567523184,0.1311422595084147,-0.8122524005797136,-1.8279507445211578,1.9283939051547716,-0.658080046845274,-0.30019414235653313,-1.0053089306387388,-0.016263136358261508,-0.01674253623407452,-0.8783422459893049,-0.6280542006808406,-0.9202324571110042,2.0904720936179704,-0.3841509438093839,-0.5906317469203655,-0.8870438031318838,1.4382921705503324,-0.32983051009546316,-0.5125254870946315,-0.6797460871047217,-0.36102596365471123,undefined,1498668619426
903d185fccf839df,-0.3174786467760322,-0.4501306598068294,0.6803529630914232,0.5342015667959026,-0.7282285448273377,-1.7807067853307899,1.92057023094649,-0.5645617518519835,-0.377040388892842,-0.6288847340588514,-0.07424349785868198,0.038389684830898635,-0.8696384803921569,-0.5650974939786598,-0.9033903313248525,1.9005351434256854,-0.40881792071312845,-0.5550342717831784,-0.9160106007607993,1.524415675002514,-0.3108346627637313,-0.5243990142432048,-0.6777538684412747,-0.29261993865554115,undefined,1498668620912
903d185fccf839df,-0.34104083834029025,-0.3068988248972569,1.5129577074771128,1.3634172353277236,-0.9010385383920285,-1.7002129380763753,1.8830560588732967,-0.6946672718723244,-0.44726845316432334,-0.6808440943798477,0.039530171836387615,0.02257477770169744,-0.8739903631907309,-0.5021408002272536,-0.96233776421415,1.3084970288917037,-0.39718180928777236,-0.5001466497561855,-0.9656249871338628,0.9328843903159448,-0.42931193211574614,-0.4724678440934173,-0.6831411505729156,-0.302962355289272,undefined,1498668622407
903d185fccf839df,0.20227685763602093,-0.24643630931874633,2.1133267706037615,2.1252613897283985,-0.6298149934027077,-1.6697721111286947,1.8810074393563123,-0.5623599016199081,-0.4307094633557439,-0.5405107067818212,0.02839326610450499,-0.014486154182836768,-0.8783422459893049,-0.40122490709975517,-1.0097062291835135,0.30021357459435866,-0.5948541226930915,-0.3964573622895304,-0.988588520792024,0.350576774855571,-0.5066445340690556,-0.4571783373159051,-0.6317647820904538,-0.46560629677802196,undefined,1498668623940
903d185fccf839df,0.37137054902916217,-0.1883217075927596,2.4725272386991377,2.582845825308097,-0.4777101019408822,-1.683281698668381,1.8991899230256788,-0.4425472765437421,-0.3367373557089872,0.09259255097145143,0.03909617909568339,-0.010877155736458978,-0.9305648395721926,-0.2947539734919134,-0.9686535521811647,-0.126134650705436,-0.5793751268043237,-0.26038140033070944,-0.9591529370668193,0.15647936569719034,-0.4663353594666296,-0.4601852733583893,-0.6289070104304975,-0.4512077037283675,undefined,1498668625476
903d185fccf839df,0.303456069943639,-0.2898753899517367,2.2900558924653387,2.3160330636167945,-0.3264177911738641,-1.6691688366885138,1.908257488510895,-0.3458682717421718,-0.39894432127229384,-0.14896372733425145,0.0420321865603382,-0.0014464152026850282,-0.9871393159536542,-0.31049315340515227,-0.9781272525372712,0.03753459358613291,-0.5748280416495974,-0.25782922463775365,-0.9540872461389145,0.21556320387668676,-0.45175136068804883,-0.4594875636047094,-0.6753846177375541,-0.4462767620548809,undefined,1498668626936
903d185fccf839df,0.1842587192646259,-0.2270647266967635,1.7770944375864244,1.6963829023001376,-0.13902267122654585,-1.6695042465632601,1.8696545641859694,-0.573436874910171,-0.2036573649490478,0.18946164417132474,0.19505113821768538,0.00048106779080627914,-0.9740836675579323,-0.26512730245939986,-1.0391799456281623,0.42145015129731883,-0.47260268098726477,-0.2671069852703499,-0.9789399186726079,0.47956955308607785,-0.40559821337129626,-0.43638513797025025,-0.7188918015095863,-0.46699138696789494,undefined,1498668628443
903d185fccf839df,0.5058140804939583,-0.39436414730132063,0.3332745733465943,0.06983578944489963,0.1296602959174923,-1.7456657092901486,1.8489790289281098,-0.7888629258716408,-0.08657455496519208,-0.4089357250168949,0.2020446378853032,-0.10696262612688995,-0.8957497771836007,-0.4067799216785494,-0.9918114953832663,0.5447071750898461,-0.5090043797246357,-0.4117704171116645,-0.9489375942206539,0.561643267610956,-0.44836551595626345,-0.4565533727394901,-0.684140067007454,-0.4977227655859312,undefined,1498668629935
903d185fccf839df,0.3838449102509721,-0.4284110756483458,0.13612885137918962,-0.00928864934077708,0.1899139183112223,-1.8005332682367048,1.8948060301765632,-0.5610088232053692,-0.1074566568498756,-0.596642169419102,0.10688646950063542,0.04113307218684475,-0.5475991532976827,-0.4502940708795631,-0.9833904251279566,0.4214501230325973,-0.58964870732532,-0.4748845343043894,-0.9593628418580162,0.4687444480374589,-0.5087448040513494,-0.417169193825046,-0.6335562454876527,-0.4979842882641616,undefined,1498668631430
903d185fccf839df,0.12743217403778004,-0.42782411910620904,0.2318307272452558,0.1862200108634218,0.28723717870191295,-1.74500653454891,1.8657703371375114,-0.6141424773697334,-0.2089465778826033,-0.5351809386199434,0.034415845179754476,-0.009618760625906601,-0.5475991532976827,-0.5595424664490911,-1.0233904573050412,0.32648153487756865,-0.7060390737616493,-0.5487519899000826,-0.9899249119814394,0.38973502664691906,-0.5702778316100697,-0.4558472529979933,-0.6073224463953653,-0.4965339857698919,undefined,1498668633005
903d185fccf839df,0.01516482083902623,-0.3421197247845401,1.1269607852975843,1.0050474906118312,0.2576760922031227,-1.648629602694515,1.895118971027367,-0.1899215756935559,-0.21845564856817504,-0.38365608698244524,0.17875535680172008,0.06444491392559884,-0.5345435049019608,-0.5863916625691439,-1.014969401774199,0.2840487259653522,-0.665006133391741,-0.5569151540843108,-0.9766729520647885,0.46889843658446384,-0.5609404444777782,-0.44796743183795396,-0.5487487779886289,-0.4989549282537075,undefined,1498668634433
903d185fccf839df,0.47670780123142753,-0.08207196370479615,1.357283069464416,1.0877319804332821,0.4785511519075873,-1.6150815697558702,1.8376840125765326,-0.3013069489127857,-0.33881609134183843,-1.3944810781168153,0.24428131221258864,0.008777304930217823,-0.8826941287878788,-0.45584913726145554,-0.9749693622348807,0.8619425802835021,-0.345923437069057,-0.5083541439371223,-0.9400516436915777,0.8523813232442405,-0.45490653519212476,-0.4131254111308935,-0.4486739259036346,-0.45742089968311295,undefined,1498668636050
903d185fccf839df,0.7705428964964449,-0.2558285200606962,0.9489558959499018,0.7874413098396986,0.4168678290324814,-1.6038802575222622,1.8828798599461887,-0.047560491691033456,-0.3570656007959133,-1.323052283419215,0.27615372648868974,-0.04650657821029857,-0.8826941287878788,-0.4271482393966641,-0.977074600349773,0.9569111967032523,-0.26922783901037745,-0.4812491463709779,-0.9468315540244329,1.1368522050920535,-0.3817116571929629,-0.41044961315636525,-0.43981813107933937,-0.4120919286243103,undefined,1498668637422
903d185fccf839df,0.867563896382367,-0.24878428162725486,0.7735022874374808,0.6573599490982975,0.3517387964331714,-1.6494378492073303,1.881717484196453,-0.2208272885225621,-0.4213393795920319,-0.8186108552899616,0.2823855012240428,-0.05063401895157914,-0.8609347147950089,-0.3540073673600387,-0.9444430083272014,1.061982868247763,-0.17381741263295727,-0.35972629118639665,-0.9017511008547738,1.165062158051625,-0.2958394207150112,-0.44467762466546784,-0.5920558295774238,-0.46607589658685655,undefined,1498668638951
903d185fccf839df,0.69708419169101,-0.203584126771908,0.860910149822165,0.9690785976306184,0.23386470810825277,-1.6504324340240055,1.9338796772749811,0.017785621249081923,-0.11093572492079955,0.3981039010043993,0.2650845603695427,0.017681493207220702,-1.02630626114082,-0.24661064763370028,-0.9086534671043689,1.3590120783977333,-0.16868471153913073,-0.30915140336077446,-0.8605888627609009,1.438707930852513,-0.18851092090357727,-0.5063051221223325,-0.845615810317416,-0.4925327382530098,undefined,1498668640430
903d185fccf839df,0.9243905106200323,-0.15779684000647046,1.3024141396730557,1.308618129907798,0.3656656214009598,-1.700513405811127,2.03474326040551,0.6280845289871957,0.0921478258001386,0.8070743129933425,0.19015030157272986,0.0002551584966815573,-1.035010026737968,-0.35308151648766933,-0.8412849786842292,2.4420578410122573,-0.18758399691860345,-0.38152428306375646,-0.8190697863213534,2.259722240378498,-0.03356538326189893,-0.49911437063429026,-0.9050836838842967,-0.609609881408576,undefined,1498668641928
903d185fccf839df,1.165557100552851,-0.40845250725623394,1.2934819883116715,1.322647863215151,0.6918044996158145,-1.839468829962728,2.0033407494867865,0.3571695220684874,-0.07701768257975182,0.516880600635613,0.12668799736450406,-0.025670792495033967,-1.017602495543672,-0.516954103366574,-0.8370744288321068,2.1652346280529216,-0.13954151329860945,-0.4267414983679321,-0.8221623761966604,2.0252809068298463,-0.1001139231398298,-0.4918183399726244,-0.9032592385023299,-0.5465310678190902,undefined,1498668643429
903d185fccf839df,0.7968770111409053,-0.6332794999746602,1.1492912907695196,0.9356729986998267,1.1724551291652583,-1.8997891377574658,1.8728445063596757,-0.36553427250265946,-0.36694765837464,0.7368888507232552,-0.024274595494849036,-0.1411780325519972,-0.5475991532976827,-0.38733739007893137,-0.8012849317826772,1.3186000557517426,-0.3075224274403611,-0.42734312683797454,-0.7688816609242182,1.505999125673264,-0.20288325491545198,-0.4957564276772479,-0.8344492796650005,-0.5555557906477834,undefined,1498668644941
903d185fccf839df,1.0089374598328322,-0.7172227177759994,1.281359401687226,1.2725019444624972,1.1025226775753811,-1.970101883502913,1.8987217975824748,-0.27027924096630807,-0.3380452534755161,0.6392686415606935,-0.04007793157285184,-0.26620629486218783,0.19222092245989306,-0.4234449006610594,-0.8191797023940934,1.2357549698110415,-0.3350482556482413,-0.4874110959736475,-0.7675802541317415,1.469042855202096,-0.25569489021701297,-0.45397792501463496,-0.6975449194450632,-0.5544433044146604,undefined,1498668646433
903d185fccf839df,0.5446224528439993,-0.764183961467699,1.2979476827869396,1.3780085250596175,0.5319339277973905,-1.9910417437081318,1.8493918981204454,-0.8596555942552745,-0.3760080194767114,0.5503907474229772,-0.03302581158354995,-0.2710477235998649,0.1878690396613191,-0.41881574990540904,-0.8202323104081888,0.9144784725852004,-0.4186026804944223,-0.4896022946964184,-0.7855060838852903,1.3081906947971518,-0.3199094530029697,-0.4208867506148904,-0.48984954278978,-0.5144015243314365,undefined,1498668647925
903d185fccf839df,0.5169022558905038,-0.7724022445113792,1.5257179237076617,1.6298815751038278,-0.05975080293275118,-1.9982064846775478,1.9027532993862666,-0.7893691930204881,-0.39085630819865474,0.34988272764000955,0.07619907355205717,-0.26101423057228584,0.40111129679144386,-0.5067699639336785,-0.8528639245174618,0.2557603185925751,-0.6777113243002585,-0.5092914176247866,-0.8109254987545201,0.48103240473035963,-0.5169603146804078,-0.4195406053466959,-0.4742135723508279,-0.4573418968435287,undefined,1498668649439
903d185fccf839df,0.41017902489543245,-0.6913940432446622,1.6163157130815082,1.6985144838772448,-0.24612763431807463,-1.969796752810654,1.9467157642176247,-0.4983860163756421,-0.42045162610264397,0.23255114352647982,0.05324310422162132,-0.3271230826941922,0.5925941399286988,-0.4854758082939691,-0.9097060972051657,0.3608317922840349,-0.6925473776333898,-0.5659206003036155,-0.8143539362737209,0.6406680856968417,-0.506356537862141,-0.4335738659701296,-0.4398791532557011,-0.5177377113330868,undefined,1498668650971
903d185fccf839df,-0.10680434940395997,-0.6027547346863442,1.5563426967979284,1.6066246577937608,-0.5194906121174352,-1.9332160506228273,1.9493140110872285,-0.5224198956978496,-0.3163576015639619,0.09564934630782888,-0.004948561523061986,-0.33920283074818663,0.42287071078431376,-0.41140908538497434,-0.9223376878636628,0.7689947501299774,-0.49885434045594085,-0.534838512895539,-0.8224002697116929,1.2503233380754641,-0.3701473199474441,-0.43302549481985947,-0.25123876042617926,-0.4962067410675869,undefined,1498668652440
903d185fccf839df,-0.016713416009116605,-0.5657727313487121,1.3215547181558287,1.334136991053759,-0.4745935419538453,-1.8926826301314819,1.9134224188471696,-0.7088368995682378,-0.31141776153536743,-0.3602520444698323,-0.014410552159190607,-0.1382376380982102,-0.20380041221033868,-0.4141865991497587,-0.9518114116705453,0.8821486622683014,-0.4580126565608378,-0.5430206760602895,-0.8631706861884919,1.158163644327645,-0.39485549646325224,-0.4828909824304471,-0.26574234990240186,-0.5026956066918274,undefined,1498668653934
903d185fccf839df,-0.00008125643052757771,-0.564011686354348,1.3036899071591612,1.271820834194312,-0.3801605570135534,-1.8166422863199412,1.9625945290538584,-0.24892861590904822,-0.36010052398422343,-0.3590710737935141,-0.07923371461276603,-0.15600450243863212,-0.6868594028520499,-0.3845599022156961,-0.9328640256827998,0.9387257031316278,-0.4873375155577648,-0.5240788410616668,-0.8518848296999931,1.2173860624985058,-0.36869125405527814,-0.4752373125137519,-0.31283128742056066,-0.4765535766620574,undefined,1498668655439
903d185fccf839df,-0.03611774020577608,-0.5728169113261687,0.8341139498749617,0.9651508736821359,-0.4366187478216457,-1.8181539637406863,2.0224804664278535,0.08413497488406732,-0.2143642389317322,-0.2638990988740233,-0.06161415520575669,-0.06634057538968381,-0.8130640040106952,-0.3104932052082504,-0.8812850255857814,1.797484088559071,-0.11369089993966372,-0.450629359211625,-0.7653342786722485,1.8344633644244794,-0.1790799760273381,-0.4804462874162725,-0.25547868397254636,-0.29230490294507405,undefined,1498668656929
903d185fccf839df,0.09139575927335102,-0.664978382943196,1.0893182744859398,1.031826643442308,-0.16432548982819092,-1.8157525174488272,1.954620954476866,-0.2719875643438337,-0.2720180245979859,0.16458168820415137,0.014190558204552936,-0.029517687828317835,-0.865286597593583,-0.33456480985887155,-0.8602323573097409,1.8015252088559777,-0.1346931959312456,-0.4105988218115804,-0.7350590767671028,2.068150174052027,-0.10610473439184598,-0.506956657543641,-0.33633169325859874,-0.3980904568266115,undefined,1498668658428
903d185fccf839df,0.22583911821109845,-0.6497159345360553,1.0395536853237484,1.0553303109271042,-0.11811186371113268,-1.914442383644959,1.9388394918450262,-0.5034660070647078,-0.15798041989996062,0.3973772268264106,0.08445699564536614,-0.12224592863059262,-0.7260263480392157,-0.34474898814409066,-0.8360217840068425,1.7489894578778868,-0.05154493933034761,-0.3988132142259139,-0.737067160968759,1.8228683352861343,-0.15755027905934346,-0.5175573037256096,-0.32118877058935724,-0.3404559564764995,undefined,1498668659938
903d185fccf839df,0.43928530415796324,-0.7653580499199264,1.3394185126046982,1.4328116789770766,0.1333117279546461,-1.9657625110688213,1.9115000262301138,-0.6461501071413602,-0.2377631666062858,0.6340304926781638,0.08455690022745316,-0.2133388900734069,0.10518326648841357,-0.359562407840382,-0.7970744040172562,1.1246216460858924,-0.38883785106825114,-0.4061594293069385,-0.794706888493695,1.1082264859203477,-0.32240716889392146,-0.4956903332184621,-0.4106472053313582,-0.22599519361413603,undefined,1498668661430
903d185fccf839df,0.4739356366133571,-0.7829684706355756,1.877262262064708,1.9175348241885897,0.07696667483668027,-1.9934548370853709,1.951604570427825,-0.428014867951595,-0.13116857556215764,0.7509936879988398,0.1896249986385241,-0.33038672111825623,0.38805564839572193,-0.3364164986528357,-0.8423376087850261,0.847798348332392,-0.4045701150075931,-0.38088465193757715,-0.783742886070156,1.093567164684262,-0.3105965068919567,-0.5005437509299299,-0.4475874192418667,-0.24577690567239802,undefined,1498668662932
903d185fccf839df,0.410178955884613,-0.7324851369551478,2.016986756857693,2.104837567317112,0.2611115117111109,-2.004623538479472,1.8975305023748126,-0.6983642065034809,-0.15124757163019592,0.5365482881765513,0.20102417100230438,-0.3499326299691854,0.553427194741533,-0.3558590691047773,-0.9139166396950544,0.4800476675149341,-0.4581485117719674,-0.4149558893759524,-0.813766201756075,0.9219976879988027,-0.37168941248136717,-0.465132420901261,-0.4408521902831751,-0.2088138106933466,undefined,1498668664432
903d185fccf839df,0.5862029898121108,-0.6315184695942921,2.147140962409292,2.2961179295122114,0.2553412263841106,-1.9869213208409866,1.8318589853342953,-1.1121673601181965,-0.1541747942404208,0.8710366309287197,0.19042641819960582,-0.3347224028868961,0.6883355614973262,-0.35030404157520856,-0.9560219320737325,-0.26353604777268114,-0.6631248463365385,-0.4558793731522357,-0.9126171467637977,0.2910771822838484,-0.5486373699624253,-0.45403322395145046,-0.5100007213717326,-0.5529018799796507,undefined,1498668665933
903d185fccf839df,0.41849517369554645,-0.4237149702773708,1.6188675021906687,1.5879208280030164,0.01521134702498768,-1.87765903805109,1.838349348662748,-0.9807255779776878,-0.4671560497893274,0.4499424402557832,0.10494232734758033,-0.34896275767671975,0.557779077540107,-0.2993831630998874,-0.966548255168402,0.45984155726541326,-0.5248844026307726,-0.49822777029128873,-0.9146182358795885,0.9302358572414652,-0.4227415425446976,-0.41020158817254143,-0.538886554143322,-0.5454867997140558,undefined,1498668667434
903d185fccf839df,-0.26481014144383364,-0.4689151689747062,0.3600712815676964,0.38145903201681375,-0.37779484348987086,-1.8384672582909614,1.891261036252176,-0.780557753960149,-0.43066959468640253,-0.01625143651693418,0.01447795067273812,-0.23968934401266506,0.2923142268270945,-0.3669690205577186,-0.9718114498457889,0.9286225914774244,-0.5079936010374176,-0.5071572202673782,-0.9351258891524842,1.1989079282725947,-0.37512045212150447,-0.4050241846380513,-0.610329385216222,-0.5365655591434733,undefined,1498668668939
903d185fccf839df,-0.4643961944085409,-0.5188115314990012,0.17632365957389337,0.1546682095819896,-0.7519782152621128,-1.8001419562352043,1.896162994098499,-0.8371678553778397,-0.24311099885235188,-0.5832305759333445,0.025218648351275436,-0.13034382486714663,-0.5432472704991087,-0.46973659600379386,-0.9633903943149468,0.8477982635382274,-0.5382728941772529,-0.5608795809677843,-0.930906811618844,1.231290857767216,-0.39864229131114204,-0.39076181511282093,-0.5500419031245929,-0.5522234883744834,undefined,1498668670495
903d185fccf839df,-0.27728419211695593,-0.6309314545961708,0.37346938154129805,0.40184542150274855,-0.5929922008857406,-1.8671844487900522,1.92771015415918,-0.7122678494670615,-0.24470418453881143,-0.562178764281408,0.07332679764424001,-0.08039676500394681,-0.9262129567736186,-0.5058441001105346,-0.9423377554878415,1.0539003167420127,-0.5082007349608009,-0.5995675334832585,-0.8624710043423085,1.3585590111981858,-0.3590886443611558,-0.39100017859499003,-0.5749585246621027,-0.5434372063042577,undefined,1498668671951
903d185fccf839df,-0.02918763920928758,-0.6685004437039319,0.5942213764667434,0.6121764676971249,-0.694882318481522,-1.916485126739377,1.937708678450702,-0.7047914497447137,-0.25353999159806556,-0.6640637689573501,0.20802822259725975,0.012729071723981456,-0.9175091911764707,-0.5419516624957608,-0.8297060328509968,1.0518796717993948,-0.5291391899452327,-0.6237277132526255,-0.8096100975450721,1.3794700992526552,-0.34772195304317527,-0.3832832179983325,-0.5134992164456976,-0.549535928192141,undefined,1498668673424
903d185fccf839df,0.027639044039197203,-0.6667393987095678,0.2509713057280286,0.12107299185891986,-0.6849257627880343,-1.8990251497072799,1.9234603875718415,-0.7508023022055397,-0.3452334521405187,-0.6698721271361586,0.21500535513348737,-0.021509104262200294,-0.8826941287878788,-0.6632358733413739,-0.7781269959428093,0.9589317003222625,-0.6280614617647091,-0.6850179408779185,-0.7784742891989123,1.2649826537650783,-0.3921067152641614,-0.38135833274340275,-0.5271558187608438,-0.46791283796674954,undefined,1498668674931
903d185fccf839df,0.02902502283200322,-0.6109729154320513,0.4423745491862621,0.33173630385128267,-0.5599751163970393,-1.873792501046846,1.9593388260807338,-0.4545280733065657,-0.336385986306659,-0.5914596154784404,0.1939687608613677,-0.03380924369302244,-0.6259330436720143,-0.5965758343789757,-0.6939163890987516,0.5305629431387361,-0.568781311537874,-0.6376348552317053,-0.7245568642590335,0.9800960237580886,-0.4213478298751506,-0.37583298866273945,-0.591901828007458,-0.39030571643487577,undefined,1498668676433
903d185fccf839df,-0.03888962878056864,-0.5692948505654328,0.3562434708354812,0.34335416242677674,-0.43562103699738014,-1.8664111428465895,1.9656871737370187,-0.3600262301648495,-0.3860570533723247,-0.5893597394742398,0.1898768276869085,0.019371519816205773,-0.6085255124777184,-0.5169541163173486,-0.6633900351910722,1.0235911513677316,-0.5186187093514738,-0.5905304207627604,-0.6763628320109667,1.0905798674658282,-0.3646300643082828,-0.3832192908561096,-0.5158524749856158,-0.4589634626123435,undefined,1498668677941
903d185fccf839df,-0.34797093933677875,-0.5728169113261687,0.9291771795871269,0.920179685808333,-0.5958516265949384,-1.9061433050764383,1.9825652775072213,-0.3395173937145462,-0.3410767934573222,-0.4769394529417713,0.21439876614726933,-0.021506276300652053,-0.5911179812834225,-0.5447291503589962,-0.7339164139136024,0.9953026874655113,-0.5209643994026938,-0.5657369465868975,-0.7232484614631323,1.1636916868217413,-0.36064098694436175,-0.40890208582810894,-0.47613430187914696,-0.3676339448426752,undefined,1498668679425
903d185fccf839df,-0.3576731014351085,-0.6919810728567798,0.5916693332206338,0.5708292275933295,-0.5885590628994933,-1.92632150388119,1.9470629024649129,-0.6103059027272911,-0.3107942342816597,-0.5700095344292513,0.1839982577835802,0.07860440224357455,-0.6955631684491979,-0.6206475232096313,-0.770758570512764,0.4760064341591413,-0.6999260556009652,-0.5841658125773749,-0.8097010576585537,1.112923015214354,-0.4089130685729889,-0.4153002515354193,-0.5446321182722706,-0.5016023869282998,undefined,1498668680941
903d185fccf839df,-0.35074296593321025,-0.7195708362244696,0.3594333978246437,0.3580043553596077,-0.6561669479949465,-1.9387014093985737,1.9281467161994508,-0.791728806405732,-0.22689097950125306,-0.5971683792512599,0.06275626811468958,0.0501045779187541,-0.8826941287878788,-0.5688008456650391,-0.8591797345711779,0.775056515369502,-0.6763793860428242,-0.5561488690620462,-0.8734909820970155,0.6658291535392236,-0.5046825843893648,-0.3990741382486024,-0.5131208168965703,-0.47811919665698177,undefined,1498668682432
903d185fccf839df,-0.14422677746660476,-0.7424644065372076,0.21269065703638187,0.15836010755503893,-0.4375547408067279,-1.9657508642987478,1.9355443601515783,-0.7177674704547492,-0.22624969649040474,-0.3560240665926642,0.034382589023554434,-0.009391651230704581,-0.8696384803921569,-0.5928725150695329,-0.9644430317779774,0.5669338172230988,-0.714880099447282,-0.6089022878849115,-0.9603074108675881,0.2959430931988446,-0.6283971919173564,-0.4215087748847026,-0.5087094004226722,-0.4966815895129747,undefined,1498668683945
903d185fccf839df,-0.05274996879518457,-0.6767186682916275,0.01745858629813541,-0.050414004316101844,-0.22428081820951368,-1.9865649459604018,1.9120128483807424,-0.8261246238384439,-0.2750459784330012,-0.1694521278316788,0.02179416175400083,-0.020074722899355194,-0.8783422459893049,-0.6706425637633577,-0.9749693622348807,0.3870997243025233,-0.7129055824408653,-0.6503894026518828,-0.9757983491942898,0.15506271834168317,-0.6770106565009784,-0.42236209341054315,-0.6185375905489194,-0.5082342666277884,undefined,1498668685506
903d185fccf839df,-0.17471900101653184,-0.7336591669513907,-0.027201916371836322,-0.01442146205635865,-0.08830390679385347,-2.0035614055678255,1.922913393689012,-0.7357011705624404,-0.219694761394644,-0.24976644517266564,0.021906793347338333,-0.03501747207836512,-0.9349167223707665,-0.5854658764506472,-0.9233903179644596,1.3933624488630858,-0.48007555292710713,-0.6147159329989202,-0.9179697069559974,1.178874562041854,-0.42922272988677895,-0.38290108865028327,-0.28985613942253174,-0.10624017995165463,undefined,1498668686928
903d185fccf839df,-0.2661961547420494,-0.7254409715916874,-0.06484417304653145,-0.0702799086022973,0.13125458197724102,-1.9898468451563665,1.912754452957491,-0.7197159291044966,-0.14947030371081133,-0.2776159975452049,0.04332282963668256,0.04613908485664655,-0.9479723707664884,-0.5975017176282814,-0.9054955841642123,1.282228983814329,-0.3850068120083931,-0.6150452468784978,-0.8974620537320381,0.9885497751276068,-0.46476234778530773,-0.3672034448246671,-0.2249438503908891,-0.09479464155299819,undefined,1498668688433
903d185fccf839df,-0.285600202895431,-0.6767186975196199,0.006613037844542403,0.04080461332229239,-0.011881172408628342,-1.9371082118701648,1.8963076463830222,-0.8284844989335429,-0.19272600513981086,-0.6435197454855813,0.014325296628672789,0.008871150471843774,-0.8043602384135473,-0.6197216982388111,-0.8907587038551865,1.1104773858700607,-0.4253673332187936,-0.6277301336290539,-0.8887510247472277,0.8883982873854261,-0.4931315177693336,-0.3597587729635917,-0.19351642143327047,-0.057567772749079586,undefined,1498668689990
903d185fccf839df,0.14129230701993756,-0.6244743188448278,0.13740512713919395,0.14678755136909577,-0.29858469059862497,-1.9010352832669073,1.8989058922051045,-0.825020049457831,-0.2582040509374823,-0.6793795855185071,-0.016908014561738356,0.029687345751519326,-0.5780623328877006,-0.6160183595032065,-0.8118112696018143,1.0963330973895076,-0.4243515788129881,-0.6239493663311643,-0.8555091760519201,0.9927227561456053,-0.45901201209257564,-0.3716803654331416,-0.18669998631297283,-0.15123137860413957,undefined,1498668691430
903d185fccf839df,-0.016713485019936074,-0.6191911546337431,0.03532339729480272,0.021338045208783903,-0.8037975603748115,-1.869210888041249,1.9015725275825461,-0.9013066605508225,-0.21156869296569025,-0.6566688040261728,-0.02478902647785972,0.08046668534210209,-0.843527183600713,-0.6706425637633577,-0.8970744918222012,1.156951371608627,-0.4140044690133378,-0.6622636756458256,-0.879109419707839,1.1131231994073312,-0.4580602930112553,-0.3819237018415109,-0.1391763582528985,-0.17605964528205334,undefined,1498668692937
903d185fccf839df,-0.48380041508897115,-0.6602822045022402,-0.048894029826820035,-0.049454302179045666,-1.2285762792741646,-1.8833027853917421,1.9420084254453944,-0.755898849477022,-0.2890012121663792,-0.6582761547360858,-0.04538410675150975,0.014540784025094972,-0.9392686051693405,-0.7548934196298607,-0.9770746077120068,0.5366247649077037,-0.7709115081061474,-0.7485816964294849,-0.9320542880031472,0.4632780040908054,-0.6408209092755043,-0.403250914314306,-0.5622919743460666,-0.43205101937288193,undefined,1498668694430
903d185fccf839df,-0.4824144017907554,-0.7183967770002345,-0.10503948951513405,-0.09874721696640548,-1.1726323716155522,-1.9017433713077845,1.943688866192338,-0.7596514787377039,-0.3635239761076241,-0.6850585249164587,-0.03238340217890561,-0.04117030424531193,-0.8391753008021391,-0.815072631993419,-1.0160220465994634,0.3305227541010006,-0.8627723523555915,-0.7367454243144094,-0.9674441576742969,0.07673082457939878,-0.7252548201334753,-0.43447743981254267,-0.6253750739889604,-0.5821048111736409,undefined,1498668695924
903d185fccf839df,-0.530924832722897,-0.7025473720509571,-0.00040520815073420496,-0.02310410178166262,-1.0115274980317923,-1.8850380669795106,1.919778662722737,-0.8726486654820794,-0.3092436689650903,-0.6899747656969751,-0.030843260396135063,-0.04006914255734644,-0.8826941287878788,-0.8178501328074288,-1.0297062673587571,0.40528521787414773,-0.8701878677769338,-0.7435533382305491,-0.9983840548815986,0.40730464882205225,-0.6694022416847387,-0.43581986917474896,-0.6245556890724901,-0.5877475860673717,undefined,1498668697452
903d185fccf839df,-0.5032046357694014,-0.6461938883893154,-0.044427827077653206,-0.06988516064087066,-0.8926248414354001,-1.9363931331823654,1.914876694401196,-0.9268881215678332,-0.30340885139218826,-0.7919336702193541,0.011816890825788125,-0.0912874523581766,-0.5563029188948306,-0.8076659933745333,-1.1086537089743633,0.15877100070076386,-0.916860715141088,-0.7873836417096856,-1.0473197506852632,0.5290447567299064,-0.6817387112591277,-0.45152673723394426,-0.6126482751283274,-0.5535386966979162,undefined,1498668698936
903d185fccf839df,-0.4325178195387591,-0.6420847834024657,-0.07186241904180805,-0.13676763685010057,-0.8449197784229443,-1.939852053391438,1.934381965022689,-0.7902811517401942,-0.29680044975767617,-0.8026692550469047,0.009873954576030861,-0.11557836324506546,-0.5563029188948306,-0.8159984828657882,-1.1044431812089421,0.1749359623886565,-0.9010539423115742,-0.8064964657391279,-1.043723389882417,0.4765360572734261,-0.6983392054462919,-0.4528840410757155,-0.6197681952574252,-0.5576937533208144,undefined,1498668700885
903d185fccf839df,-0.39093738608687684,-0.6890460270941652,-0.08207059202624718,-0.18112584313248653,-0.9276887868706415,-1.9358201411819316,1.9349447482015183,-0.8028026216875125,-0.24457523672799103,-0.7584503768700115,0.02462354279433381,-0.003433829584797413,-0.5563029188948306,-0.8335893127206676,-1.0633905189310608,0.506315627798144,-0.8189041120786964,-0.8249696621637104,-1.028799191829802,0.7150733744163936,-0.6426433045850395,-0.4739545250246696,-0.634534939409668,-0.5475210100738633,undefined,1498668701955
903d185fccf839df,-0.11789252480050547,-0.7988178901988493,-0.38959205731942514,-0.3934587063861948,-0.7766741866848184,-1.9586164060091824,1.9596018085221418,-0.6326721620641863,-0.24840669436811044,-0.7580620441594607,0.06867826721857105,-0.04178954933336372,-0.44315396613190733,-0.8076659804237587,-1.0181273215255247,1.3650739284314226,-0.4160259970600616,-0.7996442202483298,-0.988392609292259,1.3478416908924402,-0.4768152307064724,-0.4607779350746462,-0.5122822707869946,-0.4338049061490233,undefined,1498668703429
903d185fccf839df,0.01655090314806145,-0.7788593802627222,-0.2670939815061557,-0.354183630775,-0.5912024955425949,-1.9243300041279383,1.9583552785378084,-0.5317715849406452,-0.17491610464692278,-0.7467331112457294,0.03775189888146547,0.00430536442311749,-0.8043602384135473,-0.7882234488241406,-0.9697061749197277,1.6742270647665436,-0.2637468397876873,-0.8012654535086156,-0.9655620146492628,1.8286273555389092,-0.36555105765681944,-0.45641487802928327,-0.46935758144469214,-0.4299287783072461,undefined,1498668704933
903d185fccf839df,-0.14284083317920848,-0.7864906044662925,-0.22945172483146056,-0.23531493893564076,-0.4562952882167467,-1.8626843588005486,1.9121022606509843,-0.7478299773832026,-0.27993295816869884,-0.8071526550795259,0.045322661098418815,0.029236632588869445,-0.9044535427807487,-0.79563012629535,-0.9654956471543067,2.0076272903244847,-0.1772232715447493,-0.8327401831201737,-0.962119583930386,1.632435763682863,-0.4119218884745648,-0.4649414669501819,-0.45058827004020663,-0.4399808274369895,undefined,1498668706428
903d185fccf839df,0.056745288796318266,-0.6861109228755659,-0.11652292171177979,-0.07742875081307879,-0.41651021047953557,-1.7900889597799887,1.8950243138155023,-0.7610479964897049,-0.29137198589390617,-0.745568338566314,0.04729875634077991,-0.06869037429184305,-0.8913978943850268,-0.7743359447540914,-0.9349693153333286,2.2036262318740665,-0.09695952726278922,-0.8179084297585616,-0.9465866638881526,1.4883833076232995,-0.43747673482950467,-0.45472751246269044,-0.42578183261323743,-0.4054586174258612,undefined,1498668707934
903d185fccf839df,-0.16501704595066052,-0.7001992243744946,-0.2562479247786638,-0.2646613051161009,-0.6066413226182474,-1.7697686762689557,1.9089254633045092,-0.7412202057022415,-0.2676313551121702,-0.7466801662143775,0.058588557224192345,0.07229382504351047,-0.8565828319964349,-0.7447092607708033,-0.9486535213681548,2.912859661490494,0.06417183273311028,-0.780366739904742,-0.9614688807880056,2.026712965406531,-0.30642949116550844,-0.44307873267001413,-0.409489128332507,-0.4370359093309825,undefined,1498668709439
903d185fccf839df,0.4559174637365523,-0.6831758186569666,-0.3551397276338925,-0.5028732798163504,0.35398106153116704,-1.8502392325337613,1.8635665607874545,-0.7452344644912232,-0.5893300832339605,-1.0475548450539605,0.09429169474369231,0.008467064465015139,-0.6128773952762924,-0.7752617826756862,-0.9728640578598844,2.1187606423143555,-0.20862766213851225,-0.8152042635557651,-0.9828231471187278,1.4361055948644719,-0.4596945915356345,-0.4736449946332477,-0.42400285764930346,-0.5445849716710985,undefined,1498668710981
903d185fccf839df,0.6458015616353883,-0.9009586167839401,-0.4584977332382881,-0.5244959946077812,0.3555753428856904,-1.9088848172991475,1.880110659091099,-0.7162707212801667,-0.4582512791492655,-1.1023120469904166,0.0954786543801636,-0.01804924456834388,-0.4083389037433155,-0.8104434747623813,-0.9960220084242198,1.7247422273314594,-0.3857463316124558,-0.8488955242516903,-0.9917021009837368,0.8865812689380413,-0.5955462667293588,-0.4776309594866129,-0.41310592870931195,-0.5956933219249334,undefined,1498668712430
903d185fccf839df,0.8675639653931865,-0.8293427577851384,-0.47955196295021907,-0.5504212734307751,0.1757916468769565,-1.921763182501704,1.8621517139537516,-0.890955701629952,-0.4603041448052371,-1.1076495249776244,0.1016405424371757,-0.06356772588531731,-0.1646334670231729,-0.7882234812010771,-1.024443087405838,1.1993840957266788,-0.46732551450262294,-0.8401370636441572,-1.0186748069989664,0.7881082104571242,-0.6284016354934046,-0.469121006591444,-0.39933103960843935,-0.5503284021129762,undefined,1498668713930
903d185fccf839df,-0.47409828749605115,-0.7806204252570863,-0.37810811684888057,-0.3964458321189419,-0.880683152913233,-1.8406986694802434,1.9166044820857027,-0.8388169387529567,-0.2981740240151944,-0.6652488807967777,0.06866826359165108,-0.10769851797249738,-0.7651932932263815,-0.8021109917465136,-1.0065483167944218,1.3974035691599924,-0.5033479530838805,-0.8250773236014658,-0.992604689464487,1.1063632836334363,-0.5485968108330107,-0.4952755544938682,-0.44902131993040745,-0.5025096289152666,undefined,1498668715427
903d185fccf839df,-0.5544871278033843,-0.6978512812939783,-0.10057328676596722,-0.3263363997122729,-1.0711125455188242,-1.685282513091174,1.8548908323519953,-0.9642571683190793,-0.32140601159375937,-0.6463128053463049,-0.04362789713170192,-0.05982797054394095,-0.8391753008021391,-0.8409960031426514,-1.003390441216499,0.23959546996356856,-0.8492659520155615,-0.8224554847806088,-0.9908554873570237,0.5731767111526004,-0.672351027379826,-0.49310050518787996,-0.4391701501789406,-0.5074226817079065,undefined,1498668716927
