UUID,iqrAccX,iqrAccY,iqrAccZ,iqrAccXYZ,meanAccX,meanAccY,meanAccZ,meanAccXYZ, covarianceAccXY, covarianceAccXZ, covarianceAccYZ,pressureDerivative, pressureIQR, iqrGyroX, iqrGyroY, iqrGyroZ, iqrGyroMagnitude, meanGyroX, meanGyroY, meanGyroZ, meanGyroMagnitude, covarianceGyroXY, covarianceGyroXZ, covarianceGyroYZ, class, timestamp 
903d185fccf839df,0.18910976580838101,-0.5208660255364413,2.14139899217402,2.1356534545167563,0.43973182501729263,-1.8687523404966406,1.992267608584823,0.15520687613423678,-0.6248632714162744,0.7519151311535125,-0.19773487646164803,3.921238686576472,1.967789104278075,-0.19846726997238898,-0.9749693254237117,0.34466705671391457,-0.6050396785835328,-0.3214778631667852,-0.9854896758310125,0.2665009496803355,-0.488933855116335,-0.4927213671074981,-0.34819120516854063,-0.5147379671921539,undefined,1498737066297
903d185fccf839df,0.20158381648150334,-0.5513908346667458,1.5158288196632235,1.428929025755354,0.451598771965055,-1.8448351060122627,1.986936671457232,0.11471033877101114,-0.6740546883345531,0.647048078488371,-0.12113034570030337,2.3219369991129244,0.7144468582887701,-0.3447490010948652,-0.9907588358335344,-0.2534329078537561,-0.8244466278413546,-0.4458923161173326,-1.0053528778357752,-0.0016010596650326814,-0.6021969006508827,-0.5222709693192904,-0.5279497355209323,-0.5223819258828388,undefined,1498737067712
903d185fccf839df,0.1898027724574889,-0.4800683954830279,1.4517084154335285,1.3950806342776823,0.3396025594814557,-1.8223388174860018,1.9312891722760348,-0.26074368631472494,-0.6791398956484904,0.7546136180109096,-0.15666242605456202,1.4678538126021459,-0.27778241978609625,-0.363265707723663,-1.002337781666767,0.10623519319323009,-0.709519970217258,-0.4421305492671816,-0.9851128538145587,0.27994796472940037,-0.5477069801699341,-0.4967541067612472,-0.6394471748854261,-0.4309948964690997,undefined,1498737069253
903d185fccf839df,-0.0527496927519067,-0.6191911254057507,0.6331399089014429,0.5660134083598678,0.2078933125893856,-1.8446839986830683,1.9671362053969446,-0.1412782496528804,-0.536950847726651,0.22579341907192743,-0.09671413144777276,-0.15229214472379507,-0.49537655971479505,-0.41881577580695817,-1.0181272920765896,1.084209538645737,-0.4112939008883595,-0.5062516050176762,-0.9719081225160959,1.0417770675606173,-0.4112177230760526,-0.48730320350672324,-0.6811087383194439,-0.33688047766237195,undefined,1498737070739
903d185fccf839df,0.0775356262911935,-0.47478526049993536,0.6120854250525625,0.7005163218500599,-0.15410150731404218,-1.7576426595600505,1.8984482980222557,-0.5728186043506813,-0.6106034290739735,0.025454603748051818,-0.10791429790397962,0.1232299945633728,-0.22555982620320855,-0.4577007224492233,-0.9633903869527131,0.536624623584096,-0.6496366372916594,-0.48699340310833056,-0.89739586104249,0.7853858378882187,-0.43625916125533987,-0.49345900203431264,-0.6897991811176715,-0.46146138190602476,undefined,1498737072210
903d185fccf839df,-0.012555376114469349,-0.5827961662942324,0.6618507766256021,0.6963705202769919,-0.32175836778475264,-1.7393092179820808,1.855277407699781,-0.8310964143397028,-0.7481257705510049,-0.11497503316795035,-0.0835948050961797,-0.00005900637472828086,0.03990502450980393,-0.4734399282640112,-0.9665482846173372,0.3365845617376075,-0.639338176554569,-0.5463834688373946,-0.9132118774439117,0.699551745714476,-0.488954185389251,-0.4753027737048313,-0.7172714205678733,-0.42207302452735485,undefined,1498737073761
903d185fccf839df,-0.004239296325174835,-0.3374237217115384,1.1639656665031255,1.0382037895268914,-0.3806542693030956,-1.669527539661254,1.859340465050093,-0.6832643566376014,-0.8146093761100445,0.27271060422772025,-0.03727766916161659,0.007874834966390264,0.33583305481283426,-0.5512100028593852,-0.9591798444628243,0.39316154607149095,-0.6162877819152035,-0.5923859709735932,-0.8891218571000302,0.6330150636814987,-0.510825376187299,-0.4789444809918104,-0.682895974036346,-0.47144095441332684,undefined,1498737075225
903d185fccf839df,0.11218592424117757,-0.39729930997590457,1.163965920640075,1.2322301496789163,-0.3921742485778135,-1.6684537604692553,1.7990810940129767,-1.0864390192275974,-0.7761271811369188,0.4364212720518359,-0.007305193170082541,-0.19592073378013325,0.10518326648841357,-0.5725041844006437,-0.9360219380718917,0.053699470479860935,-0.7153749421239278,-0.5721142174206884,-0.8816142785889273,0.4482645102493608,-0.5394853523841704,-0.49339982351564843,-0.6807825349841046,-0.51696170353235,undefined,1498737076729
903d185fccf839df,0.047043195708808,-0.4025823280470277,1.1741735853506152,1.0348008350927638,-0.23980193746919526,-1.619062241811251,1.811351774782219,-0.8871784708905118,-0.6297434640485369,0.5171782648193525,-0.043188996612120056,-0.09451688281627321,-0.9131573083778967,-0.5715782946759507,-0.8949692389828414,-0.2433298527289957,-0.8607037221936159,-0.5440782753456241,-0.8910599734131338,-0.10139839538572566,-0.6482908218561566,-0.4694436259693214,-0.644793262896312,-0.5621058969835454,undefined,1498737078217
903d185fccf839df,0.19118864773406571,-0.4407384198368872,1.2813596558241753,1.080862698159422,-0.18822945249830886,-1.63882117858244,1.8962997690191319,-0.323671624955137,-0.6229167273429924,0.36617358653324517,-0.1560765902014085,0.033588338626866714,-0.9305648395721926,-0.5576908553597743,-0.9212850504006321,-0.2352474708115748,-0.8294901964928059,-0.5780165223232575,-0.9301371616333087,-0.03443055623406171,-0.6609255486651764,-0.44899746137841834,-0.655688102871144,-0.5346594675382887,undefined,1498737079710
903d185fccf839df,0.19118864773406571,-0.4554138532459066,1.4172558316110466,1.304820480536862,-0.22741796370030287,-1.6865798987262004,1.9394653960683526,-0.08155746944039619,-0.5207368943122471,-0.28229273208694905,-0.25448795067461855,-0.013286763433818915,-0.9305648395721926,-0.45770073539999784,-0.8160217900050015,-0.09380486865325843,-0.7981839646825107,-0.4579945723817685,-0.8542847353046261,0.09741093352895801,-0.5604899554198397,-0.3764024458178482,-0.600243594635196,-0.4655725089127452,undefined,1498737081228
903d185fccf839df,0.10109771433922234,-0.39729919306393524,1.5773969265098593,1.4453112079348167,-0.34165090943008136,-1.6329608120017753,1.8974489748011134,-0.25299333045439576,-0.6180842699491639,-0.46642734667653835,-0.29264212903821096,-0.05145575432396039,-0.8174158868092692,-0.4447391210546416,-0.802337561883474,0.04561706029771846,-0.7056526573836597,-0.4300726250757038,-0.8186639714128473,0.16564144478988582,-0.5203872417870649,-0.33726846326308013,-0.5904557514654708,-0.5260781556042278,undefined,1498737082803
903d185fccf839df,0.3062278895076121,-0.41901880645041123,1.7011715322200827,1.5368385615556197,-0.23587279915796852,-1.590112127283007,1.8232752942586936,-0.6279339310858558,-0.5569788242130519,-0.1731426100268451,-0.1915858757983381,-0.07906875015207532,-0.8174158868092692,-0.32993569795554484,-0.7612848775188913,0.16281223405655662,-0.6611909117485681,-0.37847813275881825,-0.8103727504628143,0.3368259671915038,-0.46164411381832693,-0.33468714489524537,-0.49179224097038,-0.5193868611983772,undefined,1498737084220
903d185fccf839df,0.3214739667771659,-0.45423976479367917,1.7203113482920072,1.7448809468846789,-0.08661704908866141,-1.50468029053915,1.7954282818129064,-0.573629493117243,-0.75989393591983,0.38001504279083603,-0.172054911484087,-0.04874817783269859,-0.9566761363636364,-0.20865146120838265,-0.7286532486851507,0.40124398451835497,-0.5707753335318999,-0.24924808406134788,-0.7453233990755868,0.5561614253804039,-0.3298472725343737,-0.38947087090094823,-0.38637569949372713,-0.5202205961393452,undefined,1498737085718
903d185fccf839df,0.21613699061817845,-0.5129413815177872,1.8785382836877629,1.7501685069242612,-0.26383961188821115,-1.6103578741134168,1.8766787765700204,-0.30304732140536944,-0.6648027791820222,0.7992925428647908,-0.2929589892368219,0.013430868440481592,-0.9218610739750446,-0.19013479343190853,-0.6886532017835986,0.7386855282262532,-0.5428441294879622,-0.2002310989463675,-0.6989765238101259,0.7121630736254316,-0.26442456181328094,-0.438251763187917,-0.4390614137596338,-0.5449658912211041,undefined,1498737087214
903d185fccf839df,0.15238030988943438,-0.527616756470822,1.7509358672453244,1.6860610477726843,-0.44855015686639443,-1.6703218090145435,1.854996027109345,-0.6298308325080505,-0.6537775959112541,0.9201492454333872,-0.2539531546311327,0.19673524122854028,-0.9349167223707665,-0.11143889386571433,-0.7697059183252658,0.6982732794624901,-0.5604241398219723,-0.13799093103182566,-0.7293216919399834,0.7986715424716488,-0.22841886844696274,-0.5049971418509988,-0.497156488376569,-0.6069381830548667,undefined,1498737088750
903d185fccf839df,0.12188801732868783,-0.5739909413224116,1.9423396189774569,1.8528114542305805,-0.40907365581984256,-1.7590984338714273,1.9104875644668713,-0.47122117243708267,-0.5404089169751012,0.8871583021639152,-0.2607613052764518,-0.030801180261027745,-0.504080325311943,-0.1818022650883299,-0.796021751829758,0.5083362444760404,-0.6270075174351307,-0.1836514544475218,-0.7571130241732585,0.7691835174495886,-0.26993486724895877,-0.49551666765034563,-0.5582086321596993,-0.5201952937370189,undefined,1498737090226
903d185fccf839df,0.1939606743304972,-0.5845572112885965,2.1299147975665256,2.160771669877884,-0.15159179988534588,-1.702227727910465,1.8922156732411108,-0.4098617552329136,-0.338639938906664,0.7388617642278751,-0.06923419095470373,-0.08417582969755222,-0.3778757241532977,-0.19198643042277447,-0.7854954287350884,0.43357373830581103,-0.6055798010808611,-0.19956614296631098,-0.7943150678064143,0.6771162080740861,-0.3098609567481751,-0.5114232375800499,-0.6261057964265259,-0.44417830240271683,undefined,1498737091710
903d185fccf839df,0.20227689214143066,-0.5340738629941725,2.3819291951883415,2.382002715540953,-0.2622967548317894,-1.6430277844114667,1.903195111082007,-0.27582862603634456,-0.2625678285195807,0.1400822576364553,-0.017267695057712213,-0.16551693416369603,0.6100016711229947,-0.27531149369539354,-0.8370744214698731,0.2941518093548341,-0.6565370783181876,-0.25995076140639667,-0.8510382141158205,0.3898582104006559,-0.4226533961018568,-0.4230790723179999,-0.5249596632366644,-0.45950489631767094,undefined,1498737093206
903d185fccf839df,0.2895956609182036,-0.47713340817639793,2.1701096057612297,2.1711281676337144,-0.10290959147514704,-1.6408382986388148,1.8472354702792346,-0.5685456184932295,-0.15859476274974035,0.26639769551275444,0.1724556430984937,-0.1934946065900206,-0.15592970142602494,-0.3401198503392149,-0.852863917155228,0.39518224754355197,-0.7413411291657059,-0.3428933248820792,-0.8557750552016722,0.4693603822339489,-0.4473680170670806,-0.3803286057239798,-0.5387665190335238,-0.4110832430294176,undefined,1498737094726
903d185fccf839df,0.47254962331514133,-0.4653930497579855,1.7343475861456108,1.86519690037439,-0.17097005241764146,-1.6700283247761458,1.8817227485172279,-0.446067899931301,-0.14550695116423823,-0.07444130859812949,0.09044498598149954,-0.08459288840463867,-0.852230949197861,-0.35493316642930983,-0.8412849565975279,0.2941518093548341,-0.7348860854247898,-0.3650902921889679,-0.8392765754542034,0.37302770430448856,-0.46819874744538525,-0.39814314982406357,-0.5002264391654287,-0.45693951642007913,undefined,1498737096217
903d185fccf839df,0.507200231813813,-0.6039287646825869,1.4249124696232747,1.5016053608736908,-0.056233103864022166,-1.7262142327680083,1.8920079229575697,-0.41857713545212344,-0.1659633907027613,-0.11901174217837406,0.008907664963908874,0.056334539587838545,-0.8130640040106952,-0.37067237224409777,-0.9086534891910704,0.35274932557244937,-0.7767762185613752,-0.35214575574977547,-0.850779333275625,0.44423011672123297,-0.4454861245306539,-0.40853450680972075,-0.5560521514686507,-0.525114939557005,undefined,1498737097729
903d185fccf839df,0.5709567055100987,-0.5105933215253017,1.155671398884794,1.19476808377186,-0.18578145784147596,-1.6986826251676208,1.8331949396353715,-0.7881317642244626,-0.45759947568094667,-0.12670712835920603,-0.046215249957956395,0.008691946222675218,-0.8739903631907309,-0.46510742582198167,-0.9318114103064706,0.288090015850588,-0.8271586071151663,-0.41663412112253445,-0.8579300739304185,0.4759201177862482,-0.47625157244095045,-0.4245878632539791,-0.5743496511438931,-0.5495737809535248,undefined,1498737099239
903d185fccf839df,0.5875889340995072,-0.5698818363355619,1.2252147044097603,1.2711129176660296,-0.21368655173627576,-1.6798786773881489,1.869767645734906,-0.5151797061844388,-0.508905152787662,-0.24293173703896512,-0.014729074390532162,-0.06377216958748062,-0.6389886920677362,-0.503992450168894,-0.9339166705080643,0.32041965657915794,-0.7686769099183633,-0.3713725716912975,-0.8617503325345088,0.595427454025712,-0.4301136267556565,-0.4586814403302916,-0.5786124830245633,-0.5545894817133755,undefined,1498737100751
903d185fccf839df,0.5931330217977799,-0.5152893830542882,1.534650075069046,1.4626109648854608,-0.31895036869426124,-1.631884704515119,1.8376761263087074,-0.6571005293731126,-0.5808654824102333,-0.1261537076281216,-0.01269416431448456,0.03727434875472054,-0.44315396613190733,-0.446590745094733,-0.9370745534482209,0.2618220838320996,-0.7056543844248921,-0.3072261842749811,-0.8798720732984578,0.5914084573544778,-0.4120726196094659,-0.49447036486935714,-0.5860264167501771,-0.5098645530785072,undefined,1498737102220
903d185fccf839df,0.39770487070608096,-0.5193984880411379,1.7541260483714365,1.688965934299748,-0.49057751436341995,-1.5852859428951382,1.8153674768147934,-0.8270933838988516,-0.5592253863151468,-0.33627040458180685,0.08296635852682074,0.09655244120008488,0.13999832887700536,-0.44196159433908266,-0.9170745373596786,0.3224403580512189,-0.7293975363331826,-0.3470857317361929,-0.9047387388544326,0.5796594439366797,-0.4361876751247138,-0.49147778851447416,-0.6214226290111268,-0.4682000148255539,undefined,1498737103706
903d185fccf839df,-0.21214149808999608,-0.6180170661815156,0.880688357911041,0.8333259055260105,-0.7233119806546923,-1.476789979172321,1.7586662261976638,-1.0939293161744814,-0.6055566492471638,-0.38089016228819167,0.07894503927564542,0.23594184256064468,0.1530539772727273,-0.40122492005052973,-0.93075877284344,0.3709348191440738,-0.7447071087806338,-0.4515856351907377,-0.9211602540431645,0.8811302140266797,-0.42656079573669065,-0.4717552416397228,-0.649318653337877,-0.4421214201187899,undefined,1498737105217
903d185fccf839df,-0.37014725562446,-0.5569675063768913,0.6905611360758624,0.5289660689884104,-0.9669698608217614,-1.417308195267575,1.8255974143834193,-0.6582607577468692,-0.46096719628454125,-0.7663809541249822,0.045523009858694376,0.11479482735438186,-0.7303782308377896,-0.45584908545835734,-0.911811372131227,0.36083182054875645,-0.7787185974096801,-0.5628617892991784,-0.9125121955243237,0.8100817896992217,-0.4867280937590475,-0.46214441366088665,-0.6461781378014022,-0.41714950866657147,undefined,1498737106704
903d185fccf839df,-0.12205061645326733,-0.5475751494949798,0.2522475814880329,0.15341566447074792,-0.9449070433289378,-1.4395035159933582,1.8838160621228333,-0.33435514141512723,-0.5323935103426112,-0.8054724990347025,-0.01441004638399083,0.037140312010327775,-0.9349167223707665,-0.5308416592397214,-0.8707586804044105,0.44569732531430317,-0.6735628134649226,-0.6789889780817914,-0.889415722086365,1.1866661734183286,-0.4543776467673584,-0.39198562753437716,-0.6065233046787097,-0.26650643876603497,undefined,1498737108227
903d185fccf839df,-0.008397336219822091,-0.26698174656901785,0.1775999353338977,0.08187024987730973,-0.9920566799696466,-1.3535871996449682,1.8009798026860329,-0.4731843721684326,-0.3878410344852333,-1.0216465472749015,-0.32055102806708036,-0.02796629498012005,-0.9697317847593583,-0.542877487466581,-0.8770744978203603,0.3406258233581218,-0.6324587593764084,-0.6798629242096115,-0.8604139397363063,1.3591287650688124,-0.4222197854004024,-0.3239125969011657,-0.4961204090404685,-0.25314134732385896,undefined,1498737109715
903d185fccf839df,-0.2523359527490724,-0.322748288302519,0.3868677356518491,0.09813688415782568,-1.1259661715319425,-1.417464256085985,1.8212135388184132,-0.48512881051352463,-0.16186041529574285,-0.9883363151637669,-0.33244034265469213,0.038732560878739095,-0.8217677696078431,-0.6039825312763468,-0.8686534275650506,0.5164186546581829,-0.5301090873153887,-0.690280615617688,-0.8714479099933443,1.1249184099654175,-0.4846733646424457,-0.3352815845487557,-0.4474491674657121,-0.18754370456126027,undefined,1498737111210
903d185fccf839df,-0.3119345418250546,-0.06152638031456291,0.8028512930416422,0.4458919085132046,-1.0775616753553692,-1.543375942672507,1.7841806045424793,-0.9133634731585948,-0.30967185730770136,-0.7982438874264322,-0.339055353952583,-0.09678836335591079,-0.8043602384135473,-0.5262124696317474,-0.8970745212711364,0.7528298167068064,-0.4672579537771897,-0.6712057886855701,-0.9017580943379692,0.780886337213836,-0.5548892922939278,-0.34171205928013315,-0.4692585111134323,-0.11809365353881202,undefined,1498737112726
903d185fccf839df,-0.11927853809872122,-0.3773407123558004,1.0822997743537137,1.030993525459619,-0.8746660166748249,-1.7815639459260735,1.8854544260143586,-0.8265300621084353,-0.5302394238746023,-0.139561044727135,-0.011076528794977404,-0.048009816107613734,-0.7216744652406417,-0.470662466302325,-0.8265481204619048,0.7043352425550654,-0.5071657121073573,-0.6007581231518221,-0.8408158713084919,0.5840480091547295,-0.5467944570218651,-0.3534502257155015,-0.4856008751098638,-0.1430897304729944,undefined,1498737114208
903d185fccf839df,-0.14699880406303625,-0.6808277878924734,0.8054028280138531,0.8434645234547653,-0.878914005484653,-1.841814374487989,1.9085809386240966,-0.7843924054728667,-0.48881599053438773,-0.127557277670173,-0.02750413903134948,-0.20322584083960746,-0.669451871657754,-0.6160183595032065,-0.9633903722282454,-0.2877832217896655,-0.8380111508342427,-0.68005291089769,-0.9183755214301922,-0.03863432968692838,-0.7195842538138749,-0.4226202553750617,-0.639111127684419,-0.42395004563214994,undefined,1498737115719
903d185fccf839df,-0.3590590457225048,-0.6056898389049434,0.4729990681395795,0.4188695732327236,-1.065866837978671,-1.806181672484697,1.8884471454985532,-0.9406446577909795,-0.43300848586158963,-0.16913100925697497,-0.006421437427113108,-0.2599190399886066,0.44027824197860965,-0.6558292023455519,-0.979179882638068,-0.40295792019421495,-0.9719871018082678,-0.713408525324027,-0.9272614711518162,-0.20096474300868597,-0.7721523960446507,-0.4302937472977555,-0.6581584559345323,-0.4720189491155217,undefined,1498737117256
903d185fccf839df,-0.5808214322275982,-0.6368016045773847,0.10231440543670975,0.18754332586619582,-1.2168917263601835,-1.7474382592200408,1.8484162426067154,-1.2062217855335056,-0.3207987992636396,-0.680224334696422,0.04980905805006099,-0.19089452722153089,0.5925941399286988,-0.650274220143694,-0.9939167114114572,-0.1766498415350734,-0.9000125036096265,-0.7453012298937661,-0.9386033019071142,0.0511540085509156,-0.7304225971583462,-0.4264052395815282,-0.6721241406248335,-0.5315158573883507,undefined,1498737118719
903d185fccf839df,-0.6126996863284458,-0.6062768246750725,0.005974645827590823,-0.003596867748429748,-1.12121417289645,-1.65893648620092,1.8541229224079576,-1.0220844926218189,-0.3462957843505724,-0.8030281952381462,0.06798712936797625,-0.2314807858314531,0.15740586007130128,-0.6706425637633577,-1.0107588813710118,-0.08572251500055902,-0.8725585458231875,-0.7515391793827773,-0.9552207286567816,0.14565426838939918,-0.7214142564686181,-0.4465492966842066,-0.6585999942282815,-0.5744861062324511,undefined,1498737120247
903d185fccf839df,-0.6515081621947161,-0.6438457845548413,0.10997104344893793,0.09267638550017289,-1.1827946397874283,-1.667428892248793,1.8975936166104188,-0.7728471494781373,-0.2942778264274237,-0.776262793992559,0.045208269839595285,0.0008444354800356622,-0.2560230057932264,-0.6771234097883595,-0.992864096035128,0.10825580987112648,-0.8326959353961552,-0.7644710510530216,-0.9394709078138097,0.3553502977768889,-0.6835189402467012,-0.45205313420638094,-0.6337036137317006,-0.46916269315492726,undefined,1498737121716
903d185fccf839df,-0.783179632557671,-0.5945365247126447,0.16547760284640153,0.19567200530868936,-1.0834245216270253,-1.6073694593193923,1.8901012965910342,-0.6889168625428203,-0.3312766098134806,-0.738964118200714,0.01274671734936786,-0.1301883029433062,-0.504080325311943,-0.6623100548459409,-0.9781272378128036,0.18099781242234564,-0.7834186442597284,-0.7600316572970931,-0.9732655056327434,0.3972802659118103,-0.6820392546640707,-0.49162433570080954,-0.6026953212272856,-0.42935890148074995,undefined,1498737123219
903d185fccf839df,-0.6570522153875792,-0.4113876699308179,0.5010715438467871,0.37292632684891514,-1.1711306613123171,-1.5079086168697768,1.8305204200851475,-0.8654555470702826,-0.41222330408026786,-0.5933983637815547,0.035373382061607755,-0.05115731103443039,-0.7347301136363636,-0.6502742071929194,-1.0044430860417632,0.4618622587374743,-0.6660701659403174,-0.730494808666747,-0.9842295085884668,0.34021362606473693,-0.6804040466562898,-0.48744119192194946,-0.6044521537235805,-0.4015940731996198,undefined,1498737124723
903d185fccf839df,-0.6570521808821694,-0.3884940265480991,0.12911111365781186,0.09736037409465102,-1.222908861256242,-1.520903443803995,1.886561581128967,-0.5337002247621903,-0.37268607139357807,-0.5918232901169225,0.0458829966371933,-0.054670545688110736,-0.6389886920677362,-0.7215634098617425,-0.8918113560426847,0.8740663368803234,-0.5191222923571046,-0.7249344841456801,-0.9243787888693203,0.8725224836818588,-0.539737539733693,-0.4872835221484345,-0.6259635509231181,-0.14040199996098748,undefined,1498737126214
903d185fccf839df,-0.37984921069033134,-0.524094608026109,0.06594791624812009,-0.001259334744470702,-0.9940829592634376,-1.5569437640535015,1.8571840188772508,-0.7808051099516238,-0.3825398069478662,-0.5807777112402149,0.043157114803185744,0.025002658751438075,-0.7651932932263815,-0.7585967648408526,-0.9265482156290837,1.7570718680600295,-0.23197690952135305,-0.7460105207095772,-0.8913118601094914,1.2601783444669314,-0.45283721191483234,-0.48452627604036563,-0.6902701184582877,-0.08228646672225341,undefined,1498737127714
903d185fccf839df,-0.3950954604869338,-0.6250613046149569,-0.020821554119612447,0.0060258139138925975,-0.7789370347919161,-1.6301890183898877,1.8878422907019146,-0.6893236514751254,-0.32636752430084226,-0.4827850149226422,0.03234665439202726,0.05634520766285572,-0.4605614973262032,-0.7761876205972811,-0.9033903018759173,1.593402595503739,-0.32476093865184347,-0.7818233173602555,-0.8973011298773715,1.1298459014825977,-0.4946455885787027,-0.4695469393133963,-0.6676615393188489,-0.12902239272573854,undefined,1498737129216
903d185fccf839df,-0.4103416067673071,-0.5863183147389454,0.15016585164364168,0.2433865616371206,-0.4458758773108287,-1.6001627938090455,1.8626776798840898,-0.7236452227782251,-0.39103147441068015,-0.3862909553349386,0.07218720162832659,0.08985219176763125,-0.8261196524064172,-0.7687809366506845,-0.8833902637006736,1.6136086774885383,-0.3765835616464737,-0.8132283848183656,-0.9052355125184325,1.3018003418216662,-0.4742007889933912,-0.44439099390511694,-0.6043584509792225,-0.15496504581668075,undefined,1498737130724
903d185fccf839df,-0.1871931897112931,-0.452478719799315,0.6382439953936625,0.7669490070706451,-0.26071275838009755,-1.6586709524924605,1.9034212589908142,-0.44161550918657944,-0.5228810274609247,0.0909697800899209,-0.004898668917493927,0.020402392617725317,-0.9914911987522282,-0.7437834357999831,-0.8307586408650922,1.326682352874999,-0.37707614552075136,-0.7708039949795634,-0.8663752250500598,1.4797139801311163,-0.4061659853123041,-0.44176705000630645,-0.6497666534479307,-0.21537111268397408,undefined,1498737132219
903d185fccf839df,-0.26065210154918633,-0.44954370326469273,0.8538919038268884,0.8469015315512279,-0.08906504857075137,-1.721818958318154,1.8467831330845086,-0.86596040583176,-0.41620778754197874,0.10005869475460775,0.016175118441283682,-0.008106433267858225,-1.030658143939394,-0.6799008847008202,-0.8633902476121313,0.6396757632448749,-0.5948793169180199,-0.7321920369964747,-0.9137086507103028,0.6954249575019019,-0.5825777097312518,-0.432116757240145,-0.6256093445062387,-0.2815628021795343,undefined,1498737133745
903d185fccf839df,-0.31054858028495347,-0.4395643313846598,0.7741404253174831,0.886176071247849,-0.2374156585189904,-1.7088870213035459,1.8501939928907056,-0.8683440994127548,-0.47992970130002743,0.16171183180075582,0.009746245668947738,-0.024263292016850752,-0.9958430815508021,-0.63916420393688,-0.9465482390798599,0.18705963419131327,-0.7489553481735041,-0.714801774261853,-0.9447395068015567,0.15675654182122778,-0.7003421546407282,-0.4150178458332155,-0.5317075191206022,-0.3626242494730835,undefined,1498737135241
903d185fccf839df,-0.27589824782955963,-0.46304498976549996,0.6478142846350489,0.675757815725444,-0.4319696153469318,-1.6762730129025656,1.817584405848495,-1.1029891523567157,-0.4039527585641591,-0.30807860501977846,0.06177162111134285,-0.035875773068128884,-0.9697317847593583,-0.6243508684206233,-0.927600867816582,0.18908016607504505,-0.697572439178085,-0.7071769097697563,-0.9118265076240981,0.43426732389064104,-0.6335218589861834,-0.4253375975965589,-0.5017146485550396,-0.3373700306284863,undefined,1498737136718
903d185fccf839df,-0.5101347022604802,-0.5053101280862246,0.7097014604216858,0.6749046687672517,-0.6625646568542546,-1.6392450973158568,1.7849222206419675,-1.310525395614541,-0.5248394938629057,-0.3733311466294588,-0.0017432036786523292,-0.03268907088458198,-0.9653799019607844,-0.6271283562838585,-0.9360219307096579,0.32041968484387945,-0.6080369280258151,-0.7187978612405974,-0.8886600664994497,0.17378721933464034,-0.6844088737210474,-0.44322706526009165,-0.45799211675162854,-0.2951933045025235,undefined,1498737138212
903d185fccf839df,-0.5766634095856558,-0.4700892281989413,0.8449600066024535,0.725147566930787,-0.8040752776417479,-1.643903576382186,1.8849653014255123,-0.6973255162873115,-0.40725980269815987,-0.5735481094560497,-0.07487902728650321,-0.024421450088122226,-0.9653799019607844,-0.6734200710527548,-0.9581272217242613,0.03955522439639007,-0.707175070762527,-0.7561305645233396,-0.9254772847514042,-0.021264888244958674,-0.7511330673755711,-0.4559090591223194,-0.4715969236553046,-0.3007263687255379,undefined,1498737139711
903d185fccf839df,-0.4283598486549313,-0.5804481063017468,0.5712527331148061,0.5450896338773511,-0.7718604796626045,-1.7067045267137466,1.9182191835074252,-0.597326265900582,-0.38095481786551144,-0.5524347443657768,-0.04678369950910543,-0.06122669392523804,-0.8696384803921569,-0.8169243207873831,-0.9612850899399504,-0.08370185592558034,-0.8385776744420027,-0.8132220513653149,-0.9280241237881736,-0.17343232422005184,-0.8040595073153185,-0.47018855815491667,-0.5468451124595115,-0.3335786529310986,undefined,1498737141219
903d185fccf839df,-0.3895514072940708,-0.4929827546696907,0.29371815716884214,0.35799422271841225,-0.7695976226491869,-1.6876932751928417,1.9478755038787658,-0.37094134074717383,-0.36461361253190966,-0.5714799331560344,-0.05812838168127796,-0.02188129575099512,-0.9044535427807487,-0.8224793353661773,-0.9844430331420521,-0.1362376634331141,-0.8423572603719031,-0.8231141094004744,-0.9661567435187268,-0.19348109868333838,-0.8229912778482358,-0.4617986207726139,-0.610043127228376,-0.328686873764411,undefined,1498737142716
903d185fccf839df,-0.3729191787046623,-0.5323128764557931,0.0417037595470266,0.020930450622621218,-0.9670418628835993,-1.6798204473921288,1.9359703746949055,-0.48760823669116615,-0.3757746213492262,-0.6286415730742568,0.006192253055780225,0.012722220073814516,-0.9218610739750446,-0.8317376304020907,-0.8991797961971976,0.4578210819111246,-0.6738302170499825,-0.8076807260628468,-0.9260370300803181,0.4572726112956529,-0.6623265867594247,-0.46725823815237494,-0.5120926245461016,-0.18134004021568806,undefined,1498737144255
903d185fccf839df,-0.4380619762478513,-0.5775130313111398,-0.03358177035016135,-0.04726177004755993,-0.9709401394865081,-1.6895100808277916,1.9603723550785344,-0.3460462115915244,-0.4071999187152763,-0.728946040723408,0.031841103116485504,0.007025778720770468,-0.8826941287878788,-0.8576609756497742,-0.9054955694397447,1.2135282711483457,-0.4335624435189364,-0.7923423365260335,-0.9315155330518099,0.9465120185746015,-0.553120066013889,-0.4714842970444257,-0.5623442137123377,-0.11546025975874114,undefined,1498737145720
903d185fccf839df,-0.4893443992710147,-0.6262353930671843,0.14123344614530803,0.10757518977997234,-1.004132080894882,-1.668244127153818,1.8836056893684814,-0.8096355941997493,-0.36375959790042217,-0.5804049814202997,0.023290679174680435,0.014757743391838178,-1.0088987299465242,-0.8159984828657882,-0.9033903018759173,1.286270273699565,-0.37292789891510475,-0.7926843144990862,-0.938897168789738,0.9360256752332586,-0.5594649623638068,-0.4587918661112969,-0.5220450435068613,-0.12061172703937352,undefined,1498737147218
903d185fccf839df,-0.361831106824346,-0.5904273612698104,0.6644025657347624,0.5431219614212952,-0.8518214810957464,-1.6423196959791744,1.905533006361188,-0.5856513925229099,-0.3919146998696486,-0.3427512131371305,0.08771436622802843,0.09988144926828434,-0.9697317847593583,-0.8048884731343616,-0.9233903179644596,1.3226412325780923,-0.37718779387696355,-0.816179536046047,-0.9531916532884482,0.9498534786247577,-0.5747031059732024,-0.4572615916668288,-0.46154245229637475,-0.09908961191993237,undefined,1498737148745
903d185fccf839df,-0.335496819652837,-0.542879146421978,0.7537243334855542,0.7881244036134039,-0.9004111162660867,-1.6032676701462727,1.8330976253844773,-1.0073985331578328,-0.31448874333721555,-0.21781342666366188,0.14115656595857431,-0.008023920637679064,-0.8739903631907309,-0.816924294885834,-0.9644430170535099,1.2438375354491524,-0.38427668936717946,-0.8169394895586306,-0.9608951425285664,0.8521349457881203,-0.5974582724001605,-0.46116651517087226,-0.45024997717625864,-0.0945180993403872,undefined,1498737150235
903d185fccf839df,-0.3590590457225048,-0.6186040811796369,0.9636300175465583,0.9933266183612551,-0.9127436714423636,-1.5960912834405887,1.7866026530087364,-1.3021503908925898,-0.3812221617991979,-0.17463751132845315,0.10023835548392437,0.06082937477831586,-0.6259330436720143,-0.8039626352127668,-1.0276009850704622,-0.17058801976610577,-0.8399288279710159,-0.7982383067907055,-1.018786756456241,0.048197502340344894,-0.7834609085345564,-0.46392559765774954,-0.5876665763248322,-0.29612632711594955,undefined,1498737151718
903d185fccf839df,-0.4657822767175761,-0.6274093646074425,0.890258393015478,0.9379214172423167,-0.6001099068853113,-1.6531203763110984,1.7655010922085714,-1.4425721627565113,-0.4686031814518752,-0.1620388221966736,0.041736030796261196,0.035527176614546664,-0.7826008244206774,-0.7687809366506845,-1.0465483894637921,-0.14836130697104935,-0.8964662247221752,-0.7907591011271321,-1.031947757427769,-0.15423045930218146,-0.8281914871979832,-0.45682413218985396,-0.6029647241793051,-0.46188377563958183,undefined,1498737153291
903d185fccf839df,-0.2939164207063644,-0.575165029774639,0.735222147019733,0.7115795117117397,-0.41640735705007326,-1.6738226548164743,1.8223785359914386,-1.0545206042311854,-0.45502575381527466,-0.05227613742200715,-0.010162285075783739,0.031908083210520057,-0.847879066399287,-0.8048884860851362,-1.0444431108566141,-0.14836132110341013,-0.9667858060555574,-0.8019494133027036,-1.0142948031393666,-0.16305376784286357,-0.8280059172800448,-0.4461996083207822,-0.6508157651363489,-0.4843147139734441,undefined,1498737154715
903d185fccf839df,-0.2731261522223087,-0.45893582632266555,0.26436940570163026,0.4718482013352161,-0.4251502012732247,-1.6836497157837924,1.8295710615585328,-1.0272879501275445,-0.3861848951918265,-0.07732954087998624,0.0417947191821027,-0.006101021747916639,-0.9653799019607844,-0.7872976303287077,-0.943390363501937,-0.08572245847111595,-0.9549953330430687,-0.751830497349877,-0.9637358473468884,0.14157367706132953,-0.7266017059338793,-0.42454843059971614,-0.6669614263448949,-0.39581491367992433,undefined,1498737156223
903d185fccf839df,-0.12066455139693696,-0.5698818363355619,0.10805637567198204,0.17261836273815898,-0.7182411392666161,-1.694713601739722,1.8975620663015076,-0.7005424428371667,-0.2564390351366601,-0.1942744477729334,0.05871016357231866,0.018739889387773313,-1.02630626114082,-0.7465609366139929,-0.9118113868556945,0.2315129184578184,-0.8240035899513916,-0.7298995124040053,-0.9429133377313516,0.5859574097531505,-0.6141204606177375,-0.43541690874228395,-0.6941355499075405,-0.4472713005576943,undefined,1498737157706
903d185fccf839df,-0.33965485954748426,-0.5552064029265424,-0.07441497056181669,-0.16816656073855826,-1.0869422338071695,-1.605617871905959,1.87221598071306,-0.8116792472444712,-0.3903529060215121,-0.38173419682431203,0.07446013509459852,0.007285202369999845,-1.0088987299465242,-0.739154265618171,-0.8928639935057153,0.07188487925732073,-0.8627818949900382,-0.7878079484599175,-0.9526039205569842,0.6659831314913909,-0.6310955364205422,-0.42549511146114244,-0.6032653900148544,-0.44824768854153163,undefined,1498737159297
903d185fccf839df,-0.22600170008297307,-0.6303444395980494,-0.20520705985646823,-0.2618722052165653,-0.8156466870640912,-1.6168331590321483,1.8676953344175082,-0.8125359505932167,-0.5316347119370777,-0.7297247587199561,0.011679409235923942,-0.023233481109622346,-0.9349167223707665,-0.774335957704866,-0.9391798210120483,0.2618220273026565,-0.783690281513169,-0.8032919952306944,-0.9670803218999227,0.7922503802468704,-0.6144310714639789,-0.39946916491528606,-0.5783534722720399,-0.4030994959888777,undefined,1498737160714
903d185fccf839df,-0.1996673784060543,-0.3884940265480991,-0.2109490300917405,-0.32472287129695376,-0.8913185619025541,-1.6022171814971988,1.8612391622004094,-0.7953300031096538,-0.5870373095639587,-0.8907291289388749,0.052337340300026534,0.0015303765402185255,-0.8826941287878788,-0.7530417632128329,-0.950758796294216,0.6538200234607064,-0.6046236193625415,-0.7912277372484294,-0.944459632696532,1.2239457997066687,-0.5157142442327534,-0.40059198693311854,-0.5625959075241147,-0.41923336341841066,undefined,1498737162239
903d185fccf839df,-0.15254285725589928,-0.43604224139593145,-0.2543337652756068,-0.3079144893235314,-0.5118174848354432,-1.6753552931517766,1.8631642003337556,-0.8213608151792299,-0.4402778437086474,-1.015971319458375,0.0656006068221332,-0.09580134987313683,-0.7564895276292335,-0.7595226092378347,-0.9518114190327791,1.0943125372410543,-0.30254209520565006,-0.8111828423440315,-0.936819115476117,1.6480189909860727,-0.425496514791965,-0.4094235086327918,-0.42050441671179795,-0.14651281320813936,undefined,1498737163812
903d185fccf839df,0.2050488497270427,-0.5563804329227853,-0.24157354904505787,-0.32158985838971205,-0.17962032632969743,-1.7448691081502739,1.8712456036616492,-0.8115414384820219,-0.38695364874468774,-0.8431099654292405,0.09135714246194875,-0.0473455103489783,-0.8130640040106952,-0.7835942851177158,-0.9128640243187252,1.2498993148210378,-0.3587872892831377,-0.7985992835449603,-0.9069987079784984,1.798153838260682,-0.38012490557214085,-0.3874568156898406,-0.34415273271805724,-0.1342970610572905,undefined,1498737165259
903d185fccf839df,-0.1081902246805368,-0.572229954784032,-0.4769994114302104,-0.5079099884910364,0.09585121161453106,-1.6683978570391444,1.8467095184904405,-0.8105531599540993,-0.34721226346148665,-0.6871470585481685,0.04157378220247495,-0.051471863817094024,-0.8000083556149733,-0.7613742915564116,-0.9654956618787742,1.3408266978849952,-0.3496312608990214,-0.8034883158978069,-0.8911439348194496,1.7866973936908865,-0.377937829563547,-0.3846603858483595,-0.3504780749378735,-0.16787363883730425,undefined,1498737166736
903d185fccf839df,-0.13868265526292228,-0.6080378696694367,-0.3532255681308355,-0.3848905816973815,-0.1295598411460707,-1.590503440395781,1.864786802164848,-0.6420888578835754,-0.46251563856269784,-0.692820629218903,0.056560140985085425,-0.026491746144002834,-0.8826941287878788,-0.7863717924071129,-0.9812851428396616,1.4216509410300275,-0.32337497183553576,-0.8150776030876575,-0.9057742671088632,1.4456988243312372,-0.4589608166977628,-0.4101627404468558,-0.36070341035728737,-0.11750764818472019,undefined,1498737168228
903d185fccf839df,-0.22322967348654157,-0.9743356376890752,-0.39980023030386425,-0.43191933403953714,-0.4696152714450127,-1.4948532309925229,1.8313093695044158,-0.8072848260033262,-0.3574978496213756,-0.8558086183356183,0.08733193928848511,-0.05044284026769457,-0.8391753008021391,-0.7872976303287077,-0.9739166879606812,1.3873007118882827,-0.3941617187866427,-0.8300423492464847,-0.9067608170509829,1.2111497042761494,-0.51629762762379,-0.4126187342449557,-0.3705500219403312,-0.04145422045993345,undefined,1498737169717
903d185fccf839df,-0.40479762258526353,-0.9414626808823081,-0.26773186524920844,-0.3253183084862961,-0.8199769682359945,-1.5027726445180758,1.8544358863042412,-0.7386346388023495,-0.36984809294161824,-0.7895734947989164,0.09003986871373428,0.02530616167027804,-0.8739903631907309,-0.8484026547123117,-1.0423378432927866,0.5527897265955963,-0.7232658133080949,-0.8737649927440088,-1.0074239354395906,0.569773653578137,-0.706988056817892,-0.41567921656174495,-0.4728536328896988,-0.27086499210466547,undefined,1498737171224
903d185fccf839df,-0.00008132544134704673,-0.8592804642333446,-0.5133664088926989,-0.5709972914342629,-0.5909864965789625,-1.5609803327943363,1.8442716775856185,-0.8667574344813022,-0.4347537409197196,-0.7107202367974638,0.09383490654911425,-0.06269875613184012,-0.7956564728163993,-0.8659935169441273,-1.0444431108566141,0.2941518941489987,-0.8441436875744657,-0.9213507320785251,-1.0498595929845604,0.47462665912514557,-0.756369535020881,-0.4342407584786675,-0.548623987029068,-0.2530279363706855,undefined,1498737172716
903d185fccf839df,0.08862359465528057,-0.7729891425975313,-0.6403311957290341,-0.6489023868432613,-0.6355852786997,-1.5314944946077822,1.8340969538432281,-0.8669256608875028,-0.3302608179786771,-0.7987572770044461,0.07372900756197634,-0.0958536305185861,-0.8217677696078431,-0.8743260258615442,-0.9718114498457889,0.5548102867440496,-0.7184735807331107,-0.9051257304324136,-1.019381484138995,0.5398390719957322,-0.7268305945999851,-0.4241007157529018,-0.5324625432322854,-0.16916980995592457,undefined,1498737174221
903d185fccf839df,0.03734103361047827,-0.5147024265121514,-0.6186380657262527,-0.6770107458433552,-0.008970331205622248,-1.4287377735198767,1.8516482757773844,-0.37760275728530446,-0.20377032333446257,-0.7433702160888145,0.06107695378630193,-0.05371911554209158,-0.8870460115864528,-0.9252468849107035,-1.0254957211877518,0.26182211209682116,-0.8621629581499205,-0.9488990377118968,-1.0524414160573619,0.309524522122856,-0.8084140180387909,-0.4324716151868264,-0.5039480453597752,-0.23231728797270113,undefined,1498737175721
903d185fccf839df,-0.5018186914820051,-0.15075271848499847,-0.523574581877138,-0.6381419219601873,0.4719580105734462,-1.4981491017445296,1.8633404060697554,-0.21732375947047455,-0.5181259288326568,-0.7564511835298338,0.03916870594332843,-0.27845228644963554,-0.5824142156862745,-0.9085818476497081,-0.948653547135973,2.371336483403656,0.10880429628570415,-0.9010726475031661,-0.9906175945882728,1.3356461288166737,-0.5387551701214411,-0.39302507302523904,-0.21279545723864818,-0.09782373761888667,undefined,1498737177213
903d185fccf839df,-0.313320468859746,-0.5381829679810223,-0.4591356169813408,-0.6043485167134783,0.5605281497362106,-1.6568937443496063,1.891692352303302,-0.33354891977258894,-0.379404686429347,-0.7544806885467968,0.10397709685272245,-0.6021490875630295,2.13751253342246,-0.8521059804971417,-0.8854955239022673,2.472367091180703,0.0983351542484215,-0.8456530570777923,-0.8813344052485351,1.8104263943137804,-0.38581727839574465,-0.43673047635339524,-0.2171330884514647,-0.10809479115879285,undefined,1498737178721
903d185fccf839df,0.051201304614274724,-0.7295500327365486,-0.5956701847851634,-0.7143112449337666,0.46389402631386467,-1.6497336627664905,1.837510440834084,-0.7302760360927649,-0.41493324483220845,-0.7515686866160526,0.10779262489412046,-0.8590374142223682,3.638912098930481,-0.882658499164331,-1.011811496747341,2.502676030437212,0.13746404234037785,-0.8987231250223603,-0.9481679430300574,1.367182144188694,-0.5200258563766755,-0.4458348884085577,-0.1839314210828493,-0.16137947169195266,undefined,1498737180228
903d185fccf839df,-0.4061836358834793,-0.7911867244512636,-0.6837154226390014,-0.8501306935473731,0.17625450789489902,-1.5671924135459954,1.838407209576557,-0.7131484794396286,-0.20944494374172754,-0.8637892134252052,0.09319056184938826,-1.0138644974621176,3.4256698418003566,-0.8863618573260974,-0.9718114424835551,2.375377716759449,0.13424756067443802,-0.9050307370966794,-0.9801083846209183,1.5735521122945693,-0.4788505665577482,-0.43235823570193566,-0.18886540353183537,-0.11624069262414814,undefined,1498737181725
903d185fccf839df,-0.8330761457988478,-1.0289280325143642,-0.8368380174055883,-0.9213928309084376,-0.32942120935170144,-1.5864109687503456,1.848855426594036,-0.8591810640093805,-0.16303040540929062,-0.7722129126429714,0.07696174206380915,-0.9835663389195906,4.178545565953654,-0.9456152220549799,-0.9781272525372712,1.876287715026207,-0.043621452391387414,-0.9981693392507096,-1.0718015914350405,1.002731741620074,-0.6611161296927934,-0.4370928391864812,-0.3246494179053472,-0.1126979913929207,undefined,1498737183218
903d185fccf839df,-0.8164439862202588,-1.0430163924692775,-0.7609151120392464,-0.8802073127134801,-0.26326361066948795,-1.5632560042556352,1.7987313359136814,-1.1190337719065087,-0.16897604667937546,-0.8183851162303943,0.061740218753312606,-0.9928209167786107,3.9087288324420677,-1.0233852545603366,-1.0202325670026506,0.7750564729724198,-0.44307375145319183,-1.028491473018859,-1.0988862470054177,0.17297110859176498,-0.8769451393219169,-0.3956126017273183,-0.345358400080722,-0.1905885474217581,undefined,1498737184784
903d185fccf839df,-1.0063278770866364,-0.7641840345376798,-0.7481548958086975,-0.8379898971488211,-0.5828710769123858,-1.4981537670609455,1.761593210546724,-1.2720925753098526,-0.4024684839650389,-0.7810670186488168,0.05111854722597729,-0.8358582202320023,2.781591187611408,-1.0178302658830916,-1.0297062563154065,-0.2150413888267755,-0.7886265689699029,-1.0162118955827426,-1.0893635879589125,-0.37515195401993395,-0.9749534236921186,-0.3676892139039154,-0.5646159175443203,-0.2902795663243143,undefined,1498737186227
903d185fccf839df,-0.46578220770675666,-0.7847295594719284,-0.6269325874815336,-0.6943380225128973,-0.7031005912334715,-1.460282663319303,1.7573644750544417,-1.2328044065407344,-0.4197488698561618,-0.7993287803516435,0.06506133674653375,-0.46915255906384695,1.4760263480392157,-0.9141368589908087,-1.033916785921386,-0.231206237455782,-0.7518890090865157,-0.9636864605840371,-1.0833463304336926,-0.44455274931567373,-0.9702872507980314,-0.3509863801380245,-0.5465516664130146,-0.24770154491819274,undefined,1498737187724
903d185fccf839df,-0.5794354361820873,-0.5769260163130184,-0.4042664330530311,-0.5177405755522093,-0.7895107336760684,-1.4664318531691904,1.8596507755736726,-0.5562612115885898,-0.5418113322608523,-0.5153010512765093,-0.005742023000774389,-0.13696282074621807,-0.3125974821746881,-0.7123050953996672,-0.954969327740754,-0.2594947861521668,-0.6631108133196437,-0.8883877593961268,-1.0331372154909009,-0.5131374283893781,-0.9436786925625177,-0.3706322457825831,-0.5128396607407273,-0.2650202752032446,undefined,1498737189222
903d185fccf839df,-0.6833865025590882,-0.29868061492355746,0.0799844082386733,0.027923004288427068,-0.5681625341444169,-1.6438616513460975,1.8735598265195708,-0.7185520298330806,-0.36094405941494634,-0.7189948979876664,-0.005642616976204032,-0.10085869051574337,-0.3822276069518717,-0.6410158992062315,-0.9560219541604339,0.23555412354888966,-0.7131571381445948,-0.7518684928913982,-0.9648693319262053,0.15464695359694094,-0.7211440324665586,-0.40252774483308246,-0.436184581792264,-0.37143057869681634,undefined,1498737190720
903d185fccf839df,-0.4158856599601701,-0.4243019998894884,0.43663257895098984,0.4248650221988915,-0.9027665428804149,-1.7604889892296502,1.87868530980389,-0.9105767333123814,-0.3468940792253716,-0.7325948556417464,-0.04909443190600702,0.10290362435052072,-0.4213945521390374,-0.7271183985389876,-1.037074678064335,0.3264815914070117,-0.7578794550222044,-0.7341615827071469,-1.0626357693884563,0.21650250995088496,-0.7285942409683058,-0.43671265026430856,-0.4460285703250875,-0.45613928494411193,undefined,1498737192225
903d185fccf839df,-0.3022324659902492,-0.5293777430092014,0.4238721085834915,0.3823139424307802,-1.0245286223932775,-1.7889918890706056,1.9251776602325812,-0.6963505223727245,-0.34358661212398356,-0.7624131696009678,-0.05233413987125414,-0.003410846325424101,-0.5737104500891266,-0.673420051626593,-1.027600992432696,0.30627542462804785,-0.7549464332131494,-0.6838526789201518,-1.0367755558010199,0.6045741325728411,-0.6211195208317296,-0.43634675100521697,-0.4839917435073817,-0.49305740076281196,undefined,1498737193709
903d185fccf839df,0.17871466607176287,-0.6473678745435697,0.12273125967948684,0.03416825311638584,-0.5372231537797467,-1.737841796668681,1.8428805047444579,-1.0734270345342847,-0.2481614374275377,-0.5838778301181426,0.002808053033576864,0.020786602987926547,-0.5998217468805704,-0.7419317470060189,-1.056022075095431,0.4760066037474705,-0.755399831118836,-0.6834537035349161,-1.0623838839889161,0.6798109384369396,-0.6120493745511087,-0.4389554578729213,-0.49253812896641397,-0.5003757430051201,undefined,1498737195220
903d185fccf839df,-0.21907156458107485,-0.6350405595830205,-0.09610657574290155,-0.1439978631708783,0.03291303329862712,-1.7559958871498833,1.8736781650566303,-0.7714388140654252,-0.3207989429642939,-0.5492156023633346,-0.020264706378084606,-0.019540868475661728,-0.8130640040106952,-0.7345250824855842,-1.0823378901943388,0.5770368440831376,-0.6072280977735103,-0.6966135608121266,-1.0876143839796286,0.5793668785350286,-0.6484402038688271,-0.4163908777336249,-0.416479911004809,-0.46612308017482995,undefined,1498737196735
903d185fccf839df,-0.39509539147611433,-0.6526510387546545,-0.15926977315259333,-0.1046201762434851,0.03707873958894377,-1.805182431401261,1.8339154937379105,-1.0894192201760595,-0.2748894950218945,-0.40175823536170835,-0.012738786794727728,0.03552486774551556,-0.6520443404634582,-0.7585967777916272,-1.0707589333177554,0.03753459358613291,-0.8099796431711408,-0.7264227273327905,-1.0806455603464582,0.05796011937844079,-0.772529103870405,-0.43771345851659477,-0.51556929723867,-0.47885698881249933,undefined,1498737198222
903d185fccf839df,-0.06245185485023643,-0.6215392146262286,0.12336863514864073,0.08929163070622168,-0.3883171189581509,-1.8589063343951608,1.9116972698700612,-0.731290583111561,-0.33164663589014864,-0.7143446464843527,-0.04758973620098715,0.016250927433993555,-0.6389886920677362,-0.7187859090477327,-1.031811516517,0.19514198784401268,-0.7248905047270071,-0.6952139812892427,-1.0426388832300364,0.5270737610438563,-0.6486955518387622,-0.4498824120599373,-0.3830309581428751,-0.3648774913218591,undefined,1498737199742
903d185fccf839df,0.18148662365737492,-0.6227132300084752,0.21141438127637757,0.17245142893585982,-0.5576196893065871,-1.921395163575546,1.9399887206724875,-0.6376274044387387,-0.30870298511860617,-0.6449002111348077,-0.02700249612264117,0.13375200508398422,-0.8304715352049912,-0.63916420393688,-0.9749693327859456,0.621490297937972,-0.32466838537999954,-0.6531632347176936,-0.9860486772937825,1.0691606321386362,-0.49039725601255957,-0.4549054273350401,-0.2510785268677153,-0.2764662095871794,undefined,1498737201275
903d185fccf839df,0.18425865025380642,-0.5810351212998682,0.39005740850406223,0.4144753521777955,-0.5387557177412029,-1.899670349388317,1.9681118651007616,-0.39587536939868345,-0.32371115757380275,-0.46303668699539224,-0.0578769608014779,-0.021906273987135808,-0.9131573083778967,-0.5632458181354703,-0.9486535287303887,0.5447071750898461,-0.3249091175976913,-0.6006377992151514,-0.9729436501119231,0.995894828368647,-0.4736803714210007,-0.45977070777533596,-0.3403236772013415,-0.2769109132999905,undefined,1498737202757
903d185fccf839df,0.2951397831218861,-0.6585211887358684,0.6644025657347624,0.5558639480116173,-0.13649239308795058,-1.9413264631804048,1.9431260788234215,-0.49021521666547474,-0.3426637472144947,-0.31840060401928366,-0.028677364008373236,-0.012715168021793347,-0.8739903631907309,-0.4956599606776391,-0.9065482069027753,0.8619426368129451,-0.19999722099122513,-0.47639811020190576,-0.9253303515884187,1.09084164579061,-0.3784391246021633,-0.461355890042587,-0.45726143603342356,-0.36947434335024343,undefined,1498737204216
903d185fccf839df,0.10109764532840287,-0.5540324021582921,1.5059397156187855,1.5585295251251896,0.4049569684118268,-1.859181183640254,1.9207306589092297,-0.31213058136716704,-0.5002869585271827,-0.10287096732072243,-0.08765695458151394,-0.01180272181524717,-0.8609347147950089,-0.38178238845091167,-0.8886534731025281,0.9387256466021848,-0.25077367406272827,-0.3281375630242963,-0.886232173149711,1.275315021981339,-0.259901653905268,-0.4735569953078701,-0.5605226274787934,-0.44506726549897885,undefined,1498737205698
903d185fccf839df,0.04981515329442004,-0.5070711584665926,1.8147372025350184,1.7776166511565832,0.7497849578314967,-1.8580282096742688,1.7868209303625455,-1.0349837956192105,-0.5077210334240062,0.013919830193189958,-0.015339583926882358,0.0027622478183717634,-0.8826941287878788,-0.22809400575877525,-0.9339166705080643,0.558851548364564,-0.4967790950117273,-0.20273261359247707,-0.8894297165278046,0.7609299486306456,-0.3153012780892755,-0.4579036655304569,-0.5394941292330917,-0.46510956502238865,undefined,1498737207222
903d185fccf839df,0.09971177005182606,-0.438390389072394,1.9353216271191296,1.9055689345809323,0.6387200026945002,-1.8318894861702752,1.7495092442521178,-1.277596571277425,-0.5432486757896784,0.13681352320062684,0.017290812443138077,0.039754281778155286,-0.8565828319964349,-0.07070220662638686,-0.946548268528795,0.26182214036154267,-0.5194215400404444,-0.10397668977095674,-0.908943822240252,0.381558454241986,-0.3510056582807795,-0.452122352265642,-0.312803673799065,-0.5497500127549837,undefined,1498737208787
903d185fccf839df,0.17732865277354712,-0.438390389072394,2.0661137164137813,2.0397843036958094,0.48194541647225575,-1.832306420454624,1.780675074954157,-1.160591013463053,-0.42277461194698385,-0.05695941041390844,0.04494915103480653,0.03469714050378884,-0.9349167223707665,-0.06792470581237701,-0.9497061661934192,0.32648156314229015,-0.4923346231594964,-0.08569981435122355,-0.9027796321882207,0.3950166941215731,-0.3368321362541677,-0.4612510287538583,-0.3279216804020532,-0.5282417892147624,undefined,1498737210264
903d185fccf839df,0.038727184930332954,-0.39084214499656933,2.1018423218593183,2.0394614473989003,0.18127392718944768,-1.8501087963045573,1.826241719898339,-0.9765960150436254,-0.3631752866247559,-0.5494729412878896,-0.03516015611671646,-0.04403743658729461,-0.8565828319964349,0.05243370596396489,-0.9402324805617803,0.5507689685940923,-0.3424943884364788,-0.005119438867208387,-0.9051655449602013,0.6265785197045382,-0.2560534450416371,-0.45637011243511455,-0.2803427890312118,-0.4949173232888406,undefined,1498737211756
903d185fccf839df,0.1565383152786719,-0.4471956432722072,1.5008356291265659,1.3753703641859278,-0.2617413311567448,-1.842881166820819,1.937663970220537,-0.3820016494130426,-0.17604473322053624,-0.9166780112913709,-0.06369974696829832,-0.07020288853920403,-0.8261196524064172,-0.0244105177590397,-0.9097061340163347,1.19736362037239,-0.4173332088137432,-0.06376883010850862,-0.8591685111500162,1.0685139009704794,-0.18216266407972737,-0.42778556769803266,-0.5171608354255991,-0.46842609287569836,undefined,1498737213228
903d185fccf839df,0.005462727751515963,-0.5282036837849663,0.3626233248138062,0.28689446158828413,-0.3089115426044196,-1.8123238761313984,1.9995827550996275,-0.02116608268194306,-0.22007675307240374,-0.9686167700006203,-0.09291839423709075,-0.1492208663762454,-0.4213945521390374,-0.07996052108846212,-0.9633903869527131,1.1266421779696243,-0.3079026636269275,-0.2307622241412504,-0.905053596132984,1.009430066425807,-0.2848561367953932,-0.37255621402234046,-0.38099576444954686,-0.41589331393072143,undefined,1498737214712
903d185fccf839df,-0.10541847412738316,-0.42254089643913956,0.08253594321088424,0.08557818217308216,-0.2209379760924653,-1.7765094940263362,1.928772599996102,-0.45601651226110107,-0.25073509305980074,-0.5418175630461278,-0.0017746638364619614,-0.033024307677954855,-0.6302849264705882,-0.172543911773931,-0.9402324805617803,0.8680044303171912,-0.29657390525376615,-0.307036196053246,-0.9229724281947993,0.8747860610185676,-0.36152468578442176,-0.37026114647546904,-0.3194345965244325,-0.36585150628365914,undefined,1498737216228
903d185fccf839df,-0.1303667134952667,-0.5464012364107064,0.5559407277750967,0.3776268152193595,0.07632895643094369,-1.7537365232176287,1.9150003019728785,-0.39260035290053374,-0.37326462323554277,-0.2777686202475997,-0.038042438110755444,-0.09397150958683775,-0.6650999888591801,-0.2290198307295955,-0.9339166557835966,0.5871398709431764,-0.313383955483794,-0.3596819556419488,-0.9229374434858904,0.8757561595814831,-0.39465950843262076,-0.3270760594857257,-0.36316679020537057,-0.3444119213489814,undefined,1498737217774
903d185fccf839df,0.0983257567536103,-0.3802757873464073,1.3349525639924809,1.1419149711764447,0.03140103128678786,-1.7529725328302794,1.8667170653369025,-0.6773393772610226,-0.34703874653135575,-0.14942065349016928,0.026676260444782225,0.10576326999592535,-0.8826941287878788,-0.34474903994718886,-0.9265482229913176,0.35072882195343913,-0.504359488528754,-0.436810876218289,-0.9095805318036984,0.6591462259673295,-0.4703407228517871,-0.3275719895160403,-0.4441724912830137,-0.41749728643192424,undefined,1498737219245
903d185fccf839df,0.11079980742673261,-0.42782408987821674,1.5442203643104322,1.4814333803784565,0.14607627102357368,-1.79481265678877,1.941132689893021,-0.19561422562483582,-0.3625820799807279,-0.33912114790549025,-0.08349450862049779,0.03190304535646889,-0.865286597593583,-0.21513232665954626,-0.9170745152729772,0.24363653373103214,-0.5829200839163193,-0.36329173268541576,-0.9402265629541795,0.5188355931608869,-0.48125873295966837,-0.3730125961297374,-0.28213651126310796,-0.4238455773417537,undefined,1498737220704
903d185fccf839df,0.06228934198918128,-0.3626653374027657,1.5174239102262796,1.3605254547023398,0.06983868445441357,-1.8287356971363877,1.9320703766820797,-0.3230437650064133,-0.35046635926053804,-0.6065352121720972,-0.014363568303032368,0.049909324139018406,-0.6172292780748664,-0.2077256362375624,-0.910758749392664,0.2032245110850413,-0.6041368451463097,-0.2954849050416334,-0.9253163593797066,0.7198007042630408,-0.4056960420250047,-0.3964951375190419,-0.3254734487963372,-0.45357367855972375,undefined,1498737222687
903d185fccf839df,0.09139569026253154,-0.5211595622634944,0.9176929849796329,0.8946971908043586,0.039475308187216514,-1.874535527263284,1.8385781420878462,-1.015485100823972,-0.27192735647548616,-0.6788666057963642,-0.029692037554835665,0.07622037782282935,-0.8304715352049912,-0.19754143205079416,-0.9118113868556945,0.48610954581334476,-0.6733292501071529,-0.3032870916798636,-0.9342792742656565,0.9693325074563508,-0.34795910831157983,-0.381521003526151,-0.48505083159469603,-0.5520932320517804,undefined,1498737223722
903d185fccf839df,0.15792439758770713,-0.5569674771488989,0.8615480335652177,0.8134368292805759,-0.054134819309560135,-1.8866033150489356,1.8985140509652598,-0.6766177858856973,-0.24454968748179495,-0.7421261867743569,-0.017003543479920367,0.056306908263700405,-0.9523242535650625,-0.172543911773931,-0.9033903166003848,0.5608720519835741,-0.6370491384970111,-0.28199573588358173,-0.9399536880212171,0.9446180030670156,-0.34280779790267113,-0.39942373617449184,-0.4575594086755655,-0.5579434353274549,undefined,1498737225565
903d185fccf839df,0.13159007591078836,-0.44132537637902397,0.6484524225150511,0.6544671604370081,-0.3568737440898074,-1.855526605327256,1.824361409898071,-1.2393945082852116,-0.3535363572388113,-0.6053342435376069,-0.05273943466835039,0.000679912313393921,-0.9479723707664884,-0.17902475132354548,-0.9076008296413384,0.4921713675823124,-0.6184210928147358,-0.3189864591280948,-0.9400586404168155,0.9736748673490282,-0.3565429804536504,-0.3962442023900895,-0.43059846031323123,-0.5574230684920803,undefined,1498737227002
903d185fccf839df,-0.12066455139693696,-0.518224458044895,0.6171902739556303,0.6030729296918153,-0.5787773752025629,-1.8557292492900674,1.8964864656858975,-0.7966408524416223,-0.5049380380382675,-0.8169725509089371,-0.09683606592762138,0.02828678338483011,-0.9653799019607844,-0.2012447578356243,-0.9128639875075563,0.6012841028942866,-0.5817374694454422,-0.34146207668762896,-0.9583972815533088,0.9165774335458456,-0.38130471722377285,-0.39279687292633336,-0.42010353483547985,-0.5572565304611977,undefined,1498737228409
903d185fccf839df,-0.49211646037285595,-0.44778257058635157,0.6197418089278413,0.6620695285757541,-0.8470386384045338,-1.827356786631484,1.922795053056909,-0.6729453451296327,-0.4421890289716506,-0.6489924534076559,-0.10960740867026503,-0.03442187211467365,-0.8565828319964349,-0.3067898664726458,-0.9170745410407956,0.9508494031990062,-0.5847389020031185,-0.34992922337536525,-0.9525829317392582,1.2600551567014266,-0.3120694118436534,-0.43893782079267873,-0.10163750904611808,-0.43751199020979437,undefined,1498737229901
903d185fccf839df,0.2798936368415128,-0.6156690354170223,0.34603529785104203,0.15897976107867315,-0.389787972210281,-1.844681669583836,1.9337219037324669,-0.4841495395855611,-0.6679260855927456,-0.9944996386446651,0.001974748638264158,0.03437650071216109,-0.8391753008021391,-0.3086415164142863,-0.8791797580219539,1.1448277563354132,-0.6394402477135,-0.4063367528538487,-0.9101892544784277,1.1743166109487246,-0.338509926440847,-0.46422691414844136,-0.10679716904449359,-0.4406430405095334,undefined,1498737231415
903d185fccf839df,0.05951731539274977,-0.35562121588129375,-0.10631525700123952,-0.18171191186364108,-0.2866018537188534,-1.698698930768585,1.8542044625519187,-0.728299252253188,-0.7394157333393807,-0.961676890863688,0.0032461587769567297,0.054404823516050395,-0.45620961452762926,-0.46047824916478225,-0.8560218221820861,0.9286226480068674,-0.7056134521739416,-0.49152751099726877,-0.8646120284950399,1.0715011902865377,-0.383157947161146,-0.4763572024880621,-0.3054378676007783,-0.403490472447523,undefined,1498737232899
903d185fccf839df,-0.10957644501121094,-0.3984732815161627,-0.24540135977727312,-0.3017121069911465,-0.4811866701045525,-1.6413996473701629,1.8604291973989113,-0.6876484798912368,-0.576658158158547,-0.46646121060873763,-0.04763129423762081,0.11726111499306736,-0.2516711229946524,-0.4419616072898572,-0.7939165063526319,0.6619024619075705,-0.6795291374124985,-0.4732443022241449,-0.7883607830165935,0.699828913034163,-0.42762577616266406,-0.4849895498485484,-0.3199887637557976,-0.33134620571857437,undefined,1498737234426
903d185fccf839df,-0.07354009925760138,-0.3808628608005134,0.12783483789780756,0.06234303466239106,-0.39701881643811854,-1.6883431336236774,1.838091624780745,-0.8615257798109291,-0.5691210874279131,-0.15801252823095532,-0.170242439949179,0.1401991888179756,-0.847879066399287,-0.42899991523985365,-0.8233901933483455,0.4477180550510857,-0.7434258012937512,-0.4474375559248827,-0.7928387421122423,0.7539082563089933,-0.4089433242232046,-0.5108098919004417,-0.30839165865481655,-0.3692444242479001,undefined,1498737235899
903d185fccf839df,0.013778945562449414,-0.3861459373276212,0.19163591905055205,0.11000876306898419,-0.3944268216406475,-1.7288928595420245,1.8615442351150193,-0.7561574889186387,-0.5181173014325468,-0.23762890833656264,-0.24290725352133605,0.1079552918869573,-0.9044535427807487,-0.43362907894627856,-0.8244428308113761,0.5022744509717944,-0.721163467739096,-0.44960342289509075,-0.7892004004074337,0.7416664917214768,-0.4099916038777237,-0.5062998181348932,-0.2806327093868094,-0.37422370020455753,undefined,1498737237423
903d185fccf839df,-0.015327471721720323,-0.6479549187696834,0.4781036629056979,0.6153561165268937,-0.43385190149190583,-1.9003015719660037,1.9231895183388465,-0.6692086240679213,-0.3271394395614455,-0.2635377740668633,-0.15381970617255664,0.05198232138072749,-0.8304715352049912,-0.31789986972868517,-0.8707586877666442,0.36689369884716716,-0.7232063603813513,-0.41188441091174743,-0.8234987673065541,0.5888369201420529,-0.4431842172673836,-0.5193862107860815,-0.4357330253446092,-0.397309661875069,undefined,1498737238913
903d185fccf839df,-0.12620867360061944,-0.6949161478473868,0.4940532978515105,0.4696455327873605,-0.627747576462102,-1.9475525188726663,2.0005163369005046,-0.2527927649150014,-0.40786536563389447,-0.4102635414369028,-0.12051405620504882,0.03969875396908978,-0.8826941287878788,-0.354933218232408,-0.8244428602603112,1.389321272036736,-0.3945487236398294,-0.3958240663604514,-0.750605992070462,1.4111293097675262,-0.2501874038425955,-0.4831428920669859,-0.31628326656988504,0.13933474552571148,undefined,1498737240972
903d185fccf839df,-0.26203804583658263,-0.7101785524125389,0.34475902209103776,0.29646993609186867,-0.7681576207186696,-1.9719536293534015,1.934279407401455,-0.7751500858430748,-0.40962648589368283,-0.639234701109803,-0.053745930673735606,-0.002115440813333638,-0.852230949197861,-0.2280939928080007,-0.7981270120313516,1.1367452896238277,-0.3788048829603546,-0.28942427978607904,-0.7531668254936171,1.2987976522965992,-0.2210739811577142,-0.5278644432165666,-0.36936133959764844,0.16593781972392987,undefined,1498737241940
903d185fccf839df,-0.5725053696910085,-0.817015413596597,0.669506652226982,0.6310205060206575,-0.6644675076235422,-2.0120631287850395,1.907931377692337,-0.9573047747616592,-0.3678977100778879,-0.45441549519867885,-0.07629870552695549,0.007341102346957882,-0.7913045900178254,-0.2660531144794456,-0.8223375706097825,1.165033753526048,-0.1281525908879623,-0.17892707859706736,-0.8105756579721209,1.3244668640730508,-0.18402687663622896,-0.4944759762768429,-0.3918348991880907,0.30320615080585794,undefined,1498737243408
903d185fccf839df,-0.2939163516955449,-0.8222985631936857,1.0031866878612599,1.0326607472258325,-0.4938277967761357,-2.0099528385030623,1.92211129787123,-0.8023917420841123,-0.3720427288704375,-0.7448460838201385,-0.05460642922055542,0.01568450534551062,-0.8304715352049912,-0.2419814839272754,-0.8097060020379869,1.3266823811397204,-0.07307649939514897,-0.0801331571799228,-0.7915723199369188,1.4975761890860477,-0.10716849309786487,-0.4106023991137175,-0.3387172144937056,0.33216328124509326,undefined,1498737245452
903d185fccf839df,-0.2634241281456179,-0.7841425298598108,1.1505675665295239,0.961851534343752,-0.4266519120085724,-1.9773085508842587,1.874730088537132,-1.0513921512083355,-0.3670859999098217,-0.6852533896181147,-0.06697267314817276,-0.1358393674094802,-0.8609347147950089,-0.31049317930670134,-0.8297060181265291,1.5772378599336185,0.0011540607782803273,-0.12029668563313255,-0.7827073604582957,1.7315093711213494,-0.07432507797534686,-0.3901051717231395,-0.3990313603088079,0.30645781938748323,undefined,1498737246413
903d185fccf839df,-0.36321708561715205,-0.713113642017142,0.2860620274305128,0.1890180787929937,-0.35091832488837366,-1.8883059909766478,1.8996922039644955,-0.8104469751963832,-0.35481591851134653,-0.7281233658881091,-0.03470302378616748,-0.11474425569507046,-0.33000501336898397,-0.13551056327020816,-0.8202323104081888,1.7368657578105087,-0.0809197373993014,-0.15576117128403072,-0.8020325520018051,1.5659760830718747,-0.11164386138943122,-0.3551859001851255,-0.43909278486503267,0.2861077722190135,undefined,1498737247909
903d185fccf839df,-0.2828282453098189,-0.7418774061530824,0.2739396949430166,0.18301434395860772,-0.34821318689334135,-1.8778523650257712,1.886303862484573,-0.8915600539631908,-0.344427735101387,-0.5774549167836144,0.010130069139626732,-0.0939702587220331,-0.33000501336898397,-0.1493980932418065,-0.8086533719371901,1.6782681850634502,-0.10215670850368014,-0.1612138358400953,-0.7971697684241633,1.5250778112664978,-0.11855548992379941,-0.35434251705497755,-0.46117721343427553,0.2893220538584071,undefined,1498737249563
903d185fccf839df,-0.36876113881001504,-0.6931550736250303,0.20439613528110095,0.1643928748962362,-0.3668508677624825,-1.8852034440317618,1.8636375639096903,-1.0616927099365943,-0.25958897755885246,-0.5890424941812584,0.1401370300048812,-0.19357801364565522,-0.16028158422459893,-0.21976146446442205,-0.8486534114765084,1.456001254965937,-0.08741980670232521,-0.19535473528796538,-0.816452979438851,1.383858669424835,-0.1684194344538094,-0.33151888604534585,-0.44847244021794697,0.33290960365052563,undefined,1498737250969
903d185fccf839df,-0.30916263599755717,-0.6931550736250303,0.20248248405194277,0.16661316477130383,-0.3746679975917396,-1.884527964728349,1.8867956352085138,-0.9113398345875293,-0.25724446891778296,-0.5493908674429482,0.15236543756592222,-0.24097614226047853,-0.10370710784313725,-0.21605811277804285,-0.8433902536102905,1.314558737601785,-0.11204743651855288,-0.19019338626286744,-0.820693046891288,1.2746374927376067,-0.19064395417170674,-0.33217674008794884,-0.4260682083450033,0.3344527726671015,undefined,1498737252398
903d185fccf839df,-0.4935024736710717,-0.626822349609321,0.26181736245552045,0.2167597643275922,-0.4555547157253767,-1.9148267074159795,1.9244676091073092,-0.7549813858272505,-0.23564566651146618,-0.23083861756507063,0.1298738192491207,-0.3361704583197392,0.2618510472370767,-0.14847225532021172,-1.0160220097882946,0.3992233678404586,-0.3126773008611955,-0.1866912690404497,-0.9416819000324886,0.5129225911730353,-0.37167153362967037,-0.3039009419879613,-0.3477069092665442,-0.2760245531933634,undefined,1498737253899
903d185fccf839df,-0.3299526974491545,-0.5405310279735078,1.176725628596725,1.3416465696104238,-0.2296705214891587,-1.9246724012931342,1.961681988823256,-0.42076994853824456,-0.29293000020148785,0.10482975307874652,0.19817815364383867,-0.22232604710879433,0.549075311942959,-0.1456947674569764,-1.0023377963912345,0.49419204078965184,-0.30013384986447955,-0.20843226464617953,-0.943144233395607,0.5567927639053697,-0.3740846894969782,-0.2929234658470121,-0.38114129012545467,-0.2907101748947697,undefined,1498737255379
903d185fccf839df,-0.023643551511014837,-0.7060694474256892,1.9633935945524383,1.982360693725236,-0.2637264702350521,-1.9862458403886991,2.0188224223801843,-0.10412051420278638,-0.3674158659424286,0.19926672386173064,0.1505855961730607,-0.32713567574328367,0.7187987410873441,-0.21513230075799716,-1.0307588900973204,0.20726574444083407,-0.439540490958707,-0.2629842418541906,-0.9990627463379713,0.4504510977685915,-0.4335482406455806,-0.27421250845268813,-0.41538071242628816,-0.36789848485165655,undefined,1498737256876
903d185fccf839df,0.40602084697914625,-0.5792741055334963,2.0833398812565473,2.1199190571428,-0.10673588035195211,-1.9609200224050911,1.968766695067145,-0.3339830164632933,-0.3102716010508379,0.4826633927430153,0.21764109633876103,-0.31364482929863835,-0.007965686274509793,-0.20494810952200346,-1.0139167716734023,0.025410950048197663,-0.5658976732185798,-0.33603474743866696,-1.014511704606865,0.06909319582651288,-0.5432264729417193,-0.3904704130199308,-0.5338453873499142,-0.517403842941796,undefined,1498737258393
903d185fccf839df,0.3048420142310353,-0.6097988708218124,1.6386459644164941,1.7119398008271554,-0.32779607840601616,-1.959112533614662,1.8801685241949957,-1.0063593694771915,-0.22841171288002904,0.27155930699278263,0.27018127711362583,-0.27170834433014107,0.43157447638146174,-0.14291720188909382,-1.0076009763441538,0.3224402732570543,-0.4608932441911858,-0.2531998438006434,-1.0011407989970666,0.5389613590167414,-0.41732615777954685,-0.4263203262652503,-0.44450042897001363,-0.5083880910375053,undefined,1498737259872
903d185fccf839df,0.45730368406722643,-0.5822091659101072,0.9412997662115725,1.1512227183739554,-0.4423684513498589,-1.9461153788170673,1.9061168195875517,-0.8364395874638976,-0.2782675043166809,-0.08282856727567807,0.30227473757240547,-0.23368420708476909,0.11388703208556152,-0.2558689879973246,-0.9991798987266103,0.807386156098072,-0.31784557062284674,-0.3226215720323308,-0.9682767777526614,1.03656212454239,-0.3460829292356469,-0.41934232891719836,-0.2609143561040669,-0.4539215479982595,undefined,1498737261376
903d185fccf839df,0.05813137110535349,-0.5968845847051303,0.6695069063639314,0.6895101685761368,-0.4653981289254865,-1.911954756806755,1.9109267369314524,-0.7913803733244666,-0.3024254108039913,-0.49633510914106294,0.11568557525252875,-0.13784115652707074,-0.38657948975044565,-0.20309643367881386,-0.9560219541604339,1.0256119658986786,-0.2681315604149529,-0.3352494596764839,-0.9316764601913383,1.1214845517844643,-0.3259694593536444,-0.4458904310709062,-0.2292026673063588,-0.41368984883339893,undefined,1498737262921
903d185fccf839df,-0.01394145842350457,-0.5505103413975561,1.108458598831763,1.0461044504601003,-0.5242528853910858,-1.8851894683867034,1.8824827564806126,-0.9210650692806859,-0.38684564372983987,-0.6007524467313242,-0.03580412070409203,-0.135162477451769,-0.5214878565062389,-0.11421636877817509,-0.9244429480652564,1.344867874711345,-0.23504207148646533,-0.251717931874064,-0.869663725238422,1.230890505899516,-0.25360176543437213,-0.38745735089580396,-0.18243086120628943,-0.42969169919965283,undefined,1498737264375
903d185fccf839df,0.0345691450356857,-0.46010994400288535,1.673099056512875,1.577068133909212,-0.1696637698520053,-1.8507190551213217,1.8743908438903216,-0.7965423181594572,-0.3050357355156515,-0.5115985943771744,-0.016244125556574767,-0.06843408934251718,-0.7303782308377896,0.0033645162826078765,-0.9276008751788157,1.593402652033182,-0.24300884805254191,-0.1352740957913115,-0.8403191006418519,1.4177660430666035,-0.13975455166899287,-0.3111471029523281,-0.4476789635571303,-0.45347417257824674,undefined,1498737265887
903d185fccf839df,0.8675639653931865,-0.49885293387889695,0.9419373958176758,0.9601450682732964,0.4077444116842981,-1.8900156495440412,1.8335604776029704,-0.8394095820611047,-0.43519189072444836,-0.6207692193983864,0.10650684615317123,-0.11099579860345182,-0.6389886920677362,-0.09662551302174666,-0.7939165063526319,1.4620630767349045,-0.28197927286907803,-0.22591118508757532,-0.7975615892643706,1.0988334437967398,-0.2257375644631793,-0.3300569524218119,-0.3516679305430019,-0.48191903963238547,undefined,1498737267363
903d185fccf839df,0.8301413993089027,-0.15368776424761307,0.060205437738948944,-0.16994292733042465,0.25887951531372666,-1.745919595331542,1.8401718145095551,-0.6727304413098998,-0.8924044587857443,-0.6907261274528054,0.20776955389031193,-0.1115572647158252,-0.5650066844919787,-0.19568976915837913,-0.7918112461510383,0.9589317144546233,-0.28456353137834284,-0.28145110063446616,-0.8348755818042652,0.507117379972634,-0.38330283805883036,-0.28328187347243516,-0.36433386480313595,-0.3506782451346291,undefined,1498737268889
903d185fccf839df,-0.13452475338991396,-0.10672659362589441,-0.11269511097956454,-0.19643953210907888,-0.23357908388113002,-1.7912372759928334,1.8781277904220754,-0.6893680050011004,-0.8670557436626054,-0.7022795557569386,0.05926306358069391,-0.06563632585934603,-0.7434338792335116,-0.3753015359505226,-0.7654953979220785,0.7366649115483568,-0.49863579981542405,-0.35887767071527016,-0.8731061562998541,0.4956301374618855,-0.429157054556179,-0.25065950723182284,-0.42639703298976545,-0.4309327487612916,undefined,1498737270384
903d185fccf839df,-0.22600163107215362,-0.29339756762444197,0.524040441335674,0.38428111279116134,-0.44252273565513633,-1.7985347838282577,1.907786741120641,-0.6214868860731413,-0.5599642670853935,-0.2996851008359797,-0.11411437174544509,-0.03889252104456742,-0.843527183600713,-0.5002891114332895,-0.8581271044703811,0.5527896700661532,-0.620051624182551,-0.4246769575996225,-0.9408212924353497,0.399035690038918,-0.49088460524450206,-0.35151818160628234,-0.5053075294740125,-0.5185772393875756,undefined,1498737271894
903d185fccf839df,-0.2149135246864276,-0.39612519229568477,0.5482845980367674,0.5598887221047771,-0.44140159474396046,-1.8154776697748296,1.8859751302427257,-0.7968475595576288,-0.5388578713736485,-0.24845967801279306,-0.09789564819104922,-0.021161398086466932,-0.8043602384135473,-0.5049182880904889,-0.8718113252296749,0.5143980803773688,-0.6152987425036808,-0.4531182068519732,-0.9511765725878855,0.3786789449166056,-0.5130710076386108,-0.36950835296622075,-0.4966296851413016,-0.5185945811781423,undefined,1498737273800
903d185fccf839df,-0.24956392615264086,-0.4460215694339759,0.7709507524652699,0.7276302042290667,-0.5814310787668543,-1.8767925625814972,1.9345555435740291,-0.595416991997889,-0.45149818102682965,-0.055756005939859646,-0.1266507687137362,-0.15686893109234318,-0.7477857620320856,-0.551209951056287,-0.8623376616847374,0.6396757915095964,-0.6459531864504824,-0.4983227603216336,-0.9373298834102788,0.5101046784026759,-0.5121330241023643,-0.32656158492225834,-0.3871296879058353,-0.5051647673960463,undefined,1498737274885
903d185fccf839df,-0.14561282527023026,-0.4988529923348816,1.2488212315047504,1.291186831355061,-0.6738377793120265,-1.8185918613968075,1.8773125665374113,-0.9004098213614321,-0.4480690705763283,0.05739725275079731,-0.1609886936884479,-0.13485118925552686,-0.7173225824420678,-0.506769976884453,-0.9697061822819615,0.2315129184578184,-0.778194777060645,-0.4690962265571228,-0.9762181577673688,0.23980036427878887,-0.5720337475139223,-0.39431008865674677,-0.3676569821102331,-0.5392761466632304,undefined,1498737276383
903d185fccf839df,-0.11927857260413095,-0.37440563736519344,1.2890157855625048,1.4021254305873352,-0.6259578540505104,-1.747284531501993,1.8862249856647735,-0.6862734885360086,-0.4484305996791852,0.07553149123482492,-0.15997294540557633,-0.12527502551280542,-0.5911179812834225,-0.2984573251782926,-1.072864197200466,0.14866800210544653,-0.677791931342899,-0.32103200426002865,-1.038657697431364,0.3805421576906564,-0.49363210888414166,-0.3916123403461957,-0.40142735784450745,-0.47955722616262225,undefined,1498737277885
903d185fccf839df,-0.047205777580682624,-0.28165717997803724,1.3604729964535787,1.3714460425629351,-0.2747938675331325,-1.7007183806127923,1.882456458969737,-0.5678576690878595,-0.45558142273294233,-0.04002679472476832,-0.11268456936911306,-0.08708151990676817,-0.6999150512477719,-0.28456982110824336,-1.0339167877619444,0.16483276594028842,-0.6182597801805704,-0.26031807226702863,-1.0202420917055486,0.4006063328072079,-0.45692362295623956,-0.3913419088098674,-0.44864920566998717,-0.4220689646625887,undefined,1498737279376
903d185fccf839df,-0.2883723675135014,-0.1319682677731064,1.1569471663708994,1.1472912667609578,-0.34173318877676656,-1.7210945644806053,1.877967373982076,-0.639575121556763,-0.47891866577649156,-0.27062108251419026,-0.08093032736008063,0.013500411654540617,-0.7521376448306596,-0.35030404157520856,-0.9939167298170417,0.304254836214873,-0.562355772258319,-0.23639221145801834,-0.9852440435780679,0.6825672657452211,-0.3779329801639153,-0.42117667727556296,-0.4583943064294018,-0.24356000191964267,undefined,1498737280871
903d185fccf839df,-0.27035419463669663,-0.32157419985029156,0.6452622413889391,0.5685616453788366,-0.3435023349490193,-1.8819564827399955,1.9256378616971745,-0.5694788198777455,-0.4323708003193395,-0.5941797005852737,-0.06863099100216372,-0.09149237405500237,-0.8000083556149733,-0.3641915456452578,-0.8539165398937911,1.1690750716760052,-0.27562755160090613,-0.2487984475572893,-0.8920115381814477,1.450795705546793,-0.20536396140858912,-0.46146673675585104,-0.4051546336756167,-0.04307359618559112,undefined,1498737282436
903d185fccf839df,0.21336496402174696,-0.5804480916877507,0.7728646578313776,0.669384966202011,-0.6040390467389402,-1.9339637360506978,1.8957396004547005,-0.9091438773379628,-0.5283789374306442,-0.12113313451234836,-0.04349579047791482,0.09059342193289396,-0.8609347147950089,-0.3827082004709574,-0.911811372131227,1.1993840957266788,-0.34664350450761233,-0.23686084831015558,-0.9111688072487638,1.276716279305343,-0.22830702439567646,-0.5546076336477572,-0.4356378654272238,-0.0254506167934224,undefined,1498737283890
903d185fccf839df,0.19950472752336024,-0.7806204252570863,1.2296806530219777,1.1366788824467262,-0.40770565938405723,-2.0162674046024383,1.9996721652748262,-0.2788420834758975,-0.37885339783879296,0.0318851726805434,0.02863756710323516,0.06674453921648126,-0.45620961452762926,-0.24105568485800424,-0.8612849947727715,1.1710956318244585,-0.19433052031436993,-0.11374842337668245,-0.878017917186609,1.374650389382017,-0.13147718446706338,-0.6038963388989123,-0.5906441322576043,-0.09729318553386956,undefined,1498737285440
903d185fccf839df,0.10525568522305014,-0.7142876720133848,1.8766243783216552,1.9481378884849352,-0.19527515857859973,-1.9954160551676616,1.9662184066069368,-0.3986353561744202,-0.3675192792134269,0.10626282940362214,0.09460029629218318,0.07721866965406723,-0.7260263480392157,-0.21883565244437636,-0.8591797272089441,1.1731161919729118,-0.09268329023332136,-0.1201446949959485,-0.8637374265115151,1.3082368921797618,-0.13803139500619518,-0.5867206791158375,-0.608726398539014,-0.09677037545048096,undefined,1498737286873
903d185fccf839df,0.11634386061959562,-0.6737836225290129,1.9608418054432781,1.9288525826627945,0.007918790131314116,-1.9647446330019356,1.8930782435395779,-0.7932182164981364,-0.32262176929759895,0.1504207318285119,0.1698997367400229,-0.0010875908193900261,-1.0088987299465242,-0.11791972046455429,-0.8623376248735684,1.0660240450741125,-0.14858721390824567,-0.04907639885573619,-0.8536410269483753,1.4621135575245032,-0.06896536544430684,-0.598701084554035,-0.7241785686541713,-0.18532174993708153,undefined,1498737288440
903d185fccf839df,0.267419517157571,-0.6802407436663597,2.3040921303189426,2.183375631951218,0.24943724636265494,-1.9507715268719394,1.9833673775150904,-0.09523265829809097,-0.24285353116803413,0.1372664960788851,0.21763568443997747,0.026071025588227065,-0.9305648395721926,0.1403879329430089,-0.8118112696018143,0.9750966902748767,-0.1356169814515341,0.15201356120650755,-0.8307824453983107,1.2390362814404814,-0.005697708044557613,-0.547176395802422,-0.7971957060384747,-0.2523792227387332,undefined,1498737289866
903d185fccf839df,0.5002700963119148,-0.6925681170828935,2.1362949056818006,1.9917896519557512,0.3460919461523731,-1.917402846607953,1.9138878987740828,-0.46067155610640975,-0.3274748581630491,0.16112091926579822,0.31219129034959187,0.016162345461177355,-0.865286597593583,0.21815792983373553,-0.8591797198467104,0.49419195599548726,-0.16588701673923648,0.23307524308421418,-0.8608897229493252,0.6709568359670731,-0.08659710700976274,-0.5046208032600354,-0.6306595776296141,-0.4031062578637025,undefined,1498737291411
903d185fccf839df,0.38523071651672947,-0.7148746870115062,2.1618155922798477,2.0797368610603186,0.32840054378930694,-1.9491107802722876,1.8897068292140526,-0.675922206713925,-0.21800269886927753,0.48135582036859553,0.25753896010543903,-0.004367608959291724,-0.8565828319964349,0.22463878233412457,-0.8623376248735684,0.2577808222115853,-0.31372415710398194,0.2493699063301073,-0.875499064451319,0.5741776051255544,-0.10396979073971382,-0.44591699534654033,-0.6862880979457968,-0.46510182243726533,undefined,1498737292888
903d185fccf839df,0.3478083574649041,-0.6626303229507104,1.4880756670329665,1.449912912549487,0.2949308805968201,-1.975892373286225,1.825728902461558,-1.1383310152885429,-0.29316362136960744,0.1966805166200472,0.1489801102822202,-0.04901806969907543,-0.7129706996434938,0.2348229606193437,-0.831811270965889,0.5143980662450081,-0.39693939917339216,0.16219060471909594,-0.8438454921186361,0.8581095438732746,-0.09015684150898286,-0.4385215709872202,-0.8122090446063428,-0.43513875000006563,undefined,1498737294395
903d185fccf839df,0.3297901155772799,-0.7113525970227779,0.883878539037153,0.8651444496881137,0.2350784127768174,-2.0034332968567923,1.9042259840882994,-0.7019322778661797,-0.26433867747708045,0.11421010310124541,0.056005292369550694,-0.07402682309738184,-0.9305648395721926,0.17186631867103563,-0.7697059183252658,0.8296128547607676,-0.27336676198806054,0.115301486979963,-0.8052790722179981,1.1669407659055449,-0.03742002033501531,-0.5106239035852034,-0.8590485791676176,-0.5042772525270253,undefined,1498737295900
903d185fccf839df,0.41710902237569175,-0.8187764293629688,0.4557731574337626,0.3112108710827645,0.0997083527992059,-2.0427881225295086,1.9461608678303817,-0.4985988783663496,-0.25279460137824183,-0.30423597287704063,0.03277612374394018,-0.010990382713017428,-0.865286597593583,-0.0244105177590397,-0.8002322648707114,0.7993037459159295,-0.3724432812720747,0.00808474874444726,-0.7978834431029991,1.3555563210269281,-0.06220253830315097,-0.5065373907095939,-0.8143742586864167,-0.5035304630015609,undefined,1498737297378
903d185fccf839df,0.015165027871484636,-0.6984382524501112,-0.020822062393511295,-0.11191047971741672,-0.25471619683662616,-2.0108682282358807,1.9124046843829776,-0.8344609300779907,-0.2667168665908298,-0.4896110767654818,-0.014190713463011798,-0.16606409438132289,-0.8174158868092692,-0.20124478373717336,-0.8633902549743652,0.8498189932750099,-0.3966462362939294,-0.33585109083734593,-0.8904092704481483,1.2100872082555525,-0.28960972061928736,-0.47295858074026664,-0.48365719702520926,-0.42118419615092967,undefined,1498737298878
903d185fccf839df,-0.2883722985026819,-0.6549990841331439,-0.06867249205264554,-0.1601677770216182,-0.40112280867023664,-1.9938531357698126,1.8760791719526129,-1.1008019276408263,-0.3195814072602848,-0.49438266096571637,-0.01659662257881139,-0.11015206739291007,-0.5345435049019608,-0.217909801572007,-0.8686534275650506,0.9084166225515113,-0.4054928892199732,-0.3599479419949024,-0.8980497880722892,1.1715910941551928,-0.3093324814514461,-0.46572632607508463,-0.453884377396044,-0.40354654590737266,undefined,1498737300787
903d185fccf839df,-0.40202559598883203,-0.5446401621883499,-0.06739672456654007,-0.1296831611340628,-0.4819272486695044,-1.937031346763053,1.8868797847292633,-0.9650088948537504,-0.3608139050178866,-0.6053239149705627,-0.05511271478963792,-0.18022161884584975,-0.19509664661319073,-0.29290233650104747,-0.8549692141679907,0.9185196776762717,-0.4875817335819234,-0.42668450176963896,-0.9146672132682232,1.1202834733358247,-0.3574936223832815,-0.4598447406819713,-0.3945557035701401,-0.39001898197684637,undefined,1498737301875
903d185fccf839df,-0.01809936029651289,-0.6168430946412575,-0.2192430435731226,-0.29342529219805036,-0.1852157516322165,-1.913999830290172,1.8703724952939353,-0.9750380864802217,-0.4839107536422939,-0.5811474530630591,-0.018750811783554595,-0.07886970482662536,-0.6346368092691622,-0.4373324176818832,-0.9054955768019785,1.900535115160964,-0.1899319809970347,-0.5190441525102133,-0.9213281771677664,1.7482012853523958,-0.26300438352434696,-0.4657392961981567,-0.30448363000909096,-0.33805555379091123,undefined,1498737303426
903d185fccf839df,0.5792727162885737,-0.6303444395980494,0.24522882721885744,0.1099527752187745,-0.22699625302248108,-1.9037045926563954,1.9045073767252352,-0.7297314596601803,-0.5438565502809023,-0.6361826200315294,-0.012800959379762765,-0.01605652403640247,-0.8609347147950089,-0.5289899833965318,-0.9349692932466273,1.878308416498268,-0.26424849840472914,-0.5648629994735509,-0.9750566874676933,1.9055271957055635,-0.2536467116727369,-0.4004362073589666,-0.45476844990705145,-0.37485593376936927,undefined,1498737304879
903d185fccf839df,0.5598685301135532,-0.4695022132008199,-0.18861852461980522,-0.2530498828732917,-0.3547343267377938,-1.8235158723232483,1.9049728514145396,-0.6400978358842297,-0.48123401550693545,-0.8759701506552109,-0.03450012729002057,0.07883787498970049,-0.9001016599821747,-0.5891691828093155,-0.9423377223577895,1.635835432680677,-0.20786456645644746,-0.6222331361861413,-0.9703058531821656,1.3237893269134804,-0.3999099186336014,-0.33814876585451303,-0.5186290693968963,-0.36706297021800816,undefined,1498737306365
903d185fccf839df,-0.5309249017337164,-0.3638393089430238,0.05446346750367665,0.08727003205970885,-1.0881353774803655,-1.7844312380210736,1.9202257293115568,-0.6921585656054763,-0.0913123689813027,-0.7600862367042713,-0.0941069052606405,-0.0061023396723227045,-0.8000083556149733,-0.5049182751397143,-0.911811372131227,1.2943528252053151,-0.4061038503223717,-0.5173469225305591,-0.9499381374297372,1.4665021205481963,-0.3220529755243176,-0.37740985195678584,-0.6381645162376293,-0.4308850631187832,undefined,1498737307884
903d185fccf839df,-0.6431920133946022,-0.6133210046525291,0.1878081083183368,0.13754724002442592,-1.1130473322226286,-1.8627356011364495,1.9473100956103209,-0.6352852951424759,-0.24074489702452984,-0.8412249989107916,-0.09123040729083082,-0.022803962756715996,-0.6999150512477719,-0.4327032928277819,-0.8676007753775524,1.5368257524934632,-0.35682359765183186,-0.49221146934628696,-0.900785541118953,1.776026272477464,-0.234291699193646,-0.44139649804667386,-0.4958217916267597,-0.41977434732178015,undefined,1498737309380
903d185fccf839df,-0.7873376034414988,-0.7864905752383001,0.12719695415475482,0.08240240366540053,-1.195826620979961,-1.9764257680160935,2.0215048177230153,-0.32166645083367157,-0.2262473611612994,-0.6592369821419476,0.0038777702617107217,-0.07233430623354768,-0.5867660984848485,-0.4206674127978241,-0.8591797198467104,1.340826754414438,-0.43010724591325444,-0.514668087144629,-0.8988334304439317,1.8560057911250754,-0.23044750832796723,-0.45090557777713963,-0.5156045696770364,-0.5420035354137417,undefined,1498737310882
903d185fccf839df,-0.5669612819927358,-0.4460214963639951,0.4825693573809659,0.32257858813122114,-1.006652080744368,-1.8079588831509086,1.9756383699463689,-0.3281526718292245,-0.14163886216490856,-0.7470198160528139,-0.09429008244703362,-0.06970982391662134,-1.017602495543672,-0.4197415878270039,-0.9118113942179283,0.7407062296983142,-0.4026206170925914,-0.47998888803231055,-0.8911929133703262,1.4592648472035978,-0.3103662026448147,-0.4768411611947077,-0.3913320489341081,-0.5202620409977444,undefined,1498737312363
903d185fccf839df,-0.40063951367979683,-0.3180521683175479,0.36708952756297303,0.14477698640254769,-0.9280076393437571,-1.6924705441233068,1.865917599846345,-0.8642720060372067,-0.18602695989460039,-0.7174955819534443,-0.1362019943736126,0.12860979061738498,-0.6128773952762924,-0.4549232863890862,-0.9170745447219124,0.5083361314171543,-0.6155815060031881,-0.4671583441695977,-0.9018490558461406,1.7801838494227709,-0.2498867634554645,-0.5047268410453501,-0.45586410405095,-0.5132766246570651,undefined,1498737313888
903d185fccf839df,-0.5087486199514449,-0.500026993103132,0.10040075420755154,-0.020588456711461436,-1.0552211380029337,-1.658934157166923,1.8973464119422707,-0.666018909858756,-0.3045057396679729,-0.764060039717334,-0.1360281733814855,0.09459569860039783,-0.23861547459893048,-0.46603325079280195,-0.9223377025881303,1.0114676774181255,-0.545625608692204,-0.5363077567477805,-0.9246446656640038,1.758533633940609,-0.279877412574394,-0.4727792538813148,-0.38550271443181017,-0.5006816951029398,undefined,1498737315382
