UUID,iqrAccX,iqrAccY,iqrAccZ,iqrAccXYZ,meanAccX,meanAccY,meanAccZ,meanAccXYZ, covarianceAccXY, covarianceAccXZ, covarianceAccYZ,pressureDerivative, pressureIQR, iqrGyroX, iqrGyroY, iqrGyroZ, iqrGyroMagnitude, meanGyroX, meanGyroY, meanGyroZ, meanGyroMagnitude, covarianceGyroXY, covarianceGyroXZ, covarianceGyroYZ, class, timestamp 
903d185fccf839df,-0.3791562730520429,-0.36589396373442185,-0.6173625523770966,-0.5637262652080456,-1.06590443437464,-1.6944514444585046,1.8902834863494635,-0.6586341496429071,0.11730013965908573,-0.9153346375377949,-0.111138149084638,-0.5291547793781426,-0.5301916221033868,-0.5215833059253225,-0.7823375237082304,0.5628927251909136,-0.5435902592274959,-0.5179589988895623,-0.7665180608256809,0.30904634500968126,-0.5231550778244202,-0.12455610521204498,-0.33266388565113425,-0.33980757521647326,undefined,1495595113986
903d185fccf839df,-0.7727844293048236,-0.48740611218753754,-0.4419091980016251,-0.5355102637717393,-1.3569674940242307,-1.6591117669800803,1.8818397681370558,-0.8286612139252786,-0.09913557156311503,-0.8149256915415057,-0.028334333123710812,-0.7681058876064494,1.61746253899287,-0.5678750077434442,-0.996022001061986,0.037534565321411376,-0.8574566110407956,-0.7089815259132841,-0.9254669398290234,0.7510776264843966,-0.5712266247051556,-0.2642417098437271,-0.5630968271076074,-0.4585230075654345,undefined,1495595115482
903d185fccf839df,-0.56072420489806,-0.40727853571597583,0.07966495809324808,-0.10018144411266978,-1.0179145801586733,-1.7306534576232746,1.8892393656877506,-0.7454196759316738,-0.4017631152839805,-1.3247912358437732,0.005318483798102241,-0.44345243677866975,1.7567227885472372,-0.5697267094881829,-1.0318115275603508,0.22343050827567595,-0.7516438843589923,-0.5826844028166326,-0.940708420709073,0.7536477054928294,-0.5146754064115674,-0.34310784790852333,-0.6396209126900829,-0.5187461218694114,undefined,1495595116994
903d185fccf839df,-0.4144996811673641,-0.4078655214861049,0.5961355359698005,0.6167350229182411,-0.8756020160275657,-1.7501425097261372,1.8697334614324443,-0.8451156315641253,-0.46604938762170983,-1.2475576111100095,0.09477971941732857,-0.27855773284603413,0.28361046122994654,-0.5123249526109236,-1.057074708877345,0.17291528918131702,-0.7461703741723692,-0.5209868490572981,-0.9655199343379903,0.6034034235894205,-0.5237115521869863,-0.3549019254743994,-0.6422047692123399,-0.47791874908646687,undefined,1495595118526
903d185fccf839df,-0.09017225883619041,-0.47595937818015516,1.8676922269602712,1.7665833895274845,-0.48066210409077187,-1.8417095603364124,1.875682084199864,-0.8235802024384704,-0.5604375381664669,-1.2214691948086214,0.2053162536257639,-0.017493689363499848,-0.7390819964349377,-0.4752915782056517,-1.0454957409574108,0.1547299369333003,-0.79962506064107,-0.4632457955946209,-0.9497609510609971,0.5048784912297495,-0.5109095132636476,-0.31782889870273784,-0.6662933387466062,-0.4865514965620546,undefined,1495595119983
903d185fccf839df,-0.23015973997762035,-0.43545528485379476,2.120345016599038,2.062329912153202,-0.4210564917833755,-1.7819738900858395,1.8472144234713512,-0.8993874915855177,-0.4702068015942735,-0.8820519535900795,0.19801696939258034,0.034291166288278996,-0.8609347147950089,-0.4521457726243018,-1.028653615171259,0.059761292248828556,-0.827351088183473,-0.4239803332801994,-0.9677869998290524,0.4179911760063521,-0.5108227709370902,-0.33775196963422044,-0.7465621837001968,-0.5291350808157431,undefined,1495595121467
903d185fccf839df,-0.1968953518096228,-0.12375002857141465,1.6635285131345392,1.643358202739672,-0.5185648988918449,-1.6624186997653052,1.8184390862128097,-0.9045910263778681,-0.5286310557032224,-0.60862197489093,-0.04443379985127373,-0.0038082544803032794,-0.8696384803921569,-0.38733739007893137,-1.0370746707021012,0.01732859639549826,-0.7566228841065636,-0.38241088982463545,-0.9723769086572436,0.12314174196812915,-0.547349465339925,-0.35366095197167857,-0.6706612603556797,-0.5407355003959633,undefined,1495595122997
903d185fccf839df,-0.033345644598525105,-0.1026174886390447,1.5365639804351534,1.4608937121769994,-0.5631739676418639,-1.5822160062248352,1.7921699547976886,-0.911860612063365,-0.5179880583502859,-0.7554205208408512,-0.18044220581649117,0.03582831603371326,-0.8565828319964349,-0.3595623689880584,-0.9960220084242198,-0.043289649558899516,-0.7679861249058719,-0.3599479391435194,-0.9372109362184513,0.03404633559277966,-0.5394701830147614,-0.37946086059684425,-0.6448447807019734,-0.524305713586077,undefined,1495595124491
903d185fccf839df,0.012392897758823927,-0.2798960765276884,1.1154768448270398,1.1390731835401504,-0.6962194553075362,-1.522559531578193,1.801124444495338,-0.8164238927713084,-0.5962731746306273,-0.4462342146566221,-0.14895568812165338,0.05972552195329105,-0.7651932932263815,-0.4123349233065691,-0.9928641107595956,-0.05743399456889576,-0.706022421292549,-0.4470639129787565,-0.9086569512203605,-0.0890334377824038,-0.5918005316147922,-0.41428227651168,-0.6516304897444968,-0.5202164620002646,undefined,1495595125960
903d185fccf839df,-0.030573583496683862,-0.14018647774680584,1.243079261269478,1.2499702418236045,-0.6607235154179348,-1.6451730132604194,1.8031441461256796,-1.0240959407210368,-0.6468800582238255,-0.5548073055493734,-0.06587066871568749,-0.017917652948925403,-0.7042669340463459,-0.4706624144992268,-0.9149692697958512,-0.01095998056560808,-0.700639815285172,-0.4941176842470921,-0.8822439899896265,-0.056203955012242145,-0.6039384993507356,-0.4561251572504456,-0.6750030823941214,-0.4975381137932691,undefined,1495595127465
903d185fccf839df,-0.13313867108087873,-0.27343894077634545,1.8166513620380755,1.8475750057966476,-0.6332812727025149,-1.779716856772268,1.9724089749593383,-0.10757399688934464,-0.31535739339137203,-0.3276433391244282,-0.24353182457342154,0.045438505811261916,-0.669451871657754,-0.21883567834592543,-0.6181268009743671,0.20322445455559823,-0.5455857248736898,-0.3337548838778963,-0.6693870091812658,0.2793743650774394,-0.39799908197080835,-0.5619568985152882,-0.6218515698654773,-0.4138467451470994,undefined,1495595128940
903d185fccf839df,-0.20105335719886033,-0.30924692873173093,2.4278659736183177,2.2795919668395976,-0.7258422665193,-1.8167890285324635,1.931199909640569,-0.37150263873050865,-0.2384195864086503,-0.19126847800896343,-0.39950514406493054,0.07542807656879756,-0.5606548016934046,-0.20494809657122892,-0.5844425494020635,0.15068861878334291,-0.6497259822101529,-0.28681510627122686,-0.6424073071259094,0.3594000854290618,-0.358334581494543,-0.5288466321418677,-0.6990959977550747,-0.49750919104014873,undefined,1495595130468
903d185fccf839df,-0.1871932242167028,-0.3239222890707695,1.931493562249965,1.8822462598312182,-0.8534980548843637,-1.820699822594955,1.9130331995543755,-0.5265063222799281,-0.3717334797436489,-0.47208229584639966,-0.42607996356255584,0.060032373838856255,-0.2647267713903743,-0.20494812247277802,-0.5370740255348295,0.08198801917624574,-0.623745463941234,-0.2293943064410772,-0.6523147920613316,0.5759176255299903,-0.2889795581660267,-0.5321243187283318,-0.7229661262243724,-0.6101760380554713,undefined,1495595131981
903d185fccf839df,-0.34104083834029025,-0.45365274979555775,1.059331639275675,1.0837847408320622,-0.9293962121649195,-1.8634832902936331,1.91608115276772,-0.7381714537524664,-0.3210314248314737,-0.3780006608020539,-0.17527532893329914,0.035944385067007666,-0.49102467691622104,-0.2679048550765079,-0.6002320524496523,-0.03520718284731397,-0.6509667481712296,-0.3174095588598539,-0.7289508612387873,0.6636887647353713,-0.3513775487703866,-0.4760216513414283,-0.6586258317756943,-0.6768848538413726,undefined,1495595133462
903d185fccf839df,-0.007011391932425808,-0.5135283380599239,1.4383108237338258,1.3375185426119451,-0.6689829352251496,-1.8730285121064632,1.9442884477642655,-0.5041214431603003,-0.3479038534505433,-0.22280394463032596,-0.13979312612804,-0.05476417467521184,-0.33870877896613194,-0.3725240351365128,-0.7370743336649279,0.12846197665009035,-0.5689030002309368,-0.3419497175863376,-0.7858979061752411,0.6738671379427182,-0.3743920858839818,-0.42024067663370585,-0.6757906985523044,-0.6536164010663289,undefined,1495595134965
903d185fccf839df,0.4087929080809875,-0.467154123980342,1.9423396189774569,1.9164776114481716,-0.41643821616771654,-1.8683304354211911,1.879269125125298,-0.8327099355920687,-0.3691076714264393,-0.2675176261085688,-0.07444085570609278,-0.19188046247913434,0.11388703208556152,-0.37530151004897355,-0.7212848232551053,0.678067310536577,-0.42159543154174334,-0.36022025973572996,-0.7963441453524215,0.9407068005622716,-0.32881293508880033,-0.4425499137054357,-0.6837259231336166,-0.5339546063002104,undefined,1495595136474
903d185fccf839df,0.6291693330459798,-0.3520990235945922,2.3225940626478145,2.360509543694024,-0.3197938102191578,-1.857587982349008,1.8628670288760376,-0.8156926428589283,-0.4403243743231344,0.37047938484319576,-0.22629961425247472,0.01266326054843933,-0.17768911541889482,-0.3595623819388329,-0.7012847850798618,0.7447473217304993,-0.40780117359032914,-0.3107789672448745,-0.7673073794495785,0.9466352004840015,-0.2935526692986032,-0.4336312326204451,-0.7000888070691662,-0.5784591716593097,undefined,1495595137972
903d185fccf839df,0.06644741638923826,-0.28811438879936097,2.3251463600308737,2.382554115726365,-0.5914184931578756,-1.8265974548897372,1.8394196818150175,-0.9219417358641672,-0.3424768303495929,0.28240166553811086,-0.4762290092629968,0.09115837725432949,-0.05583639705882352,-0.0790347090684164,-0.6812847689913195,0.7184793897120109,-0.3638753161181982,-0.137313308206571,-0.7283141527091244,0.7980709977681691,-0.24204444773457537,-0.36370152232484587,-0.429759830160974,-0.4595190895908133,undefined,1495595139487
903d185fccf839df,-0.06938205936295413,-0.3356626474891819,1.4312923236015997,1.290002820149212,-0.5762985183792927,-1.825977877157215,1.7935584999304286,-1.2204900394055778,-0.45915080549491083,-0.03702787316661489,-0.44814769078455835,0.04600227990487506,-0.012317569073083769,-0.1614339344194407,-0.6949690044750808,0.9407463480742458,-0.4331827906717956,-0.2332764035009416,-0.7203517815155055,0.8563387129540887,-0.2798546199711287,-0.3021475660758827,-0.4033978100466047,-0.45073196638995255,undefined,1495595140971
903d185fccf839df,-0.06938195584672492,-0.5962975404790166,0.5597687926442615,0.553709972823779,-0.6488435337320851,-1.8783438343707208,1.9144743423276716,-0.6968447338300978,-0.44473151437530467,-0.6052163403390128,-0.11364465556480044,0.09097599638203653,-0.5345435049019608,-0.2577206379389651,-0.7328637985372731,0.9548905517606343,-0.47989111147585023,-0.34254501229327594,-0.7165315225688597,0.6454416019543165,-0.3704736723831908,-0.29467751780916634,-0.31719165588386,-0.46920245010935147,undefined,1495595142470
903d185fccf839df,0.056745357807137735,-0.6174301096393789,0.5100039493451207,0.5216681986571491,-0.6577509475574486,-1.8669887936434835,1.9353102924542476,-0.6276245228995256,-0.35024854516898646,-0.9502670568239224,0.06217059810640742,-0.010719383369205712,-0.5388953877005348,-0.27531148074461903,-0.738126956403491,1.4075067090789175,-0.4228250916450352,-0.4117514214199219,-0.749570463791563,1.2463659318473626,-0.281913956889385,-0.3428178452165795,-0.45544255612386275,-0.4071109194100605,undefined,1495595143957
903d185fccf839df,-0.354901074838677,-0.3908420573125923,0.3173244301268829,0.27307296146997984,-1.0000075215397992,-1.763584549028149,1.902085320926326,-0.7732918911629743,-0.3680590708634282,-0.8270283834151017,-0.01849562615190791,-0.0535317561462859,-0.5911179812834225,-0.5873175522938369,-0.7728638454388252,1.3428472297687268,-0.41214436717956043,-0.6233350689286008,-0.7982752653378963,1.0759205428910896,-0.41547448777467827,-0.44474941119709216,-0.5567831476494298,-0.4116235312396179,undefined,1495595145460
903d185fccf839df,-0.4588520722048584,-0.11611877513985194,0.026390991796469067,0.08191672540793374,-1.1093547645411816,-1.4488344516207818,1.7814298332620713,-0.8859085847948202,-0.11390670041549608,-1.0064237450228293,-0.19667490112244781,0.008067847748244907,-0.3909313725490196,-0.579910861871853,-0.7907585939635401,1.3388060246776556,-0.38957735376330543,-0.6094152588862566,-0.779523810555146,1.1433811363895767,-0.39222504689062493,-0.5150488065609256,-0.5064483438429599,-0.39492940860850456,undefined,1495595146970
903d185fccf839df,-0.41449961215654463,-0.5199854445832746,-0.33855119239722953,-0.43514072113164604,-0.9502453170571125,-1.1390852327209442,1.6848528439188295,-0.7997144340126411,-0.088853901410007,-0.8968608230728583,-0.10489297914695031,-0.06841724378931054,-0.5388953877005348,-0.6456450175849454,-0.786548066198119,0.9164989479394892,-0.4100765544181152,-0.6547718013487112,-0.8009340522170361,1.0199164006531658,-0.45034921603237743,-0.5004781820906328,-0.4287810796793938,-0.3048558464064463,undefined,1495595148483
903d185fccf839df,-0.4103416067673071,-0.5006140665572382,-0.37938388433498604,-0.5886543817128749,-0.7569770692841788,-0.8833044822177832,1.5289684692497456,-0.8755781041451786,-0.31777017689095033,-0.7535488390655264,-0.07929448384317397,-0.051316912410609844,-0.8783422459893049,-0.7400801035397657,-0.7844428133587592,-0.012980540714061396,-0.8469560769411291,-0.8022153960845075,-0.8014168315191182,0.4732253957431021,-0.6341554511563576,-0.4921046718605719,-0.513502332591919,-0.3926182300422167,undefined,1495595149961
903d185fccf839df,-0.5531011145051685,-0.693155219764992,-0.3608814437322154,-0.6529541162476206,-0.8340375143451273,-0.9018848246414906,1.5556531022794704,-0.7673371579851472,-0.2533687399284078,-0.7768767819807646,-0.15845010296716924,0.03765322071777576,-0.9218610739750446,-0.7234150727541575,-0.7876006815744483,-0.17058807629554884,-0.867704580049569,-0.8099922507874648,-0.7695603519707478,0.5843405799547666,-0.6129127643304915,-0.48344291712268606,-0.5539716841959083,-0.3206487189503595,undefined,1495595151463
903d185fccf839df,-0.30777658819393167,-0.17071128687711032,-0.35322531399388607,-0.5562965057568043,-0.8468020716417609,-0.9833359931571334,1.583826208259706,-0.7733325754773784,-0.42885540386959764,-0.5104092257879231,-0.2973561703272435,-0.06376512345014893,-0.7738970588235294,-0.7993334715063419,-0.8349691833549808,-0.2594947578874453,-0.9876891938188788,-0.8952336718103674,-0.8251220284943119,0.35240919235420637,-0.7026168361941327,-0.4260356512892876,-0.7079513837637544,-0.3768458884691011,undefined,1495595152962
903d185fccf839df,-0.040275745595013596,-0.09029011522251089,0.13868140289919825,-0.21043412846084636,-0.9472521891995178,-1.3170391106143313,1.7489569865722738,-0.6710944781364893,-0.7013003429197351,-0.6245739136913527,-0.41882801200428493,-0.08234013203382934,-0.5998217468805704,-0.6474967322804587,-0.8265481057374373,-0.09784604547960814,-0.7791716710709241,-0.7475367595157221,-0.7683638998310652,0.8031832840930145,-0.5104533819272876,-0.35196754332312397,-0.6316610717615813,-0.5446048257831594,undefined,1495595154440
903d185fccf839df,0.32424613139523634,-0.5082452615328161,-0.42595905478191365,-0.5994714648703586,-0.11716558182217661,-1.4228820683451042,1.7674971135612394,-0.755515292872349,-0.23086096805787648,-1.0647952132060428,-0.23886844826873482,-0.0471533893725589,-0.7869527072192514,-0.7641517923704214,-0.847600766651244,0.532583588081354,-0.6530140198685073,-0.8079150450453503,-0.706812953851591,0.776128215147718,-0.5174249663109761,-0.3361486712173373,-0.4924199674459047,-0.580984923053996,undefined,1495595155962
903d185fccf839df,0.41572307808829545,-0.896262409114992,-0.47636152768715767,-0.6188592972423609,0.9205789751539553,-1.2462372232862864,1.6239807166281832,-0.7931699668008271,-0.31013036955767725,-0.2533323778041603,-0.0640300594937429,0.018642750062232788,-0.9001016599821747,-0.7947043013245297,-0.8128638628914422,0.9488288147858314,-0.6171476992158919,-0.788719892498952,-0.5673875028575192,0.950638801213779,-0.4289294775313096,-0.20027205337661705,-0.4064713471525495,-0.32377989702058524,undefined,1495595157453
903d185fccf839df,0.9631988829700734,-0.5745779563205329,-0.1528899191742683,-0.3513486765930565,0.7010616310715096,-1.4304800436099403,1.692076920842356,-0.7511759818654539,0.1685982142509335,-0.33049146188302403,-0.2409163218867355,0.000389573143691414,-0.865286597593583,-0.7234150857049321,-0.7054953717431531,0.8882105970961551,-0.5333577524782815,-0.7360298025702673,-0.4980211200524727,1.1424110401825656,-0.35296684019676333,-0.22638927223816327,-0.2626593756716184,-0.19418560129162968,undefined,1495595158952
903d185fccf839df,0.292367963557913,-0.08383289178719096,-0.019545278359608134,-0.165928388345551,0.325057690637384,-1.640654286681146,1.7360788374395173,-0.9480934545483602,0.1445899886338889,-0.41715967099511875,-0.30750363628140825,0.03713828176490448,-0.7956564728163993,-0.6808267420485768,-0.7286532486851507,1.2862701889054005,-0.28709767065122,-0.7069869225446213,-0.586292885766779,1.0706080877876119,-0.3833717524655619,-0.19210477372662982,-0.19616538971605688,-0.12209995675574199,undefined,1495595160476
903d185fccf839df,0.04288508680334128,-0.32685733483338403,-0.18032451113842315,-0.3033262632621067,-0.3103823936179666,-1.686423838032373,1.8149388298491977,-0.9096846929140345,-0.5264818258901416,-0.3310967449845406,-0.23892110327834848,0.004210120585793743,-0.7608414104278075,-0.5280641584257115,-0.5391793151853583,1.7105979388509063,0.08149292188658137,-0.5816326353002014,-0.5021632316816225,1.3484730349638776,-0.23937843745569468,-0.2880011716560191,0.08875383524574774,-0.16646998028093954,undefined,1495595161977
903d185fccf839df,0.10664176753208535,-0.24056613010954012,-0.0852605190154097,-0.20065765959115595,-0.41402107509708586,-1.6540497420147013,1.8601741080342207,-0.589918612965011,-0.4488953051842219,-0.6333383940696362,-0.17057867098657056,0.032684454290778604,-0.8261196524064172,-0.5521358537317546,-0.5465477774265726,1.5630935714530654,0.03716653895362293,-0.5699673527419287,-0.5501333677494662,1.4822547281530893,-0.23552070650055962,-0.2832549371445426,0.010305319625831163,-0.12131045986767898,undefined,1495595163454
903d185fccf839df,0.09693970894998481,-0.15486188192783287,-0.03358177035016135,-0.11718204057917588,-0.7480696581015038,-1.6717403145217096,1.8496680311504548,-0.7650298050044548,-0.2841126834067203,-0.7688022465693252,-0.15902533177846906,-0.0067375279861337355,-1.013250612745098,-0.6752717404205572,-0.8086533645749563,1.0983537705968471,-0.4516680196696226,-0.7061699713762412,-0.8054819799536358,1.0649260611352238,-0.46084248979471243,-0.4407627486700517,0.060232497159734395,-0.14313844791523367,undefined,1495595164960
903d185fccf839df,-0.15115691296850298,-0.770054126062909,-0.4967783819299348,-0.5597278855304477,-1.0486280085078763,-1.9117660868943487,1.9325989718921202,-0.7969513879889762,-0.36679570750515256,-0.7411649638193599,0.09274188525331375,0.05804235186453526,-0.9131573083778967,-0.8743260258615442,-0.9476008691806567,0.12644133170747243,-0.7819758109705538,-0.7813736779273007,-0.8622051257308578,0.39444695026690507,-0.6590926850454162,-0.4170362185150986,-0.019786336582169894,-0.27513054467244247,undefined,1495595166468
903d185fccf839df,0.12743203601614111,-0.8228855489638147,-0.7743132120128481,-0.8052249898381613,-0.5588025459143879,-2.0456484287171484,1.9338849410719954,-0.8124481586258909,-0.46089040699545836,-0.7668514945001809,0.08167736301297253,0.028736490998732676,-0.6389886920677362,-0.9520960486538199,-1.0465483968260259,-0.4716585621983944,-0.9898577767827087,-0.9694177744847335,-1.0339768329796142,-0.2915999894861019,-0.9362962726177759,-0.43955108532469567,-0.5439798708790337,-0.4902306691386156,undefined,1495595167954
903d185fccf839df,-0.3313387797581897,-0.9303093959180018,-0.8011099202339502,-0.82202431848998,-0.2212156916269504,-2.121618894660382,1.9125309107591453,-0.9308350334113865,-0.4874227169210179,-0.66734755628464,0.08946589065079677,0.04575376941180459,-0.7564895276292335,-1.0650477926720334,-1.1507590418453273,-0.6555338884747626,-1.1281838589631037,-1.0703775628499397,-1.1478989074351067,-0.6243449989792438,-1.086686447848136,-0.45512001657730144,-0.5605560548550451,-0.49568776474635307,undefined,1495595169457
903d185fccf839df,-0.8303039811807774,-1.0776503065864318,-0.8980875635861219,-0.9366073305835632,0.05192099395177034,-2.182752107444106,1.906214121791946,-0.9646934386068171,-0.30300202895696277,-0.65968378948267,0.09241200156292435,-0.0085524496689351,-0.8304715352049912,-1.0752319612441716,-1.1686537830078083,-0.760605482291289,-1.178295022296429,-1.130610190060418,-1.1854018134649458,-0.9064753170653718,-1.1808466430503428,-0.46810933150947737,-0.6482875606322895,-0.5008281654263536,undefined,1495595170994
903d185fccf839df,-1.0312761854653394,-1.1075880970651157,-0.9019153743183371,-0.9644005268157408,-0.10788787506738752,-2.2013231317702213,1.9196813678509954,-0.9358078751714289,-0.285006176153739,-0.6673649002137458,0.09348620160208443,-0.07127540559416297,-0.9088054255793226,-1.148372833280797,-1.2539170512421565,-1.0879439638082464,-1.2781923807652722,-1.175498094995262,-1.2460711601484193,-1.15525260148018,-1.2679900275548963,-0.47261948916637136,-0.6670847625380637,-0.5220244076234777,undefined,1495595172455
903d185fccf839df,-1.0603824647278701,-1.1169803479955551,-0.8719287391080724,-0.9342192550579751,-0.2919607059229496,-2.202692724417184,1.9175038863930096,-1.0017192950907416,-0.28894006779146025,-0.6831422021206756,0.09395734595188585,0.004493940749562022,-0.9523242535650625,-1.1687411817570013,-1.2886539384369322,-1.164727061924741,-1.3497859973921482,-1.1983410229835683,-1.2690976647802665,-1.2136281080997406,-1.2977895660255163,-0.4743236606990464,-0.6711851486308973,-0.5229534706845175,undefined,1495595173949
903d185fccf839df,-1.0548384115350071,-1.1234375202818885,-0.7972816012278361,-0.8396450829522106,-0.39868509754587844,-2.2008549546489244,1.9231158880319514,-0.9909315223648537,-0.2873596486741702,-0.7044869016389422,0.09451604283881983,0.02024303351880012,-0.9610280191622104,-1.1705928486965334,-1.3128644951748045,-1.1970567892140205,-1.3747616031434866,-1.20106418864304,-1.290724807230661,-1.2647817435626714,-1.3171703453493069,-0.4763870645752493,-0.6728669870897206,-0.528310427120973,undefined,1495595175462
903d185fccf839df,-1.1185950232529318,-1.108175112063237,-0.7832456175111817,-0.8355681968771638,-0.4938792232468034,-2.193974381982156,1.9317206217253498,-0.9550107688373177,-0.29025143927764546,-0.701244167141474,0.09423376888805537,-0.05847330615454279,-0.9827874331550802,-1.1696670164409024,-1.3181276567221394,-1.2213040851226165,-1.3772273862629163,-1.199183304315488,-1.2991139835023822,-1.2668759321837533,-1.32119770491065,-0.4760553383846291,-0.6726419853603375,-0.5294849652097003,undefined,1495595176944
903d185fccf839df,-0.946729305263359,-1.0664970033546302,-0.8355622499194828,-0.8845023940039243,-0.7273954068181206,-2.1310499849262343,1.9343530565637421,-0.9315135741888357,-0.43063506628779186,-0.6634119213587206,0.08175965977709236,0.004737932937124635,-0.8826941287878788,-1.1298561525535484,-1.3002329008351907,-1.1909949621454177,-1.340883189866103,-1.1442260188394673,-1.2600158044580854,-1.2343698139004915,-1.2776271599481284,-0.45380740632767036,-0.6627548533954887,-0.521168500303497,undefined,1495595178444
903d185fccf839df,-0.3382688807546782,-0.20886723252700817,-0.8668251608897518,-0.9419273062160868,-1.1136541876197086,-1.8979886373710253,1.9106506091390523,-0.9318964865825239,-0.5531491894533627,-0.6246757785736337,0.05351609743906432,0.03976903474967795,-0.6607481060606061,-1.1113394831582275,-1.2528644156196842,-1.0697585020344338,-1.2677723226994473,-1.1360311897652153,-1.2388364578609787,-1.1467372604483435,-1.2494531051507858,-0.45579091515032844,-0.6672709788950056,-0.520623647249108,undefined,1495595179951
903d185fccf839df,0.1565384187949011,-0.9379405908935798,-0.8700145796050155,-0.944412442374589,-0.825572381909485,-1.638401914260188,1.8540177344594995,-0.9389297849678898,-0.15086293868814896,-0.7497668031874699,0.05262740542292623,0.12591534872005816,-0.43445020053475936,-1.0918969693659244,-1.2118117386173353,-0.9222541028387812,-1.1303984859330363,-1.1275450452485833,-1.2137738810743899,-0.969239380152481,-1.200271814682219,-0.45570335582944016,-0.6673321390562887,-0.511855352209894,undefined,1495595181510
903d185fccf839df,-0.4103416757781265,-0.7407033761568396,-0.8330102066733731,-0.9207922150500613,-0.2090682746462326,-1.6110380116950276,1.8441927845292307,-0.8700225561587058,-0.3470662552790996,-0.7190620670699354,0.07281997610549533,0.07079805581140551,-0.7782489416221035,-1.0511602756512097,-1.2160222700638732,-0.8636564806284601,-1.178797253449595,-1.110572756110123,-1.2037894318616156,-0.868271773832361,-1.168716765999804,-0.4573299632223922,-0.6695042771537607,-0.5200515541163475,undefined,1495595182969
903d185fccf839df,-0.882972486512976,-0.7318980927290342,-0.8253540769350437,-0.8964940692716066,0.17852764606217192,-1.6762590410180793,1.8455629158001168,-0.8796629596486708,-0.28170979204488045,-0.7102452782389368,0.06568297121445381,0.04606732541951506,-0.6825075200534759,-1.0863419677379047,-1.2118117386173353,-0.8656770902401761,-1.1994719405987886,-1.1144738493766397,-1.166643362782761,-0.8041526472363455,-1.1405763154611883,-0.46449604401550365,-0.6726739117551371,-0.5351576645616344,undefined,1495595184477
903d185fccf839df,-0.7055627843413597,-0.936766560897337,-0.7385846065673112,-0.8139092897683078,-0.11717586360019412,-1.722960285990649,1.8680740470667092,-0.886040725153007,-0.30379806439928414,-0.6254075502603313,0.0804904955501167,0.00438947282964645,-0.852230949197861,-1.0678252918671964,-1.220232808872645,-0.7121109010733676,-1.0659804447372057,-1.1030428864652706,-1.1594926219199875,-0.5862954410084344,-1.089727151739419,-0.46809721264225645,-0.6493957855394455,-0.503950229859518,undefined,1495595185947
903d185fccf839df,-0.052749899784365104,-0.7776853794944717,-0.5873756630298825,-0.7238969000869293,-0.5694379562680647,-1.6782621859571714,1.901990652191722,-0.6548860229864895,-0.19516126005312268,-0.6013486772877762,0.019850882333479522,-0.03224486431981139,-0.6302849264705882,-0.9733902269573849,-0.9981272686258135,0.26182215449390345,-0.7005608764193048,-1.0490038780273283,-0.9912053272402148,0.4563948975223858,-0.7845766852224499,-0.4104773724812729,-0.42707961286893303,0.5812953104846772,undefined,1495595187449
903d185fccf839df,0.3478085644973625,-0.6497159929920399,-0.2371078545697899,-0.4354221145212313,-0.4498461505901727,-1.5607264478220855,1.8701884153366115,-0.5163227859518935,0.13284335058495397,-0.8165225533693501,-0.09566784714902274,-0.02787257257476855,-0.5606548016934046,-0.8946943532927397,-0.7791796039569048,1.4357952860400238,-0.22427788649292543,-0.9725905794387436,-0.8768914309780195,1.2075464670320455,-0.5464093266388481,-0.42473961857221654,-0.4423169651254813,0.5449551025631798,undefined,1495595188952
903d185fccf839df,-0.07631205684321342,-0.3644263531691375,-0.15352831119121987,-0.32255297395886334,-0.7705336151561448,-1.5412936069931753,1.8675875339496955,-0.544813472239687,0.04248402039427752,-0.6995365624787298,-0.12335920261921764,0.046060641438560465,-0.45185773172905525,-0.8391443402502364,-0.8149691378175034,1.199384152256122,-0.3496357093783974,-0.9277280063339756,-0.787885000721134,1.3592981467840384,-0.47015307845309484,-0.44581959432450124,-0.5456878329858792,0.30966359620993256,undefined,1495595190455
903d185fccf839df,0.16762642166439792,-0.46304498976549996,-0.36534790061833167,-0.40574106092423207,-0.5978264797221409,-1.64063332865735,1.8485556237615717,-0.8749103788682542,-0.5107910336920951,-0.4831215820419617,0.00037981013309603805,0.14801963416638358,-0.41704266934046347,-0.7484126124571826,-0.8128638849781435,1.0437973181466955,-0.36900165632861054,-0.8664884410068152,-0.7915443327484655,1.461682409762121,-0.4327474651465198,-0.4522799443710398,-0.6428232957485996,0.32733180494253916,undefined,1495595191971
903d185fccf839df,-0.2135273733665729,-0.6878719094139454,-0.395972419571649,-0.4310485409085805,-0.09307647178010948,-1.676389478751331,1.8413552082603253,-0.9023012872026502,-0.46113356279467005,-0.4611348706052547,0.01775903497154361,-0.01711622216042172,-0.8174158868092692,-0.8067401554529384,-0.9023376644128867,0.0011636629723271671,-0.5855833819041566,-0.8888943958149413,-0.845111917315788,0.8148861029552876,-0.6006211653515675,-0.44249358189351257,-0.5817727978656926,0.3703494740519132,undefined,1495595193450
903d185fccf839df,-0.6182438085321283,-0.9338314274507454,-0.6358644847059683,-0.6975723599419688,0.18533677851390162,-1.7071354351150956,1.841996880305455,-0.9325933945876058,-0.29804309676414165,-0.5824765144343842,0.06609099728267073,0.003870750030480324,-0.7913045900178254,-0.9169143727555931,-1.0665484165956851,-0.5949156566527256,-1.0210336552800974,-0.9646807332618342,-1.0242092853627964,-0.41845238686898145,-0.966380770003863,-0.43544889002142495,-0.5976996212631325,-0.44055105522370774,undefined,1495595194956
903d185fccf839df,-0.26065196352754744,-1.0107305675726013,-0.755811025547027,-0.8303023768988309,-0.3712017146429821,-1.6966631744680993,1.863164194048625,-0.9499504462632332,-0.2684351494093571,-0.7481350351101252,0.07423397240091656,-0.0515665463546724,-0.5388953877005348,-0.9974619125503469,-1.1381274401434796,-0.5444004375583666,-0.9758495560667688,-1.0214745720720988,-1.097423913519958,-0.5195893754428198,-1.0277161341654644,-0.4368930999196005,-0.6029389852783036,-0.46800257250951216,undefined,1495595196453
903d185fccf839df,-0.7111068375342227,-0.8563453892427376,-0.7219960713306481,-0.8269699046817863,-0.7523279301497301,-1.7721794382836427,1.909543456119487,-0.8225607761689426,-0.3197861846190304,-0.6807635089381007,0.07313180718155007,0.02557394280345869,-0.7260263480392157,-1.036346930421872,-1.1065484524538864,0.2840487118329914,-0.8199383754272673,-1.0732400531485073,-1.0720814638762248,0.5999545955733778,-0.7662499137312677,-0.43513659978747526,-0.4144122693175962,-0.0840886787327021,undefined,1495595197946
903d185fccf839df,-0.7526872364806952,-0.690807042860537,-0.7538968660439699,-0.8284435092019851,-0.9100693849089805,-1.7348976355501562,1.9090727228707776,-0.7861698933798819,-0.3671580172096453,-0.6152441030477475,0.049554236486783546,-0.030587390106834134,-0.6999150512477719,-0.9854260778480999,-1.0381273192084826,2.429934197474322,0.15617080470312666,-1.0216582264809,-1.0332281729923976,1.1664634032730128,-0.6127309477674115,-0.42467005147404213,-0.33098014109652435,-0.004373224222937364,undefined,1495595199454
903d185fccf839df,-0.6099276597320143,-0.6027547931423288,-0.7621908795253519,-0.893113361392093,-0.9824086952753359,-1.5122386710903017,1.8406215019979035,-0.8358214956004735,-0.3548086069290947,-0.6233680690347114,0.02519043307115983,0.10837016686492233,-0.7129706996434938,-0.9863519092943075,-0.9339166484213629,2.4178105539363868,0.11323054714572077,-1.0274845345699772,-1.01768825540524,1.1403630380261602,-0.6078411025278165,-0.4223443976808329,-0.32490188898723016,-0.054278491896072936,undefined,1495595200971
903d185fccf839df,0.15653845330031085,-0.7788594094907144,-0.7507069390548073,-0.8611145586148071,-0.5969007738584678,-1.4078328528565465,1.7877282141287862,-0.8338598175645218,-0.2730583306854416,-0.8250911223648032,-0.013781210667437751,0.013166221561222937,-0.673803754456328,-0.9178402009641069,-0.8486533746653394,2.565315090922557,0.03265167314932057,-0.9018326000634431,-0.9444176516966964,1.4951124215252476,-0.44135084276491493,-0.4365252942632008,-0.576928390518028,-0.15507371913756393,undefined,1495595202467
903d185fccf839df,0.22029499600741598,-0.3427067982386462,-0.3551392193599937,-0.5498583616321889,-0.3911456880683615,-1.580951227975442,1.841894338397048,-0.683840867679022,-0.17773315945831084,-0.9649572095793967,-0.08910300103235479,0.0007301039418900255,-0.5780623328877006,-0.90580436626186,-0.960232481925855,0.6134078312263864,-0.6307951444817881,-0.8999580485190052,-0.9859996991894515,0.5477538684317876,-0.6839116305673165,-0.45752609084124174,-0.6337251382761027,-0.3486858500260215,undefined,1495595203962
903d185fccf839df,-0.3992535348869908,-0.4865256189183478,-0.08589840275846243,-0.23067228907886325,-0.8459689263906573,-1.8393896371136504,1.955522993301484,-0.48543675612916726,-0.23178574345532232,-0.8389677616549323,-0.022037517971375813,0.0007136399078349831,-0.6825075200534759,-0.9058043468356982,-0.9623377494896824,0.4820682559281089,-0.7181409750349622,-0.897887176384968,-0.9660727811887346,0.479677340992594,-0.688850625387839,-0.44803726657371457,-0.6541146261651385,-0.31914773354773024,undefined,1495595205453
903d185fccf839df,-0.2925304074081487,-0.45600086824402797,-0.14651006519594328,-0.2873466258398987,-0.8768774386433417,-1.8323599952208605,1.9279468500886914,-0.6715783027086989,-0.21969158195748362,-0.7798138007362024,-0.04414119366904093,-0.019544533254360785,-0.7826008244206774,-0.8521059804971417,-0.959179859187292,0.8457777881839387,-0.7164708824314936,-0.8374645608254112,-0.9002607782906891,1.0192542667989355,-0.5229895963595308,-0.4901112562586495,-0.799781390173076,-0.2947695120346192,undefined,1495595206962
903d185fccf839df,0.05813133659994375,-0.42899810526046334,-0.20648333561647253,-0.34003994106826735,-0.6607543670376251,-1.866555555802679,1.9199022671518546,-0.7133117017996143,-0.18107685730924084,-0.6788354986046374,-0.023687171006780656,0.07841222901014554,-0.7826008244206774,-0.8696968492043448,-0.9749693475104132,1.2862702454348434,-0.4148660272965927,-0.8727200575466123,-0.9010724091170164,1.709504982306864,-0.39503325202161155,-0.4686779304075768,-0.6912837780421637,-0.3603588325361963,undefined,1495595208461
903d185fccf839df,0.04565725142141172,-0.5510973125536889,-0.42851109802802345,-0.5015778401031539,-0.8220238100175428,-1.9220170705509103,1.9381136713266685,-0.684952705254131,0.000285214527415633,-0.8047726297544703,0.007832614189844555,0.050212666910435334,-0.8217677696078431,-0.8539576563403314,-0.9465482464420936,0.9589317568517056,-0.5769258994876623,-0.9005913424881045,-0.9289267132904729,1.3228500200180813,-0.5072337105419991,-0.45769548757466666,-0.6142674079141651,-0.31298887006391796,undefined,1495595209953
903d185fccf839df,-0.6792284626644409,-0.8311037735515103,-0.8266298444211492,-0.8742946524795561,-1.110301050151107,-2.0040458866560202,1.9522015352903115,-0.8241751082701784,-0.23049557418744204,-0.6812748973612879,0.07528103844597936,-0.055926699969656275,-0.678155637254902,-0.906730194470374,-1.0128641121236703,0.7993037459159295,-0.4318646052177122,-0.9794744890942619,-1.0140219277231566,0.8566466836131146,-0.6706195502509844,-0.44416731569717366,-0.5005418294392683,-0.24766846770831205,undefined,1495595211488
903d185fccf839df,-0.3992534313707616,-0.9432237551046646,-0.9746488609694153,-1.022774380067452,-0.7171714202529168,-1.9301833813378562,1.913217293129483,-0.9688669918670035,-0.17335073555696737,-0.700739042757984,0.08385930112862842,0.05905719819434946,-0.6868594028520499,-1.0317177715719876,-1.0581273389781416,0.7609121986242273,-0.44521152435978495,-1.061714095622434,-1.0585426354232093,0.40149943527920917,-0.8175565165924457,-0.4212534042453915,-0.4165622549321603,-0.10755594513025069,undefined,1495595212954
903d185fccf839df,-0.8815864732147602,-1.0119045975688439,-0.9567845582466469,-1.0559592109247757,-0.024892577263796612,-1.8393570273718267,1.876960156636695,-0.9785467698119246,-0.24033444343663987,-0.7135736003984777,0.08742638398169379,0.06920911347040758,-0.5780623328877006,-1.1252269888471236,-1.1591800973761694,-0.7585848797457534,-1.174271837915679,-1.1349355904038299,-1.1754453510307814,-0.35989209739628664,-1.0519138481208576,-0.4538279591846106,-0.46082923767737727,-0.34424962605715737,undefined,1495595214458
903d185fccf839df,-0.2232296044757221,-0.918569095955574,-0.9408339067530366,-1.0354844360300917,-0.30009668910555126,-1.8642635835058003,1.889378104304858,-0.9637624262977823,-0.14347573309683742,-0.7353520514627205,0.08077032418961022,-0.018619097055559086,-0.8739903631907309,-1.1557795107520064,-1.201285408160432,-0.8879037959690522,-1.2337726112506666,-1.185497813128304,-1.2276765442924644,-0.9259235540544387,-1.2176371972136761,-0.4744838603697574,-0.6698954869175966,-0.5123075697313694,undefined,1495595215947
903d185fccf839df,-0.39786748708336533,-0.8528233284820016,-0.8508745093961415,-0.9527036691207553,-0.8175906820098945,-1.9147824531787276,1.9076000413113101,-0.9947852032062523,-0.13833984666712879,-0.7301932253615558,0.07942798889754898,0.04191523303596033,-0.9914911987522282,-1.1613345059046387,-1.1918117151665593,-0.5302562197396173,-1.111345641490495,-1.1874040293468355,-1.1891451068251886,-0.6158758529202638,-1.1328603001307194,-0.4702750960728608,-0.6613617196580819,-0.38751384846322334,undefined,1495595217462
903d185fccf839df,-0.8150578349004041,-0.8810000776198206,-0.7692091255206286,-0.8203183619442821,-1.0312246154164277,-1.9100890359205285,1.9265872327940516,-0.8989208985709105,-0.2802570252327126,-0.6351457968909574,0.042329669350254485,-0.014267686153042889,-0.9740836675579323,-1.0770836257554335,-1.12865374346849,-0.1039079803074619,-0.952449824178981,-1.1169373648602485,-1.102741489315219,-0.39601684746502913,-1.0270961276919943,-0.4551613904378097,-0.6461872008231037,-0.354431373540864,undefined,1495595218956
903d185fccf839df,-0.7928816221289521,-0.8369739527607165,-0.5350590306215814,-0.5637276294572644,-0.9566738817612116,-1.8818097426784421,1.9245333547176615,-0.8688511170847529,-0.3166513325413867,-0.5949703139979187,0.0383120490348788,0.006982065835688472,-1.0001949643493762,-1.0076460940732597,-1.0812852784991265,0.05572008715775732,-0.8915006803967849,-1.0350840680735707,-1.072984052571072,-0.03282911497286451,-0.8976408088418183,-0.4683658172929849,-0.648533628726079,-0.37345216680675153,undefined,1495595220461
903d185fccf839df,-0.7707053748520903,-0.9502679058541289,-0.5644072738148945,-0.6027081349077851,-1.15057983921761,-1.8713747505765257,1.9284228387542417,-0.8750788127766721,-0.28517587869422467,-0.6709868562648145,0.04659595786051549,-0.040168121224558595,-0.8565828319964349,-0.9613543922551379,-1.070758944361106,-0.008939420417154767,-0.8489327642698297,-1.0210629303122816,-1.0799598728683095,0.24602133435436524,-0.8285131537595072,-0.4679665336285624,-0.6536145819018723,-0.3674307794223829,undefined,1495595222000
903d185fccf839df,-0.6722983616679524,-0.6379756345736275,-0.5931176332651549,-0.7139860666045158,-1.1212553177911524,-1.7485399899513205,1.9314523807245363,-0.6125459669115314,-0.264202072840375,-0.4982563993270418,-0.000014424262609485052,0.04199627464537688,-0.8696384803921569,-0.8400701457948948,-0.9476008765428905,0.6336138849464641,-0.5608390087207746,-0.9187985562914461,-0.9722509670401931,0.5714674795885958,-0.6784281557632842,-0.44931225690569504,-0.7026364864882311,-0.30765567909816693,undefined,1495595223477
903d185fccf839df,-0.22738771338118882,-0.1542748084737268,-0.4846560494424386,-0.6894578393639987,-0.7645884900779442,-1.5075289512464827,1.799170511520828,-0.9215721149187632,-0.06649309349189042,-0.6911137705655549,-0.06995210930336823,0.04207050228544641,-0.8217677696078431,-0.8558093354212146,-0.8991797593860287,0.6174490928469007,-0.30679133853051743,-0.8884130921729729,-0.90525650239441,0.7689063435872189,-0.6141221791080045,-0.4358734282484021,-0.702331930476729,-0.08877850038628105,undefined,1495595224965
903d185fccf839df,0.11079991094296181,-0.5974715412472671,-0.36534790061833167,-0.39298337496870567,-0.5204163259191756,-1.3638731247280078,1.7299908230420236,-1.0192500858330302,-0.21489372501803167,-0.5177277694337702,-0.06687916815117309,0.07848167918670335,-0.8696384803921569,-0.8159984893411756,-0.8560218442687875,0.48610951754862325,-0.38623632812381015,-0.8828970983905278,-0.8840421716266958,0.4527300641675169,-0.6834751977126283,-0.4082666470997923,-0.6415245743110565,-0.07834942173958269,undefined,1495595226464
903d185fccf839df,0.07753548826955456,-0.07385363681912736,-0.03294388660710862,-0.037010486965810004,-0.6401829844836893,-1.5571324313768617,1.8037700341124183,-0.8849534685642909,0.10928734351678718,-0.7285239911070904,-0.03374344377377388,0.12830070213013386,-0.8348234180035651,-0.7632259479734393,-0.8718113252296749,0.8316335562328285,-0.35958085848745763,-0.7892455267632722,-0.8403051069833962,0.8941572995742783,-0.5416009443844383,-0.45866554439882345,-0.5927149178056622,-0.2604455976337632,undefined,1495595227947
903d185fccf839df,-0.5059765933550134,-0.30513780913088506,0.7409641172550053,0.7148267022380492,-1.0491011543206223,-1.7715505447811781,1.8788562548854406,-0.9278959402636413,-0.23464492772019935,-0.42526624660742757,0.13242459826726122,0.13025459796451216,-0.1124108734402852,-0.7289700938083391,-0.8918113339559833,0.7164588295635576,-0.5869294961884852,-0.7201531109882393,-0.8202382535358955,0.6586380727711907,-0.5720807524004216,-0.48097689901046353,-0.5182099140636043,-0.27181216115057505,undefined,1495595229462
903d185fccf839df,-0.4158857289709896,-0.583970181676479,0.6592984792425429,0.558429134077747,-1.1128827612040482,-1.939849723578236,1.9352340349626935,-0.8285131021181352,-0.17959613664796664,-0.44016637228460076,0.2897255660047852,0.10008785814515138,-0.20380041221033868,-0.7391542591427837,-0.9865482786191782,0.7467679384083957,-0.6713818180050193,-0.7328886600203179,-0.9887354529151089,0.631659999755261,-0.6285485411884731,-0.44778573146980616,-0.38751514396483727,-0.5108744192500962,undefined,1495595230974
903d185fccf839df,-0.5170646997407394,-0.6943291620772577,0.017459094572034258,-0.022167163740892386,-1.1773535064081706,-1.9449950131749334,1.9265398900465753,-0.9207105901988567,-0.24646514602894876,-0.49978695968812914,0.22946716359717384,0.04696094736003637,-0.7129706996434938,-0.7011950727174661,-1.0065483167944218,0.7851595422295409,-0.6731506979231209,-0.7597846724826015,-0.9933533482649938,0.7367697877658088,-0.612407866382753,-0.45043622356509727,-0.37891663466429626,-0.508533236799557,undefined,1495595232749
903d185fccf839df,-0.6154718164411066,-0.7794463806468473,-0.2785779219767003,-0.31511663567200987,-1.193522620128116,-1.9911116202857664,1.9651585858596303,-0.7159441188229704,-0.27591591737113275,-0.6016080632640229,0.22379956864819645,-0.04647477865020926,-0.7477857620320856,-0.7197117469693275,-1.0023377963912345,1.5206608190702922,-0.2657602551915331,-0.7861297177486921,-0.9864614894107744,1.9437461423919997,-0.32561626180977493,-0.43638419333927114,-0.44328722284500865,-0.2681248924858659,undefined,1495595233968
903d185fccf839df,-0.47964240969973365,-0.7806204544850787,-0.6269325874815336,-0.6784111029290145,-1.06540398157393,-2.031360874836544,1.9578687758960125,-0.7627872600254068,-0.3127785194463035,-0.6735825004583315,0.1202480607855479,-0.059816342980961966,-0.9697317847593583,-0.7354509268825663,-1.0212851971034476,1.8904321165656464,-0.21417861684158443,-0.8386424873029762,-1.00761984541009,1.7933187323678141,-0.37981972529866903,-0.4218011551683416,-0.4226143714296116,-0.21952788703626946,undefined,1495595235462
903d185fccf839df,-0.33272475855099576,-0.9537900104568534,-0.7436886930595308,-0.7821678723979517,-0.9856795457232537,-2.0900064603376447,1.9532482127816695,-0.820465581987851,-0.2550206904718489,-0.6921517346471888,0.1043473507140195,-0.04799142501336665,-0.9566761363636364,-0.9465410470258002,-1.1097063537996277,1.009446947681343,-0.47972145089281165,-0.9726919060891118,-1.0745583349021002,1.3076209667203107,-0.5628906082741328,-0.4208669320014667,-0.31316187545235685,-0.06598872053543775,undefined,1495595236948
903d185fccf839df,-0.8538663107666744,-1.0242318833014008,-0.8196121066997715,-0.8629464907462259,-1.1491295569634539,-2.1306307217868343,1.9451300047755462,-0.9508944028822098,-0.2868476319730804,-0.6617237242746729,0.08459467966629255,0.047685827842217865,-0.9653799019607844,-1.0215335949056152,-1.1949696275556512,1.0074263310034466,-0.46790706258934256,-1.0315439521924887,-1.1257400064344085,1.0347297156461703,-0.6666961541530054,-0.41069338045790754,-0.22200213142851438,0.06985181128065247,undefined,1495595238456
903d185fccf839df,-0.9730636269402777,-1.0512346024429768,-0.8585306391344708,-0.8868943056864159,-1.0546965770304664,-2.1327852678816894,1.9313471802058162,-1.039013984542866,-0.28767397543728596,-0.6588912319349426,0.08281921125561117,0.00741343259498123,-0.9088054255793226,-1.0983778056778453,-1.2602328484119634,-0.46357615201625196,-1.084931566731347,-1.098989802655693,-1.218986504951183,-0.39433841871533337,-1.0630597985121248,-0.4339594090348216,-0.49339912678190684,-0.31814017078452267,undefined,1495595239956
903d185fccf839df,-1.1088929991762408,-1.052995654744339,-0.7366704470642541,-0.7877704917517174,-0.8566454785762389,-2.1464951696489054,1.941656011878352,-0.9511925310504776,-0.293670650581068,-0.5681142143887066,0.0750499436257974,0.07310306113141946,-0.9305648395721926,-1.1104136468554795,-1.2760223367350845,-0.9404396105427664,-1.2210146517102016,-1.1225863509360723,-1.2630874040047524,-0.9374261925470309,-1.2065366619526876,-0.4708017065009595,-0.670820056910483,-0.5092633853080138,undefined,1495595241464
903d185fccf839df,-1.1712635975959498,-1.0717801566052179,-0.7896254714895068,-0.8209631679578887,-0.8106272689418481,-2.1554464361162577,1.937808617267451,-0.9699671852059996,-0.3003638198068309,-0.5588342101101771,0.07422516135343457,-0.03251749940463853,-0.9262129567736186,-1.120597821903005,-1.3044434322817287,-1.035408163366893,-1.3002327668579792,-1.1403755898255261,-1.283769977127488,-1.126318922984713,-1.261699054815493,-0.46942370674329853,-0.6690278595319714,-0.5224030776393279,undefined,1495595243003
903d185fccf839df,-1.1379992784387718,-1.0735411942925839,-0.6913715523773308,-0.7380613083406735,-0.7472365159792155,-2.1593805212326878,1.938573891646655,-0.9539069679849228,-0.2987382885120998,-0.527451020291213,0.07914412204468037,0.003055936689335093,-0.7826008244206774,-1.073380295114063,-1.299180267053277,-1.067737895955808,-1.2578893513344678,-1.1001487315313658,-1.2769900673696366,-1.1567924463344417,-1.246054415115669,-0.46275176903793735,-0.660796496108092,-0.5213439451907077,undefined,1495595244471
903d185fccf839df,-0.9370272121758487,-1.0711931269931003,-0.5918418657790494,-0.6227933551770455,-0.7049005902417314,-2.1516567642734885,1.9631231336915955,-0.7721869533494258,-0.30087422068328473,-0.49169678102140135,0.08376899438465397,0.01233874733896089,-0.6955631684491979,-0.9696869044102483,-1.2707591788688666,-1.0455112043592927,-1.1839907174559103,-1.0667804515332642,-1.2647386513899994,-1.1032520517734872,-1.216669149640008,-0.4603612816381468,-0.6534069652996574,-0.5181701158574302,undefined,1495595245975
903d185fccf839df,-0.46301011209950566,-0.9273743282343929,-0.13885342718371507,-0.18700939656056342,-0.5653648234056552,-2.0992209312470567,1.9384397721937694,-0.8617572587467857,-0.30704453134971976,-0.39887849047038887,0.043658602737132256,-0.02123417002137729,-0.7695451760249554,-0.9280243792493261,-1.2276012297012941,-0.908109870887671,-1.11774563804601,-1.0367496323659215,-1.2446438106867577,-0.990550828542443,-1.172049865431535,-0.4538349043252843,-0.6507239796488699,-0.5031075281571876,undefined,1495595247455
903d185fccf839df,-0.47548436980508635,-0.9537900104568534,-0.4246827790219093,-0.4771235498220843,-0.4610781419148262,-2.079226741649651,1.932393852459565,-0.8698497261287577,-0.33256915960756883,-0.4355335722703222,0.038197371964214195,-0.050283100955362765,-0.8609347147950089,-0.9317277147472371,-1.2318117657492282,-0.7808115642760882,-1.1074005041810244,-1.040809049141323,-1.242124958893495,-0.8602491826913233,-1.1443912984378497,-0.4542583400190267,-0.6623232414465405,-0.5056719427544736,undefined,1495595248973
903d185fccf839df,-0.4657822767175761,-0.9091768413716357,-0.6664890036592858,-0.6739711632609531,-0.6045121868902116,-2.03921041106868,1.9215590569517351,-0.9580014550522167,-0.32937395309665957,-0.5191401019769953,0.0520233990634094,0.03618605365080426,-1.030658143939394,-0.9456152252926736,-1.2360222971957662,-0.7161521344291604,-1.1576151165187492,-1.0273135459322609,-1.2353870300804257,-0.6873400386268864,-1.0969138575898052,-0.45614400268463695,-0.6930095842146892,-0.5163338025260601,undefined,1495595250471
903d185fccf839df,-0.16501704595066052,-0.9097638563697571,-0.6556429469317939,-0.6713828819907494,-0.6222961576358711,-2.042187178622389,1.9205860108147936,-0.9429181538091619,-0.32892597483251224,-0.7599663199914305,0.09530316790788906,-0.0016703454520211164,-1.0088987299465242,-0.8993235267122456,-1.2233907028561524,-0.5120707544327144,-1.0692285274980495,-1.0017791169917964,-1.2035445440987549,-0.3466340346688884,-1.00542673463083,-0.4457418500409383,-0.6697117716266063,-0.4757492591338638,undefined,1495595251955
903d185fccf839df,0.28959572992902305,-0.8780650026292136,-0.44701328449384464,-0.4765869452910713,-0.3577788834266711,-2.0171105895282,1.9273814250598982,-0.7574692163325824,-0.281788473126292,-0.695260941089839,0.11317382190178094,0.020222599960128148,-0.9958430815508021,-0.8141468329241478,-1.1981275068146908,0.255760262063132,-0.8072601553543948,-0.912902585052321,-1.1474301207515798,0.44430711100819764,-0.775516018630197,-0.4019585910240514,-0.34613122014257147,-0.11859923699128613,undefined,1495595253481
903d185fccf839df,0.28959572992902305,-0.664978382943196,0.053187700017571185,-0.11671884624240826,-0.3617903031191131,-1.9611855559463836,1.9823075494351312,-0.31367257779414026,-0.37222612905198005,-0.4105962624979001,0.0783165469558116,-0.02751867393729777,-0.9262129567736186,-0.7345250921986651,-1.1012852872254348,0.7326237064572856,-0.44600265742823525,-0.8020254062848227,-1.0825346992219904,0.651539390012794,-0.6667907303195376,-0.38813100625378427,-0.2872999482060722,-0.19079950047544367,undefined,1495595254948
903d185fccf839df,0.3159300171005321,-0.5863182562829606,1.0267932149562502,1.0235361850378988,-0.42955248145817176,-1.8952657572644507,1.9768533470029868,-0.2930652086033681,-0.28652078652722046,0.17905156253017218,0.05600598720211781,0.002303959378936604,-0.9523242535650625,-0.5817625118134935,-0.9907588395146513,0.969034811976466,-0.4610022947958875,-0.6643662097465268,-1.0174433678931791,0.905937105359633,-0.5364708201876122,-0.4180373322460166,-0.3958082366637831,-0.30626436963876524,undefined,1495595256460
903d185fccf839df,0.05813130209453402,-0.562837641744109,1.4083239343866116,1.3705408945511992,-0.5723591004966226,-1.8974715477832054,1.9085152139641808,-0.8010499713146148,-0.22951787441599047,0.5283909306366553,0.08567868532454172,-0.0039817186953707015,-0.847879066399287,-0.4984375132947471,-1.0012851515659702,0.97711725042333,-0.5142780783044503,-0.5704233230090912,-0.9898199586743988,1.2890042312056618,-0.4083365705719378,-0.4482280760755426,-0.4619278158085224,-0.4233564336838341,undefined,1495595257958
903d185fccf839df,-0.03195959679489962,-0.5892533458875638,1.0051005932273676,0.8972221438010235,-0.5966436267292814,-1.9305700378101225,1.8487686456985402,-1.2379994625365927,-0.22563883946118815,0.08211544790054992,0.11828627978405386,-0.06569107195307494,-0.9262129567736186,-0.4799207419120766,-0.9612851120266518,1.084209482116294,-0.544121486681904,-0.5338822382950561,-0.9514774344523845,1.4325023410886517,-0.35885201836514036,-0.4689134286836932,-0.45869475358025624,-0.4628752394919451,undefined,1495595259465
903d185fccf839df,-0.20243933599166636,-0.6285833946036853,0.30647837339939105,0.20943094775747287,-0.5231317492651564,-1.9334769270511056,1.958189606157208,-0.5149608257749027,-0.30456707387919374,-0.22706626153329135,0.272101777691748,-0.007322481255770832,-0.9479723707664884,-0.5289899574949827,-1.0223378345664782,0.7952624560306936,-0.7144656353516919,-0.5876362645997159,-0.9949906020774237,1.2639663627736828,-0.4302858015125003,-0.4565966908000712,-0.5078694193223945,-0.5443311546357431,undefined,1495595260959
903d185fccf839df,-0.1927372429041561,-0.5205725326513768,-0.08972672176457652,-0.2655556555295822,-0.5256208940100445,-1.9318907150132727,1.9367067217597702,-0.6002725898127975,0.00637156592994926,-1.0643495153878009,0.1882472340181733,0.024456956461620535,-0.9566761363636364,-0.5410257986726169,-0.9286535126418464,1.0458179630893134,-0.6281165798715613,-0.638090827896244,-0.9129949750038008,1.5522714580895756,-0.3728328403696899,-0.40116649737856513,-0.3115486060583233,-0.30404321694071557,undefined,1495595262468
903d185fccf839df,0.10109785236086127,-0.7589008410986026,-0.29708061671642033,-0.4427837473269428,-0.4372770398920508,-1.9901915726602752,1.8943010901036725,-0.9107681434289705,-0.003028612227986519,-1.042233772276287,0.05145406967175526,0.06502390574841135,-0.9349167223707665,-0.5993533546191474,-0.945495608979063,1.0922918922984364,-0.565537393170552,-0.6911355648024791,-0.8776400898947504,1.7661096720349654,-0.33066359877854873,-0.33312419686213196,-0.38754225816778604,-0.1391522475146891,undefined,1495595264000
903d185fccf839df,0.29652589993633105,-0.346228932069363,-0.12481744346706071,-0.24094635285986585,-0.5877464988130117,-1.8642752291908762,1.9134881550298255,-0.6573617042603482,-0.01535196202936493,-1.1573031722364615,0.0960662233412075,0.057753221883539874,-0.8913978943850268,-0.6363867031228702,-0.8370744361943406,1.8843701252083496,-0.14428641468395276,-0.7359601400790827,-0.8069303187957929,2.225599294195038,-0.21941110427216412,-0.3212071537577143,-0.3394798657888309,0.001048840887851697,undefined,1495595265457
903d185fccf839df,-0.6653683296822834,-0.5464012364107064,-0.318772730171404,-0.2998119269790713,-1.1681786666083667,-1.8353553947135706,1.920254651388287,-0.8143417713981058,-0.2285320497067628,-0.7782796403617381,0.2059697348525022,-0.11860087033959386,-0.9479723707664884,-0.7845201295146979,-0.8202323104081888,1.7752572768374892,-0.14179919246311612,-0.8185353925391066,-0.8238206203560817,2.482275981191103,-0.17999981083138558,-0.2917388641506738,-0.35102748612667983,-0.1318006461459298,undefined,1495595266957
903d185fccf839df,-0.5794354016766775,-0.584557255130585,-0.5146426846527032,-0.4672795934623995,-1.0989970663511124,-1.8689569995054922,1.9136091322742839,-0.8803081280498328,-0.2081372576098771,-0.6948019606459951,0.21338647255259888,-0.10105159107549645,-0.12111463903743315,-0.7539676270359768,-0.8718113252296749,1.5873408019994928,-0.16747911991411518,-0.7832418980008145,-0.8423061956526415,2.2855608399551395,-0.22726690409554454,-0.2847409210603577,-0.4182143846039657,0.022609257122917704,undefined,1495595268456
903d185fccf839df,-0.5032046357694014,-0.606276780833084,-0.5114527576635407,-0.5186756240478827,-1.0030623692951135,-1.9697664736558014,1.9133777200447013,-0.9878405426294052,-0.29209033641461657,-0.59884977209908,0.13035154867094353,-0.11569170922837928,-0.06889204545454544,-0.8641418411009377,-0.9728640799465857,1.3044557672711894,-0.3687812222454027,-0.8594525421425726,-0.9330268448556976,1.9986108077846707,-0.3360601057332338,-0.3539246735677061,-0.5207332062145996,-0.09997460439245291,undefined,1495595270481
903d185fccf839df,-0.2842141895972152,-0.9702264523252465,-0.6269325874815336,-0.681352058866525,-0.7819713128355917,-2.0957294009871963,1.9366067902756732,-0.9084932743485282,-0.33389814816156843,-0.5672310022339907,0.11700611381056494,-0.1674073740070369,-0.1124108734402852,-0.9039526904186704,-1.0181272847143557,1.2094870943219962,-0.4556708327074528,-0.9363978077730549,-1.0163518651884373,1.5953717160615644,-0.4796169122826284,-0.4144113925379607,-0.4491952981622344,-0.13258318999359378,undefined,1495595271462
903d185fccf839df,-0.45746605890664266,-1.0471254974561273,-0.7953674417247791,-0.8115286137683724,-0.5623305400726021,-2.141466342857995,1.9315812280002325,-0.9292995228731796,-0.3014338816264045,-0.6801924967581915,0.08972727137483981,-0.05023504917975935,-0.5737104500891266,-0.9539477180216223,-1.1349695498410892,0.7932419241469618,-0.5254247919654159,-0.9905634746748319,-1.0889997529002344,0.6761461103189091,-0.7361107422086922,-0.4121449455691095,-0.48544006668754136,-0.11649382205088094,undefined,1495595272950
903d185fccf839df,-1.1366131961297365,-1.0823464229179038,-0.9031916500783415,-0.9465802492338002,-0.27779730411976455,-2.163184169111477,1.925732538811953,-0.9289193940305055,-0.2998518828253948,-0.6329868647363566,0.0892380996169889,-0.19230384944426307,-0.5911179812834225,-1.0132010876070452,-1.2276012343026903,0.18503897511633458,-0.7504219953128198,-1.048655566617835,-1.1949874439989698,-0.11815190304853683,-0.968494975591024,-0.43641043695323756,-0.5041576658723177,-0.3638046176081975,undefined,1495595274509
903d185fccf839df,-1.1989839325710843,-1.1023049566017746,-0.8132317444475475,-0.8491803202096189,-0.1510260884907359,-2.1837373758321386,1.980400951875445,-0.5422181633922085,-0.303406973311506,-0.6469927964570465,0.08175882648316987,-0.19603580283293676,0.009441844919786108,-1.0872678088971932,-1.2686539168267146,-0.43932885787420106,-0.973273425985742,-1.1319907717710158,-1.2562725104922536,-0.7165662892147723,-1.1580537866736773,-0.46734976873009015,-0.5993269366868418,-0.4876562560736408,undefined,1495595275967
903d185fccf839df,-1.2544244644997145,-1.0876295670347438,-0.8368385256794871,-0.8797297067122821,-0.08321248984661564,-2.189907530244352,1.9843114659595604,-0.5076361386491561,-0.2876713340006086,-0.6591316005516221,0.0865259625958079,-0.4492230292769666,0.3097217580213904,-1.1437436679555253,-1.2918118333407187,-1.1707888872267986,-1.3138829400036527,-1.165074069680128,-1.279655852362587,-1.1128606799818699,-1.2667751945100005,-0.4713698104607226,-0.6428481305415092,-0.5100326143226355,undefined,1495595277462
903d185fccf839df,-1.2779866905693822,-1.0876295670347438,-0.8400284526686497,-0.8869555172719675,-0.07046851029371272,-2.1895534859883394,1.9836066765362597,-0.5087259716106665,-0.2875893676452965,-0.661174678159151,0.08611272604774578,-0.5212294200662325,0.24444351604278078,-1.1418920034442634,-1.3044434322817287,-1.1728094968385148,-1.325955106904266,-1.1639341398735643,-1.2827974204645662,-1.1168180805019525,-1.2682270081678615,-0.4711692335506985,-0.6429229592736647,-0.5096804309341667,undefined,1495595278967
903d185fccf839df,-1.2655125708854404,-1.0858685238671293,-0.9599744852358093,-1.0058165004008564,-0.09109133226168743,-2.187715716215097,1.9535427277241182,-0.7134156046760249,-0.28790874555622215,-0.6630090107315741,0.08778202136225202,-0.711900257023462,4.591974431818182,-1.1798511866318875,-1.322338186328119,-1.22938651297021,-1.3907484055195538,-1.2034200434474167,-1.2988481043893323,-1.29513208022388,-1.3264419422187868,-0.4763080818677188,-0.6725983970375097,-0.5272529281210125,undefined,1495595280453
903d185fccf839df,-1.1740356932032008,-1.0976088384435532,-0.9561461662296953,-1.0036994215176689,-0.2564544876442133,-2.180537001002286,1.9213644336875544,-0.9652804156480072,-0.2838491527102962,-0.6733930086776959,0.09191142560390927,-0.9201843349454057,5.928002450980392,-1.182628690683591,-1.3191802932648908,-1.2233246947343326,-1.3910390724747665,-1.2083660726366332,-1.2955805936548708,-1.2779782120774905,-1.324743774777451,-0.4761931517482423,-0.6723698672185235,-0.5261940481539145,undefined,1495595282655
903d185fccf839df,-0.8372340476718562,-1.088803602511235,-0.9408339067530366,-1.0036143871645953,-0.5156540526615291,-2.1829477636004704,1.9115342251978806,-1.0815587216548719,-0.2784979593451031,-0.6559575951391641,0.09371911580514289,-0.9606167629566604,5.9584656305704105,-1.1770736874367245,-1.3160223928394288,-1.1990773970591915,-1.3771792322266687,-1.1903741798263359,-1.291634392448883,-0.9024563229115894,-1.2257581405565678,-0.47409921928486,-0.6015640924549945,-0.503134244422234,undefined,1495595283453
903d185fccf839df,-0.6889305557519512,-1.0359721978778247,-0.8693766958619628,-0.9042068920526066,-0.37953313855456644,-2.1367216825349757,1.9120628183128778,-0.9931192498193673,-0.1822893508140903,-0.5922749799687662,0.10603058688393129,-0.7219318995875619,5.19253425802139,-1.0928228040498256,-1.281285505644653,1.538846227847752,-0.13012813423924707,-1.0965832846673174,-1.2488628871866145,-0.003849241518003459,-0.9658834253254613,-0.459772480896468,-0.3699128929725124,-0.3908043403547138,undefined,1495595284949
903d185fccf839df,-0.4727122741978354,-0.7113525824087817,-0.561217346825732,-0.5496712867433757,-0.5235843232557139,-2.023248136502229,1.9034028666031568,-1.000915334054489,-0.19428869564367704,-0.45762075363791727,0.15794296617683024,-0.36422082327112837,2.298532196969697,-0.9669094035962384,-1.1433905943285805,1.9348853443027088,0.014984024682126522,-1.0201889850094248,-1.1833587437041093,0.6155378279518782,-0.7734181704101435,-0.45041492864470783,-0.4243561730799978,-0.3812887840972055,undefined,1495595286457
903d185fccf839df,-0.28005621871338743,-0.767706109912412,-0.05974059482821074,-0.0314976825637048,-0.454618724062639,-1.9532777904362741,1.9187425222531038,-0.8314948836887048,-0.24810366380915358,-0.16566854261001912,0.23472151814142037,-0.09663599564986364,-0.8826941287878788,-0.8122951441301837,-1.1044431959334098,1.658062046549208,-0.4332231720594698,-0.8985458031475232,-1.1223675433471676,1.2591312564634825,-0.5550397745253571,-0.4328204133788682,-0.6154733937241824,-0.46759129155947665,undefined,1495595287978
903d185fccf839df,-0.047205708569863156,-0.6843498486532094,0.1023149137106086,0.08966980221664973,-0.5476117025672399,-1.9409421401827003,1.9702104482647511,-0.4906847074992807,-0.24422241738670952,-0.3167270670583083,0.23818908207116093,0.048997159029510934,-0.8087121212121212,-0.7252667421219599,-1.0423378506550205,1.0155089107739184,-0.5764873543560698,-0.8095362798392925,-1.0545894365744246,3.000295077678087,-0.07516892543147255,-0.4491609529017855,-0.8379051297398785,-0.34947421575655,undefined,1495595289466
903d185fccf839df,0.07614957848756801,-0.7459865111399321,0.178876211093902,0.14435954626462597,-0.5643362476442305,-1.9704885386727284,1.9627417980478221,-0.540083641502416,-0.25682103395052935,-0.2597211571152776,0.2222649764719767,-0.02342195931612506,-0.7608414104278075,-0.7280442558867443,-0.9854956853295502,1.2094870943219962,-0.4631932233716302,-0.8062114840487784,-0.9858457693440477,2.52913344204135,-0.17633435328012442,-0.4287610832666505,-0.7927853156275185,-0.4022674737881048,undefined,1495595290952
903d185fccf839df,0.27850762354329706,-0.6174300657973903,0.3556050788185296,0.4263945674318459,-0.46616955685354106,-1.9449833680112913,1.9420978199077659,-0.628703479953376,-0.21321583317766415,0.00819488220706101,0.13320788537924214,-0.009566320942349313,-0.7216744652406417,-0.6993434163004383,-0.9244429554274901,1.4277129041226029,-0.48982589519422204,-0.7507285651112541,-0.9414300149755035,2.213958061387184,-0.216111397886538,-0.43302741568257913,-0.8645967672276443,-0.4772332434559119,undefined,1495595292459
903d185fccf839df,0.6166952823728574,-0.5546194317704096,0.9495935255560051,0.9238867682796699,-0.23199509284084785,-1.8925591811238673,1.8853413512743136,-0.859077414156279,-0.10904339970946456,0.13441191692748977,0.1056163319625952,-0.07941635955959271,-0.6128773952762924,-0.725266768023509,-0.9191798196479737,1.571176094694094,-0.30391003817075796,-0.7496392983225894,-0.92214680418103,2.1261099298334116,-0.23427108057383425,-0.42490407005309355,-0.8119892293856251,-0.4665514663967565,undefined,1495595294491
903d185fccf839df,0.5751147454047459,-0.5334868479960512,0.9157793337504747,0.8852637539065247,-0.04985596449029363,-1.8790822032983703,1.907326539656047,-0.6636776203181043,-0.16480983173095157,0.24338620917834533,0.06258863528936298,-0.12282856531338882,-0.865286597593583,-0.7187859284738944,-0.9160218998966481,1.6722063632944826,-0.2628671214231055,-0.7542940117649092,-0.9068167919784246,2.0438668296892377,-0.25667042105663246,-0.4325600703264479,-0.7146234884622338,-0.4572714645063249,undefined,1495595295458
903d185fccf839df,0.5501665750476818,-0.5510973271676851,0.40154185724850566,0.38238763855721475,-0.22963966423600102,-1.916706404663046,1.9612244134957995,-0.40226662630402044,-0.1438886416771308,-0.13684387626072653,0.13187423017056238,-0.09498481927113038,-0.9479723707664884,-0.7224892607341119,-0.8233901933483455,0.45984167032429946,-0.8041343583688704,-0.8119744630111351,-0.8853365831314441,1.0282007653802532,-0.5283690839658713,-0.4265957270145617,-0.7133449130751929,-0.43838734506129934,undefined,1495595296959
903d185fccf839df,-0.10403239181834795,-0.6056897658349626,0.038513324283965235,-0.06188943972856116,-0.5746013718442461,-1.931608877761495,1.972821861435783,-0.4442617463369094,-0.11831085980023928,-0.4146412465399518,0.1661430878782022,-0.061537624806356474,-0.7521376448306596,-0.7308217696515287,-0.8318112783281227,0.1547297673449711,-0.9055068455676178,-0.7958824531988588,-0.8708811720559749,0.8819001388568328,-0.5606200329032907,-0.4423928859316148,-0.646196531876293,-0.39618990272319626,undefined,1495595299712
903d185fccf839df,-0.20936947149356458,-0.6444327995529627,0.0799844082386733,0.018339897814552187,-0.7000457313489981,-1.9557258206259176,1.9432444351683515,-0.7031800356326604,-0.18808731615316227,-0.34517639548328405,0.16960439089410578,-0.07127521597926528,-0.7738970588235294,-0.7660034423120619,-0.8318112783281227,0.20120375308353722,-0.9204597161575826,-0.8182124121291897,-0.875058268112649,0.8735541806979806,-0.5698445215075721,-0.4550041398176996,-0.648279244114661,-0.4207963106905613,undefined,1495595300008
903d185fccf839df,-0.15808694495417203,-0.6555861283592576,0.1775999353338977,0.14842946141443455,-0.754878788184617,-1.9615139800002976,1.8996659132625113,-1.0266958700766624,-0.2649345114279317,-0.23581975405564742,0.17198838948270154,-0.02444430014162513,-0.7869527072192514,-0.7743359512294787,-0.8539165546182587,0.4234707397104937,-0.8018434771454497,-0.8139756725820111,-0.8953560169491372,0.9920914153455095,-0.5445421845713757,-0.4681357435384032,-0.614538869571037,-0.43572457936024805,undefined,1495595301454
903d185fccf839df,0.1773285147519082,-0.5945365100986486,0.589117289974524,0.5472662764455494,-0.3902302563047063,-1.941410315830302,1.949603299943447,-0.5698147607761539,-0.2597030078419676,0.5183387912904783,0.0594732578287221,0.020417872690277585,-0.669451871657754,-0.7280442558867443,-0.8307586408650922,0.1971626327866306,-0.881753741004047,-0.774800083115471,-0.8997080328372997,0.8285599238308962,-0.5718268416925416,-0.45254742639033124,-0.6330479505133422,-0.4282474654090572,undefined,1495595302964
903d185fccf839df,0.08585163706966853,-0.5645987305804617,1.1103725041978707,1.246797044654213,-0.17845803890139625,-1.8706829661836155,1.9320177837553718,-0.5227401719545761,-0.38739870596049264,0.9922123698151417,-0.02771277687181258,0.05285620963362782,-0.9262129567736186,-0.7215634292879043,-0.8686534128405831,0.10219404463160192,-0.9541221163940262,-0.7471821148248149,-0.9068027988643873,0.5335103140540266,-0.630150426695327,-0.4366757376697827,-0.5942569907696195,-0.5489992425831507,undefined,1495595304476
903d185fccf839df,0.07060555980011472,-0.5810351505278605,0.9093989714982508,1.133434095464017,-0.2742693062805917,-1.8650694995897505,1.922595179613497,-0.598924236271835,-0.32064510648470684,0.852669210471028,0.026760786376181823,-0.022782790459202094,-0.9784355503565063,-0.6882334000936243,-0.9012850711232588,0.2456572069383716,-0.829742134007669,-0.7271763451831936,-0.9174729347723263,0.5163718419702548,-0.6266718597113239,-0.4480674283969344,-0.5456935366052719,-0.5592437900503693,undefined,1495595305954
903d185fccf839df,-0.10541833610574422,-0.6021677196882228,0.22736503276998785,0.35595951228272515,-0.5420060035488029,-1.845331526222952,1.9508261454600202,-0.47188244243612615,-0.23805979165579877,0.11507667600356966,0.09487343517154491,0.010468540018232822,-0.8609347147950089,-0.6817525670193971,-0.8307586261406246,1.009446947681343,-0.5046295376891213,-0.6933710921488653,-0.8585108094289288,1.3346606276215336,-0.40913218736043155,-0.4549984600806423,-0.5154764290132684,-0.17667296673059021,undefined,1495595307458
903d185fccf839df,-0.2828283143206384,-0.6274093646074425,-0.05336023257598686,-0.043071538362531386,-0.7426799544777696,-1.88288119227152,1.915158093323263,-0.8295884607134035,-0.1813634558186546,-0.3518642556700224,0.12316562279916161,-0.0094301464763906,-0.865286597593583,-0.6891592444906064,-0.8433902315235892,1.0094470324755076,-0.5420265754819987,-0.7175819358773647,-0.8545226272169886,1.4651316573822355,-0.3913522492426524,-0.4511297296400989,-0.5319369397697348,-0.15765981784134733,undefined,1495595308965
903d185fccf839df,-0.34519891274034725,-0.683762833655088,0.020011137818144037,-0.0022369192668268492,-0.6733132143305146,-1.9099003669214238,1.9218193996382225,-0.8126603027498872,-0.26845856173859256,-0.4333673430219155,0.0759028120754676,0.023536522558571586,-0.8565828319964349,-0.7650776108658544,-0.9044429614256493,1.1064361807789895,-0.5672475903466879,-0.7628054867662074,-0.8670469185149631,1.4084037843042672,-0.4219667130600636,-0.45511660791867015,-0.498972200779074,-0.12166512638131355,undefined,1495595310501
903d185fccf839df,-0.32163668667067946,-0.6931551320810149,0.07169039475729123,0.04403753947595331,-0.6904697593833032,-1.9132754345712046,1.9001971335621677,-0.9613825844533672,-0.28826653212431586,-0.4310756072401467,0.06106535823665544,0.0426965134691703,-0.7913045900178254,-0.7715584568908561,-0.9023376644128867,1.0922918922984364,-0.5530014910618282,-0.7806580547270154,-0.8753801204220121,1.41750426502453,-0.4300678911730135,-0.45295302072607996,-0.47559239071511966,-0.102572345581527,undefined,1495595312534
903d185fccf839df,-0.3438128994421315,-0.6702615179262884,0.2286408002560933,0.23321968384697817,-0.5287271694223353,-1.8851894689167443,1.8538231342407985,-1.1949241925570604,-0.32192573421342185,-0.3371332965573895,0.07239697922285583,-0.05032126009391076,-0.7913045900178254,-0.7539676011344277,-0.9191798270102074,1.100374359010022,-0.5283198337876479,-0.8027093652373375,-0.8853925564990354,1.385937450540336,-0.4481202998209774,-0.45222697058858347,-0.43689743797676045,-0.07978168102737757,undefined,1495595313463
903d185fccf839df,-0.49488848696928744,-0.7424643919232115,0.839855920110234,0.8412964733443212,-0.29956183995739966,-1.9024351555656926,1.9105270109950652,-0.8105727061621759,-0.2934822505650125,-0.1121642232583044,0.07826770741928721,0.01887111710675141,-0.8348234180035651,-0.734525076010197,-0.9233903253266933,0.4598415855301348,-0.5791111714718523,-0.813608361704769,-0.9144643060586527,1.1692813246727127,-0.5082336407280318,-0.44831925412564394,-0.43949068778301886,0.005314374976678513,undefined,1495595314963
903d185fccf839df,-0.4879584204782087,-0.5898403754996814,1.0567795960295654,1.1084493762741943,-0.22338596040460376,-1.8388282904535391,1.9153342927741315,-0.6729734570171038,-0.27319696452691583,0.0938451531764668,0.05825048700186445,0.06300056697316485,-0.8565828319964349,-0.7984076530109089,-0.9981272686258135,-0.3463808793308884,-0.978582700188516,-0.8425245824859107,-1.0023022695842438,-0.01165625164955742,-0.8105599890532598,-0.45345520241917064,-0.6340681376198165,-0.4997650387117439,undefined,1495595316478
903d185fccf839df,-0.5059767313766524,-0.6139079904226582,1.1952283233364451,1.2771491908134147,-0.19774371560916013,-1.8654864311958075,1.906824240385599,-0.7540850331521946,-0.2886493611115862,0.23177503996551074,0.03343166906326612,0.011566977563486387,-0.8739903631907309,-0.766003468213611,-0.9949693635989554,-0.4090197419631826,-1.0143998144972484,-0.8229747850049918,-1.0156941649721467,-0.19962507684131647,-0.8459528205214777,-0.45382252389048183,-0.6251038690907806,-0.5230249470551261,undefined,1495595317963
903d185fccf839df,-0.2828282453098189,-0.6004066746938587,1.1256847636745293,1.2040722676763966,-0.3941182451720461,-1.8808431068641003,1.9118103498477155,-0.7805912856721935,-0.27600405231828196,0.46268774163868037,0.06427372506659336,0.02496197435266627,-0.8565828319964349,-0.7484126124571826,-0.9728640725843519,-0.3564839061909273,-1.0126146631334871,-0.826818881579092,-1.0013507027667143,-0.24873071951760958,-0.8520849151697337,-0.46156552230168624,-0.5863608398251986,-0.535956713773651,undefined,1495595319465
903d185fccf839df,-0.2994604738992274,-0.6238872746187142,1.3004999801699988,1.2603281449910484,-0.3671491487334929,-1.8951027110166234,2.0203687352940682,-0.061846600339030854,-0.29841987774031664,0.1501204388329746,0.007681254243495813,-0.021333444518209455,-0.843527183600713,-0.7465609171878311,-0.9728640725843519,-0.24332989512607803,-0.9878648397342662,-0.8073070818377508,-1.0043663280282311,-0.2340252032817427,-0.8396888710358108,-0.45491493636177566,-0.5770008852483544,-0.5414730851685541,undefined,1495595320950
903d185fccf839df,-0.19966744741687378,-0.5939494512585387,1.274979547708901,1.2596465783477226,-0.4766198261889232,-1.872087499026637,1.9885849086344858,-0.25746248580637526,-0.32052098729868894,-0.04627403581761965,-0.02064730682965905,0.06684123774983229,-0.9131573083778967,-0.742857591403001,-0.9812851502018954,-0.06753702142893463,-0.9469410324840845,-0.7931719511622453,-0.9836137869190701,-0.0046191627402576785,-0.7769888106480378,-0.4616348526402952,-0.5839266319508873,-0.5450355045988999,undefined,1495595322512
903d185fccf839df,-0.22184366018832583,-0.5898403754996814,1.1295130826806434,1.1002499046392251,-0.5287065978322073,-1.8865171348727132,1.9552442299442503,-0.5044963969156953,-0.23140176573842294,-0.26211796079361127,-0.023777063105796633,0.002964111697213397,-0.691211285650624,-0.7706326189692614,-0.9381272203601867,0.3911408728641515,-0.7555388091544586,-0.8147862887470739,-0.902156914484814,0.5341570436740178,-0.6438826089979076,-0.47334151810161584,-0.6360792807325545,-0.27140512232714,undefined,1495595323956
903d185fccf839df,0.2660334348485358,-0.6227132300084752,0.3166860381099313,0.32566508346849304,-0.48126896450715917,-1.9206544641248018,1.983698746369293,-0.340864294029999,-0.18817758824454406,-0.3880484614577032,0.018119269741352972,0.10405758962585777,-0.6476924576648841,-0.7826684666222828,-0.9560219615226677,1.3792182451766972,-0.5072286539137574,-0.8304096605555866,-0.8953420210273689,1.3702926337902053,-0.4418859913542335,-0.47641321647916307,-0.712019531942744,-0.3608390909824391,undefined,1495595325458
903d185fccf839df,0.22445324293452165,-0.7201577927666064,0.6478142846350489,0.6300497696603701,-0.33008979659361276,-1.9430268079607522,1.9116315347349273,-0.7960259872738711,-0.186549276993894,-0.4431251463533792,0.01663455070881131,0.04605619478218914,-0.7347301136363636,-0.7715584374646943,-0.9476009207162932,1.4216510258241921,-0.5755920542614891,-0.7747684183084974,-0.8885970956542222,1.491663180743986,-0.3890313723016255,-0.49385391712027293,-0.8113394983345773,-0.3435431661122883,undefined,1495595326955
903d185fccf839df,0.16762655968603685,-0.7448125103716816,1.2143686476822684,1.1358451676536543,-0.2141082762356974,-1.9386012525407688,1.9407776638066248,-0.5543074510647327,-0.32350112289638655,-0.2750755511719883,-0.037901886117338836,-0.0538750488620338,-0.7521376448306596,-0.6854559187057763,-0.9202324571110042,1.3529503414229305,-0.582050178842838,-0.7049920464323325,-0.8493519843400308,1.5511319767748364,-0.32874963198239276,-0.4870085470538193,-0.9487830915154748,-0.44624519635067306,undefined,1495595328467
903d185fccf839df,0.1094139321501558,-0.672609577918774,1.3566451857213633,1.4376447658592655,-0.5124552023769546,-1.9094904201988876,1.9157866116372262,-0.7590090684783968,-0.31723910446368503,-0.3580446254669982,-0.010979845888692191,0.11021758658085262,-0.8130640040106952,-0.6178700094448469,-0.8886534510158267,1.3388060529423773,-0.5346878711658714,-0.6484071946305421,-0.8292361528921891,1.3896484798238857,-0.3283117747406716,-0.5087115077476587,-0.9956250345436922,-0.46139318101642784,undefined,1495595329953
903d185fccf839df,-0.19273738092579504,-0.6526510095266621,1.6290756751751077,1.5114382811642522,-0.6963325975448471,-1.8960460521129492,1.9386212218238696,-0.64935173583088,-0.2657796018769841,-0.13526268190991342,-0.09138854896784258,-0.022740075446319542,-0.8174158868092692,-0.5669491568710749,-0.9033902871514496,0.17089470076814217,-0.8121794562010278,-0.5878452539501994,-0.8765206006989005,0.4281541485873587,-0.5423606542123531,-0.49484668341464644,-0.7965900027051116,-0.5621562995761139,undefined,1495595331459
903d185fccf839df,-0.14145481988099273,-0.6056897804489588,1.3917359074238476,1.2912995441568442,-0.7061245785487981,-1.9013287671759547,1.8853807957074635,-0.9898673238784157,-0.2907443064968589,-0.573292385046018,-0.06749685982644396,-0.04744644475932398,-0.7564895276292335,-0.4521457596735272,-0.9139166617817558,0.023390361635022814,-0.7402767627557394,-0.5547049599244839,-0.8767654897279927,0.19771641063934448,-0.5796407167742964,-0.4927926229474438,-0.6675934006748665,-0.5772394055026331,undefined,1495595333028
903d185fccf839df,-0.19689542082044229,-0.6150820496468934,1.3368667234955378,1.2414512494469472,-0.8304272271766694,-1.898556973527825,1.893009864459436,-0.9530166368300714,-0.350446301721216,-0.8759133306141398,-0.032910735490786096,-0.07734655567307454,-0.6868594028520499,-0.5104733026692831,-0.9139166249705868,0.015307923188158802,-0.7941508177776603,-0.5606642598584698,-0.8804458110379467,0.20529244575853042,-0.5899217399452433,-0.482710528422288,-0.6296309205783276,-0.5969723242205149,undefined,1495595334462
903d185fccf839df,-0.30223243148483947,-0.4424994648312514,1.1652416881261805,1.0751249622948684,-0.8820922854354267,-1.8606299709878134,1.9343188570722143,-0.63247676221977,-0.33069638595540024,-1.0932972697175791,0.0018163952710898799,-0.017043984194608376,-1.0088987299465242,-0.6123150337183764,-0.9339166705080643,0.15270926372596083,-0.7340315345785018,-0.585977036838802,-0.8637234331772636,0.5264578210989598,-0.5395827345387243,-0.40204909688430185,-0.5966531198747184,-0.4653091000164768,undefined,1495595335958
903d185fccf839df,-0.46162423682292886,-0.4483696148124653,0.8124213281460791,0.8307874143447911,-1.0938027888045445,-1.86199257551257,1.9205281593286807,-0.7839394244356227,-0.21004596016721622,-1.132835645009836,0.007237583875335405,0.03330424934698614,-1.017602495543672,-0.6280542136316152,-0.9518114263950128,1.1145185909611321,-0.4993423386135006,-0.605229184250517,-0.8389617193011912,1.1693583210597978,-0.4026126718574273,-0.3908172216403681,-0.5755216284726956,-0.33625363932330704,undefined,1495595337459
903d185fccf839df,-0.2814422320116032,-0.43545528485379476,0.8124213281460791,0.7705892365484641,-1.0079480753823846,-1.864985648012167,1.921411775387509,-0.7675567440664945,-0.21497968580834614,-1.2080374145338029,0.015288432337827272,0.0041134477546542585,-0.9871393159536542,-0.6262025377884256,-0.9728640946710533,1.2195900929173134,-0.44450565562840133,-0.6021260417710816,-0.8570554724484926,1.3329822039067416,-0.3735283506660969,-0.4116754793422562,-0.4935089331262352,-0.35816669030931303,undefined,1495595339549
903d185fccf839df,-0.31332053787056546,-0.4677410951364749,0.8564442012099476,0.6648492751089271,-1.0235514779157742,-1.8707435272318653,1.9181849976336804,-0.7973600257089667,-0.21100107643063945,-1.163563597404343,-0.011344544328320454,0.042444832544419185,-0.852230949197861,-0.6178700223956215,-0.9791798679136005,1.2458579684063589,-0.4082406161563127,-0.5860466978074035,-0.8526894628284697,1.3872771209079464,-0.35900300316388156,-0.4045708161598317,-0.4640645655396119,-0.3094808126078155,undefined,1495595340460
903d185fccf839df,-0.352128979231426,-0.5346608779922939,1.0363629959237377,0.9966851963475555,-1.1305638743451578,-1.8870179213466844,1.938389802261634,-0.7105429972261593,-0.25828040105790057,-1.0373599258342818,-0.06422793907211947,0.003894937219290968,-0.5867660984848485,-0.6021308554331573,-0.946548268528795,1.1246216460858924,-0.4425083446234889,-0.5700243492848552,-0.8703214248735917,1.4706905022733092,-0.3376341483047364,-0.41305982248854833,-0.49806326485618296,-0.26988258511425994,undefined,1495595341954
903d185fccf839df,-0.47825636189610815,-0.5722298963280473,1.6552344996531572,1.6199638719626372,-1.1931934849227341,-1.9039887573774168,1.913119991972611,-0.9293848773947911,-0.3094797826726857,-0.8122385794056296,-0.017052879288057616,-0.01723300678977415,-0.6868594028520499,-0.55583916656581,-0.9486535213681548,1.1508895781043809,-0.5218637015575082,-0.5654519636784816,-0.9024507810493506,1.2509700842002467,-0.37927167688079416,-0.45917318127816725,-0.594603615034355,-0.3111063341363432,undefined,1495595343466
903d185fccf839df,-0.5835934415713248,-0.5587285221432632,1.1320651259267533,1.003115450894628,-1.1963203388869663,-1.919503819151135,1.8970176943657282,-1.0577616156923724,-0.32633855202818934,-0.9386163395553903,0.01682541897697062,-0.04354483067976511,-0.6346368092691622,-0.5225091438469174,-0.9570745621745294,1.9975243765233321,-0.2860641029619428,-0.5818226228741465,-0.9145412695774892,1.9129338587350748,-0.22072313307480596,-0.4481948022172991,-0.5655925647856452,-0.3060873926906674,undefined,1495595344958
903d185fccf839df,-0.48241433277993595,-0.6127339604264155,0.6535567631442201,0.5914074590819135,-0.9615904422128878,-1.9240807745182074,1.9774582033709078,-0.48288283371137763,-0.2984386193929083,-1.2753327388173739,0.12134488783564597,-0.08937687369459794,-0.8957497771836007,-0.5382483237601562,-0.8970745139089026,1.2337344379273096,-0.4163039197178524,-0.5790741248862985,-0.8873096818534415,1.4384769520976228,-0.3223088615063113,-0.43464023654795036,-0.6528037241473023,-0.3598420761000065,undefined,1495595346503
903d185fccf839df,-0.2828282108044092,-0.6262353638391921,0.5068137682190088,0.4095992767395673,-0.894321986950181,-1.9324357568307862,1.954502631652633,-0.6295786440692658,-0.2602410352197383,-1.0300049473784583,0.12624769331171207,-0.0029459740446623386,-0.9653799019607844,-0.5234349688177375,-0.9128640095942576,1.197363563842947,-0.3692993618885698,-0.569277061382793,-0.8861901920948221,1.2804273091004603,-0.347323159645432,-0.43594039026840387,-0.6686495317291096,-0.39516958473546787,undefined,1495595347957
903d185fccf839df,-0.2509499049454469,-0.564011686354348,0.9502319175729567,0.8177088396211024,-0.8745734466518043,-1.8890583352150223,1.94447255076707,-0.6254851445131498,-0.29856670356032383,-1.0292603025207407,0.260641589475733,0.05160910070297175,-0.9523242535650625,-0.5188058180620873,-0.8570744522828829,1.4418569664853838,-0.38859831717111976,-0.5806003638419334,-0.8633945824849389,1.4173194890237115,-0.31435126612522934,-0.42770011856135426,-0.6807199992961366,-0.42037865844311667,undefined,1495595349460
903d185fccf839df,-0.295302330488351,-0.5217465772616158,0.7033210981694619,0.5833787153141171,-0.8423997837227994,-1.9121597293944803,1.879666238542331,-1.066693956747476,-0.3054461719463728,-0.795651940650883,0.26311163860813086,-0.024242572067314828,-0.8783422459893049,-0.5928725215449202,-0.7960217371052903,1.3185998861634134,-0.39548922750927656,-0.6127273880696493,-0.7947978483074404,1.5197191491817836,-0.292555460257763,-0.39963596856230277,-0.6613177717117095,-0.5191348193151984,undefined,1495595350954
903d185fccf839df,-0.25233597000177727,-0.5522713863919202,0.24586721923580904,0.22884819977195603,-0.9832624028121438,-1.8936376181990249,1.9247963434442001,-0.7781710891851757,-0.31918396671087024,-0.9615822398427424,0.20810737323890505,-0.12352377241480891,-0.7564895276292335,-0.5836141811812958,-0.8897061032033249,0.5022744227070728,-0.727013024517432,-0.6238353714237481,-0.8684952567148286,0.5759176274954876,-0.5479207177461527,-0.36315811038606494,-0.6201739050439865,-0.5030515967140095,undefined,1495595352460
903d185fccf839df,-0.4893443992710147,-0.6086248554395658,0.031495078288688624,0.0002723285045455448,-1.1303478694459796,-1.893681874480332,1.9338744260482277,-0.7778723609460477,-0.34425691914371226,-0.772776628535195,0.09579613871373062,-0.06966184894118145,-0.1994485294117647,-0.6336092087842476,-0.9086534891910704,0.4113469831136723,-0.7239367116082334,-0.7157707144174906,-0.8993861778425466,0.7742957917795159,-0.5458481691716746,-0.4032675281037691,-0.6006663220778579,-0.5672619499010264,undefined,1495595353958
903d185fccf839df,-0.4228157264512489,-0.6690874879300457,0.2286408002560933,0.16901254589918024,-1.02410690716227,-1.9083607402895,1.9298481943265817,-0.8218106547380434,-0.39365764693615557,-0.586011633942621,0.07869205810038452,0.003113442260231179,-0.4213945521390374,-0.6150925215816117,-0.9139166396950544,0.6255314464996001,-0.6700304448329951,-0.7256311080553899,-0.9206774736461283,1.1387923962944684,-0.47747629213285786,-0.4155915856478735,-0.42376437766586467,-0.5875686807209846,undefined,1495595355462
903d185fccf839df,-0.18996528531854406,-0.6955031628455081,0.964267901289611,0.9465584336960379,-0.7181177047325477,-1.9362137827298016,1.9854238806810962,-0.39942385863021707,-0.37115424727293594,-0.7854776391624944,0.231841624192446,0.06410152447411452,-0.4126907865418895,-0.5771333416316813,-0.9044429246144803,1.015508797715032,-0.4494029649867987,-0.7170626342632787,-0.9242668380234726,1.5630349666908725,-0.38284672817764576,-0.3612261592569567,-0.41348602204219853,-0.5497187936911314,undefined,1495595357009
903d185fccf839df,-0.17471920804899024,-0.6685004437039319,1.0102049338565366,0.9987959017026051,-0.6908811769901659,-1.9059499775019502,1.997962798261065,-0.2694091940392703,-0.37078068309051787,-0.7946011304227031,0.20714819615960187,0.08702908958687951,-0.9044535427807487,-0.563245837561632,-0.9581272069997938,1.1670543984686659,-0.35868868784189384,-0.6910152372448288,-0.9448654492138251,1.3068818291016493,-0.4327142134867465,-0.35881974994723154,-0.4798115892002574,-0.4995083038882135,undefined,1495595358457
903d185fccf839df,-0.06660996375570316,-0.6960901486156371,0.9585261851912882,0.8238631479188389,-0.7047051564505556,-1.9131333516466762,1.9998878227766281,-0.2632244773643713,-0.3718132322208697,-0.9240855817156893,0.1443455030317226,-0.003938541661630505,-0.9610280191622104,-0.4910307969712142,-0.8465481586371485,1.9348853443027088,-0.23253335223516583,-0.5932535852927525,-0.8879813759789874,2.1395219723169263,-0.18924740007486382,-0.3436615209078367,-0.45705050267795666,-0.3829398579139012,undefined,1495595359977
903d185fccf839df,-0.11234847160764246,-0.7383553015503579,-0.24540186805117198,-0.23200497181870924,-0.7941392942825821,-1.9596971722488086,1.9614242796065582,-0.6033820960161472,-0.3458371685045058,-0.7038070894186855,0.1059412412884854,0.012550797769719228,-0.9479723707664884,-0.5900950207309104,-0.9370745608104547,2.0035860287039706,-0.20791340977452294,-0.627521144367157,-0.9122603094213213,2.073970790967522,-0.22808859671144313,-0.3232326101677087,-0.41316861671970395,-0.34511292558486656,undefined,1495595361463
903d185fccf839df,-0.162245019354229,-0.6773057271317374,-0.3978865790747061,-0.3945835880977671,-0.8706031715999987,-1.9342316004168003,1.932656826520799,-0.8061716893057435,-0.3421980949960384,-0.7129505522104224,0.10982158033698423,-0.011767694354362451,-0.9523242535650625,-0.6669392185523658,-1.00339040440533,0.8639632534908416,-0.3393566831968406,-0.6901286266359671,-0.935895535883743,1.304756844976293,-0.4333558583201309,-0.32720960982735564,-0.4243195652519012,-0.258490712787328,undefined,1495595362965
903d185fccf839df,-0.09848833862548494,-0.6608692487283538,-0.4482895602538489,-0.5081453220748988,-0.9023448296239217,-1.9199976193657446,1.9210620057654744,-0.8547846071350989,-0.2932618072145468,-0.7098038802715191,0.03748389073618818,-0.0025406843358719688,-0.9566761363636364,-0.7123050953996672,-1.0254957322311025,1.5004546522913282,-0.3157898110018201,-0.7245101774342049,-0.9522540802027791,1.577386322800941,-0.3878296968164605,-0.3811687615524336,-0.4158537234747381,-0.3017306760063393,undefined,1495595364495
903d185fccf839df,-0.5059765933550134,-0.6291704242158028,-0.34556943839250615,-0.4119108570741604,-1.0316360402411702,-1.9544610431937843,1.954168630376162,-0.7049043290613081,-0.2225114224451427,-0.7131267807229191,0.02809733322686906,0.027738590593026063,-0.6172292780748664,-0.8882135234562062,-1.031811520198117,1.1933222739577112,-0.49384819274146347,-0.8195549953970535,-0.9793107481198065,1.4954819877834704,-0.45024664335755443,-0.3984603952557112,-0.3981436748894867,-0.35209476293927433,undefined,1495595365957
903d185fccf839df,-0.39093738608687684,-0.8193634589750863,-0.3742803061166653,-0.3863084701526241,-0.9849698267540696,-2.046321578723809,1.949214077508088,-0.8000400367833471,-0.26105659597489383,-0.6754984669971127,0.03463239312736068,-0.027449513734853114,-0.6476924576648841,-0.9021010016247063,-1.0433904807558172,1.684330063361861,-0.2924134404879326,-0.8777230832123153,-1.0058426552761364,1.8685401250452374,-0.37726415998975177,-0.45142697858858094,-0.633580770780227,-0.47928768819805523,undefined,1495595367506
903d185fccf839df,-0.5378549682247953,-0.8915663622000017,-0.5012440764052027,-0.5209706866197239,-0.9088968134020625,-2.0702894499303643,1.9495638460826012,-0.8387762381583658,-0.290361207312748,-0.6450122044467486,0.08476719785402947,-0.04223276469573339,-0.5388953877005348,-0.9289502042201463,-1.0276009997949298,1.9934830018439316,-0.09207108486566129,-0.910413738286766,-1.0160929829780203,1.7138473443265858,-0.4265830576236389,-0.45528417731162846,-0.5264089196745486,-0.4049412212470707,undefined,1495595368949
903d185fccf839df,-0.542012939108623,-0.8041010397959379,-0.5369731901246385,-0.5244159734968501,-0.9374807665462466,-1.9867396395128738,1.9346318063031924,-0.8919600924232054,-0.3116914704220073,-0.6021831466167082,0.09530531820893935,-0.07014317284481435,-0.7434338792335116,-0.9280243662985516,-1.0381273265707163,2.231914724041008,-0.07324026513900937,-0.9401025775764429,-1.0417992664876046,1.6049803353309733,-0.4702860556526,-0.477561042692887,-0.46433061842578854,-0.3459239837212837,undefined,1495595370460
903d185fccf839df,-0.6168578642447321,-0.8845221968365412,-0.6090682847587651,-0.6231784869000786,-1.2296151362694652,-1.9177895009550723,1.943581034298871,-0.8387438596222597,-0.2719027807224528,-0.6118137023602309,0.10544586126377496,0.038406616412686154,-0.8217677696078431,-0.9650577277530489,-1.088653692885821,1.2054458609662033,-0.5324781513632532,-0.9974093853505593,-1.0998658003079382,0.726529820359345,-0.7126492628340727,-0.47096005003392183,-0.528235579337857,-0.24841872871288748,undefined,1495595371957
903d185fccf839df,-0.7679334172664782,-0.9573121150595779,-0.6499009766965216,-0.6594265718012938,-1.5131403733243796,-1.894077845610361,1.9587471260627831,-0.7564414781830159,-0.21641372969973982,-0.6345212400288229,0.11048259514756631,0.06099074911025677,-0.8696384803921569,-1.0307919417446267,-1.1686538050945097,-0.5019676851755933,-1.0320641750300283,-1.0559004531106582,-1.1441766036633396,0.07007869280795023,-0.9066335586710477,-0.4653444749395742,-0.6091446684435092,-0.16572204443554717,undefined,1495595373463
903d185fccf839df,-0.9564313465927546,-0.972574505010734,-0.7277385498398193,-0.7825816226186765,-1.5577700121361284,-1.9361276010250683,2.0168526885869342,-0.4164018858235373,-0.2542552458322349,-0.6613261125471592,0.10860477347869348,-0.0069945420754326335,-0.9566761363636364,-1.0585669563601126,-1.257074950747339,-0.8414298031643056,-1.2026156286169776,-1.0877361614309142,-1.2258153931069844,-0.8688261168049048,-1.1659889200323494,-0.47060946051205205,-0.6590031245706358,-0.5105706671091891,undefined,1495595374965
903d185fccf839df,-0.8524802629630489,-0.9637692508109209,-0.7519832148148117,-0.7915193774377706,-1.4077325500241407,-1.9868724065664352,2.0119481056509954,-0.4754832341881028,-0.31339728568868935,-0.6977806187905014,0.09982700810258265,-0.5143421998050455,-0.2734305369875223,-1.0928228040498256,-1.2623381178163493,-0.9485220348572696,-1.2568482183143563,-1.120008842787397,-1.2427896559573648,-1.0041168597075862,-1.2143044934135319,-0.46904111182137254,-0.6635175129625911,-0.5302049379993427,undefined,1495595376453
903d185fccf839df,-0.6958605877376202,-0.9878369241898824,-0.8030235714631084,-0.8523622481386139,-1.0557559967035735,-2.0508379733665456,1.9736555044199107,-0.7035759362140851,-0.3283383827661541,-0.6626212522382818,0.08417212629536289,-0.7166009296728535,3.9304882464349378,-1.05949278780632,-1.2318117694303452,-0.24737110021714925,-1.0195168804884118,-1.0766535102280181,-1.1948265173977428,0.09770350498864838,-0.9177562942610771,-0.44717453469989915,-0.4140043941748629,-0.25846737476948484,undefined,1495595377955
903d185fccf839df,-0.5531010799997588,-0.9438107554887899,-0.7749510957559008,-0.7975080150719343,-1.0003880871828819,-2.0343166804101775,1.9319862271613302,-0.9581704867650616,-0.306089798850155,-0.6430065918833789,0.07817563335400306,-1.096954591309641,4.631141377005347,-1.0354210989756645,-1.1644432515612704,0.4598416137948564,-0.73354613094927,-1.0536269271941945,-1.166153586663685,0.3692858870151708,-0.8388220239616793,-0.44784201917544797,-0.4489983661026891,-0.284068918463511,undefined,1495595379500
903d185fccf839df,-0.346584926038563,-0.9303093959180018,-0.5899277062759923,-0.5975167333119666,-1.0331686039765677,-2.030363961028456,1.8714533460887768,-1.353542368256106,-0.32055493482427533,-0.6044790401970944,0.062323231384142835,-1.105470750310094,3.5779857397504458,-1.0039427650507358,-1.1791801208269455,0.4153883295283512,-0.7817741919370678,-1.031125978269664,-1.146170694793778,0.5313853223897768,-0.7903881429092838,-0.4537089844148764,-0.47637752187024585,-0.33233510205852623,undefined,1495595380951
903d185fccf839df,-1.0090999381884775,-1.0083824783521234,-0.766019198531466,-0.8220543431468423,-1.3469029365843368,-2.0172550027375316,1.8517797638555233,-1.549469599965942,-0.286222043686307,-0.6920190654850406,0.07189973534900684,-0.639953061641157,3.2341869986631013,-1.0067202561516648,-1.1718116880346663,0.4941920337234715,-0.6525941625213362,-1.053360943476694,-1.1833587447073073,0.5199442774501105,-0.813491730242778,-0.4465703761114663,-0.43340890751111083,-0.2501666112352516,undefined,1495595382471
903d185fccf839df,-1.1102790124744566,-0.997816179157946,-0.783245109237283,-0.8523654597102114,-1.4101702598301555,-1.9979595845113498,1.8805551058279126,-1.3498003737666446,-0.304450544942135,-0.6964558164114386,0.06762915346388718,-0.5739034211134335,1.0451899509803921,-0.9928327423685347,-1.1486537577164737,0.6477581027652135,-0.5586914511878339,-1.0527086501948726,-1.1670002009510407,0.6007399205317658,-0.7904727066343724,-0.4475184527816609,-0.4279709681947732,-0.23945413816432237,undefined,1495595385003
903d185fccf839df,-1.1061209725798093,-0.997816179157946,-0.7806930659911732,-0.8457920894399993,-1.4174731050515528,-2.0013439691741772,1.9397520373132373,-0.9567195690527855,-0.30784194367058415,-0.67077073150689,0.05754726968905222,-0.47031863324928413,0.30101799242424243,-0.9789452350607918,-1.1391800739253932,0.9286227186686713,-0.34489498113142153,-1.0266739187758709,-1.1557493288717149,0.6559587443135968,-0.7643183624233594,-0.4458659967768464,-0.4071640117740105,-0.23003041987736714,undefined,1495595386350
903d185fccf839df,-1.1144370523691038,-0.9937070741710963,-0.7806930659911732,-0.8457920894399993,-1.422070811765784,-1.995735161141199,1.937674489434392,-0.9652981566609893,-0.3058994017546513,-0.6647658205904754,0.05426863904635269,-0.33828733638586156,-0.5258397393048129,-0.9789452350607918,-1.137074802680449,0.7892006483940868,-0.4057703713024119,-1.0204866327753757,-1.1529925854230065,0.6209118811316177,-0.769463077161523,-0.44531143038829957,-0.4171698490418422,-0.222933646115025,undefined,1495595388306
903d185fccf839df,-1.0576104381314386,-0.9766836099975837,-0.7130641741062134,-0.7706353663814115,-1.3960377150400658,-1.9595946857458741,2.024731588144192,-0.3390625454627626,-0.2537525158939454,-0.6646968192617296,0.06974806675791631,-0.13667750448372296,-0.7956564728163993,-0.9493185607905846,-1.147601144180703,0.5103568540877564,-0.5729263388259987,-0.9619512344372183,-1.1448552949973712,0.24913181357643582,-0.8377339483513594,-0.3871946992690362,-0.3466102975154281,-0.26007542966849756,undefined,1495595389280
903d185fccf839df,-0.571119321887383,-0.7553787218818819,0.26755933269079274,0.22071395623851736,-1.1335775821430556,-1.9452721951113052,2.0155930195367397,-0.3023532442787938,-0.26665423341884953,-0.7550334053314952,0.09308275496466907,-0.07929511198535882,-0.8565828319964349,-0.71230508892428,-1.0539168112127206,0.8195098208345484,-0.30238939283678784,-0.8328161794187556,-1.088901798373764,0.31674639007545646,-0.76447229489181,-0.34990504189158483,-0.20251713725077503,-0.1715642910372145,undefined,1495595390786
903d185fccf839df,-0.37707728761012904,-0.6820018178887162,0.7798826496897048,0.8211252245209419,-0.7956615755477814,-1.944214721163286,1.9972790441229082,-0.34115199866453827,-0.24071593856873996,-0.6183966718732782,0.1189799940272744,-0.044733063623046784,-0.8913978943850268,-0.5669491471579939,-0.8928639861434815,1.338806067074738,-0.20076362374733275,-0.738765632660951,-1.0124896265999437,0.7967929301078557,-0.5956019886117284,-0.33748750627695895,-0.14590026325260178,-0.019100506833300755,undefined,1495595392272
903d185fccf839df,-0.46994017859058446,-0.6661524129394387,0.021286905304249506,0.042421705575246514,-0.5872013437445542,-1.9829499683396774,1.941419337946798,-0.7038495644041802,-0.28193410321886675,-0.4616967676341001,0.10326061925977846,0.03364393695756971,-0.8870460115864528,-0.5762075037100866,-0.8949692389828414,0.7407061449041495,-0.5805676521232809,-0.6859615478802168,-0.9461668564467302,1.1104438654840398,-0.47928768077208617,-0.3971972580311101,-0.36713886302583254,-0.2737777473822306,undefined,1495595393793
903d185fccf839df,-0.6237878617249913,-0.5370089525987757,-0.14395802194983348,-0.2262442909514939,-0.6297224166179259,-1.941899455737155,1.9301453563566038,-0.7466235698568018,-0.32980645430123134,-0.563064718974139,0.09055033683906515,0.007865368763010522,-0.9523242535650625,-0.6160183595032065,-0.8991797888349639,0.7386854716968101,-0.6614590141520652,-0.6486225117756038,-0.9297243510516995,1.201571865715937,-0.43952225140139367,-0.4199413278270284,-0.44024208474657706,-0.35192750938582085,undefined,1495595396550
903d185fccf839df,-0.6057696198373671,-0.3937771469171954,-0.09291715702763788,-0.12636781739965788,-0.6473418199719496,-1.9015849833019134,1.9004022414719837,-0.8774272199148838,-0.3773495742108209,-0.43523661275127135,-0.03884467183616742,-0.01414564495954163,-0.8826941287878788,-0.5632457987093085,-0.8707586804044105,0.6255315030290433,-0.5818159317873156,-0.5934625723842765,-0.9014222501685663,0.9757844634891529,-0.45084238974577695,-0.395231043416307,-0.4820599007112191,-0.4059652870764968,undefined,1495595397940
903d185fccf839df,-0.7083348109377912,-0.44132537637902397,1.0644359799048442,1.0666217966723455,-0.9704669998393681,-1.8149512589195917,1.925232868821208,-0.6277686295022925,-0.2813865605457138,-0.7299498784605297,-0.17786331188318016,-0.011308963392048782,-0.9392686051693405,-0.3965957563441048,-0.7844427986342916,0.5245010931050469,-0.4956882665197373,-0.48068551210812027,-0.8375693540101372,0.780347394046432,-0.4253139786960483,-0.2729592774976495,-0.46627018792341596,-0.43119064658218037,undefined,1495595399437
903d185fccf839df,-0.6404200903143998,-0.5217465772616158,2.474441144065245,2.3921391611898266,-1.0085652211097098,-1.8329073642126978,1.933848114395808,-0.5018769690531097,-0.30134781685737444,-0.9895777622889793,-0.3441553952265223,-0.008296185570332229,-0.9349167223707665,-0.34011987624076395,-0.7823375237082304,0.362852550285539,-0.5619758257324304,-0.364007358056074,-0.8112263608759358,0.46203072940385215,-0.4372317361350809,-0.279768916516965,-0.4855953551226215,-0.5902811338272228,undefined,1495595400939
903d185fccf839df,-0.46855423430318816,-0.546401207182714,2.4234002791430496,2.2679058872536144,-0.7096422870679887,-1.8583193642163451,1.9168332833672144,-0.5946117700610158,-0.3904573622367354,-0.701932083746009,-0.2303873112866755,-0.026431289296673474,-0.9305648395721926,-0.2577206897420633,-0.7476006493973637,0.255760262063132,-0.5459381893166143,-0.2481398219242138,-0.766761626837093,0.48386572559864127,-0.3756696479192456,-0.317035285991678,-0.4580541872367984,-0.5629502778233716,undefined,1495595402446
903d185fccf839df,-0.21214142907917663,-0.553445416388163,1.7439178753869973,1.634559657625062,-0.42241419872713404,-1.8530389794562636,1.9175249195831097,-0.5793288466416991,-0.33065258636761524,-0.2675935767173719,0.006689165794265756,0.02680634789463096,-0.847879066399287,-0.2206873412383405,-0.7076005951335779,0.7023145128182828,-0.198796067563701,-0.28937994995547056,-0.7719042833085815,1.678430932535472,-0.09780206748243399,-0.2769744631806713,-1.081190043465043,-0.6289773671540965,undefined,1495595403951
903d185fccf839df,0.11079973841591313,-0.670261488698296,1.3528168667152494,1.4070486820717334,-0.2210716777327301,-1.8856949132707033,1.9733372976770485,-0.20563935080734508,-0.33495918357878895,-0.5815316475675474,0.06010784631654033,0.0017411156770918417,-0.8087121212121212,-0.27345984375375304,-0.7139163904628263,0.9488288147858314,-0.10837043250617637,-0.3231535395503817,-0.7825184457877586,1.9398503425733293,-0.056349124281965916,-0.2912882336978482,-1.1646942168729248,-0.6929702957666656,undefined,1495595405526
903d185fccf839df,0.3547384584613926,-0.42606301565586024,0.9751139580171029,1.0932088690092145,-0.4363513180962281,-1.793168216153409,1.929330124615526,-0.3996238613737422,-0.5621522635597308,-0.6541432948425657,0.02487567956056723,-0.01100282351101844,-0.7477857620320856,-0.42622242737661836,-0.833916553254184,0.904375360930997,-0.1161783820817255,-0.4537705024204376,-0.8458185939175155,1.8023884181222944,-0.15730019903937678,-0.3109589159186437,-0.9842228166184979,-0.5254563260769156,undefined,1495595407001
903d185fccf839df,0.3547384584613926,-0.3086598991196134,0.9419373958176758,0.8931047209838239,-0.4454027321622556,-1.7577335003575232,1.9674544257575899,-0.08387772928953613,-0.6597543265221322,-0.7177104513791718,0.016853051680445028,0.03374065715959831,-0.7390819964349377,-0.41048326041415406,-0.8728639479682379,0.9649936068853948,-0.05367073963929939,-0.4742702409435921,-0.8684742675484304,1.7625834360647648,-0.17980635845111997,-0.3051327271759523,-0.9324278095050987,-0.4718041967564871,undefined,1495595409404
903d185fccf839df,0.22583911821109845,-0.27872216344341494,0.8813267499279926,0.8268029250273761,-0.5853190715232066,-1.7437114802315867,1.9549418104023448,-0.2007611583379118,-0.5725275870894468,-0.6417016497182739,-0.0015055295168165815,0.028911698597432832,-0.7913045900178254,-0.43640656680951384,-0.8897060590299222,0.9953026874655113,-0.0325458329720671,-0.5227362599254194,-0.8686421907953735,1.7273055963491766,-0.21136379972262806,-0.2846012154934129,-0.8463913702257275,-0.44680440769237845,undefined,1495595409956
903d185fccf839df,-0.2370898064686991,-0.3274444082874901,1.31389833428055,1.1307343273529946,-0.8288843769620297,-1.7537435136991963,1.9610008838677158,-0.1983059611871336,-0.6001247681351015,-0.8914406295450278,-0.20717585838896652,-0.07978511200785546,-0.8348234180035651,-0.4058541096585037,-0.9381271835490177,1.0074263310034466,0.04806494609509211,-0.5009192679712775,-0.89306805761479,1.73371134591231,-0.2067492308502074,-0.31331421376168705,-0.8825533035658132,-0.36376203665487333,undefined,1495595411444
903d185fccf839df,-0.3424269551547352,-0.3286184382837329,1.2756176855889032,1.0769447717533842,-0.9352899132791053,-1.7366748478626655,1.9013516230440781,-0.6197188482461453,-0.5554569380941795,-0.623080356542985,-0.22046960093687795,0.008067443347411057,-0.8304715352049912,-0.44751659596710236,-1.0065483241566555,0.8538601135719165,-0.11607485111364846,-0.5339392363937858,-0.9385753157585616,1.6359928078657588,-0.25252728614415215,-0.37050778153532476,-0.8906411002331124,-0.25104803406902654,undefined,1495595412944
903d185fccf839df,-0.38123536201018604,-0.30220276336827046,1.0127569771026463,0.8197590683286566,-0.9539995946816862,-1.731538875559891,1.8565160529875715,-0.9346406406969682,-0.5052994116660183,-0.5437843170162239,-0.20225834740632254,-0.04053582560814351,-0.6999150512477719,-0.4928824598636293,-1.001285188377139,0.0011636629723271671,-0.6288750126799014,-0.5763192955825528,-0.9880917462043477,0.24291084235656304,-0.6200869407118196,-0.3740855849417928,-0.6283033878567665,-0.47913211534387995,undefined,1495595414445
903d185fccf839df,-0.4810283194817202,-0.31629112332318376,0.7435159063641656,0.5911609115887408,-0.9371104787561592,-1.7386756650126771,1.821400249102962,-1.1943287545144878,-0.5174867365452749,-0.5133494007390069,-0.08580794271680246,0.032567850404849025,-0.673803754456328,-0.4521457208212036,-0.9865483007058795,-0.05945458298207061,-0.7432840717495623,-0.5317860364680957,-0.9994055890677305,-0.008053022819396571,-0.6650442146263168,-0.40387066639186864,-0.6000237324784187,-0.5162856556316346,undefined,1495595415942
903d185fccf839df,-0.47964230618350445,-0.4812425131632477,0.7894526847941417,0.762594155179609,-0.9809892629644332,-1.7450694270874658,1.8018187073721315,-1.3535818673962845,-0.488881545812416,-0.6270814785374094,0.008000487503615934,0.08641421587396146,-0.7477857620320856,-0.43548079364179176,-0.9707588271072259,-0.039248444467828277,-0.7718195471759511,-0.5024138438584518,-0.9761271992504401,0.037002830670020394,-0.6353268718915566,-0.3993799190254787,-0.6072754912484606,-0.5088491348358535,undefined,1495595418468
903d185fccf839df,-0.4546941013210306,-0.45834886978052886,0.7894526847941417,0.7548283009650352,-0.9327801979583533,-1.7606334026994714,1.8191964643727305,-1.2557744389301444,-0.4827528847574206,-0.5796472843585555,0.03480611313586128,0.05434982678704008,-0.7738970588235294,-0.4317774160538635,-0.9318113808575355,-0.04328970608834259,-0.7378389295881426,-0.49631521807837686,-0.96616374037854,0.1030313642590539,-0.6130083306868711,-0.4097578880096502,-0.6475468537061878,-0.5083181234077925,undefined,1495595418963
903d185fccf839df,-0.4740982529906414,-0.5681207913411976,0.5361625196862206,0.4515196405876354,-0.8319186488701071,-1.8787747442978626,1.905430438264736,-0.8756156405924707,-0.46788558852454626,-0.7024951234481035,0.10565726992459218,-0.10687362915282389,-0.5693585672905526,-0.4975116365208287,-0.8907587038551865,0.3487081770108212,-0.6506492110426917,-0.5713732667809029,-0.9076564078216482,1.0546707016913728,-0.39953751265075865,-0.46100255791180295,-1.0947107579930593,0.0410300870537881,undefined,1495595420451
903d185fccf839df,-0.4269737663458961,-0.5640116571263556,0.7065112792955738,0.5480113868339649,-0.8616648863937981,-1.8847236208176659,1.8673455878409528,-1.1253527255894096,-0.5353834779474935,-0.661486965708697,0.10146217602490193,-0.02390193632037632,-0.6955631684491979,-0.5271383075533422,-0.9160219146211156,0.32850217982018654,-0.6322932510408737,-0.6591162018187353,-0.9250924610707463,0.9809429486236128,-0.4598646190791574,-0.44558753231806864,-0.9889146874239244,0.06281365751070184,undefined,1495595421934
903d185fccf839df,-0.4214297476584428,-0.5528583721620492,0.6484526766520005,0.5574632056333071,-0.998814371861039,-1.8751085219062207,1.954394793474036,-0.582137163528898,-0.4920248062114433,-0.7344270435537917,0.09321901224013358,-0.02721551010504894,-0.5258397393048129,-0.536396634966192,-0.9223377025881303,0.3305227682333614,-0.666376957011313,-0.6683559666606601,-0.9266177655176576,0.9892119133032385,-0.46320683811875163,-0.4562994886948626,-0.9788977903856733,0.08288884303148723,undefined,1495595423884
903d185fccf839df,-0.45192204021918936,-0.5440531764182208,0.6803527089544739,0.6335716866639762,-1.0282006128291232,-1.8628101387199543,1.9162284259517715,-0.8235979117078733,-0.4788231103877804,-0.8981092835389873,0.005091570911690695,-0.10707470233306639,-0.5606548016934046,-0.5299158083673521,-0.9202324350243029,0.30425489274431605,-0.7477613256800453,-0.6454560413875142,-0.9304030405873148,1.046047577168658,-0.4403695910146448,-0.4718552717440614,-1.03621949766676,0.0657654338455262,undefined,1495595424936
903d185fccf839df,-0.5420130081194425,-0.5012010230993749,0.7900905685371944,0.7710615481738908,-1.1476175581024353,-1.8294996883613825,1.9191553914454391,-0.7807629234668838,-0.41231083518341377,-0.8957866590383573,0.00004815730038423265,-0.02638859633647316,-0.6868594028520499,-0.5697266576850848,-0.9391798136498145,0.4275119448015649,-0.7299782044179894,-0.6926301365426906,-0.9356786356213057,0.9427548050611185,-0.4787942948543868,-0.46587893663026275,-1.0236732617127597,0.07559175460241492,undefined,1495595426429
903d185fccf839df,-0.32856678766716796,-0.46245794553938624,0.5693388277486984,0.5633719494805255,-0.9949572437657735,-1.799357002785047,1.8824432973821577,-0.9566676944261584,-0.406692034570765,-0.857286560833118,-0.01695983309809773,-0.09756359045574599,-0.7260263480392157,-0.5373224664123996,-1.0444431182188478,-0.18473225171721586,-0.8430543722799626,-0.6793689531743151,-1.0197383211878523,-0.05665051037444055,-0.7366972653195435,-0.46063343945208707,-0.7517167762506759,-0.49796385494515927,undefined,1495595427951
903d185fccf839df,-0.5004326091729699,-0.3556211866533014,0.6312262576722847,0.6789778048452313,-1.027377762783535,-1.8133580598218997,1.9216537057834246,-0.72177134836535,-0.41682446438711074,-0.7861952663631377,0.0014035013311086146,-0.1271430685062351,-0.6433405748663101,-0.5215833188760971,-1.053916825937188,-0.45549371356938795,-0.9270465506872694,-0.6503830696140821,-1.0347394845883051,-0.3434619542473003,-0.7851132478458431,-0.45469090833947096,-0.7197686554506232,-0.5124602975772138,undefined,1495595429444
903d185fccf839df,-0.535082907122954,-0.5364219814426427,0.6816287305775287,0.7030503000844456,-1.0723262569131404,-1.8610981484910112,1.9018118150809762,-0.9421268864772742,-0.43283232992509557,-0.823352102050021,0.017481624037158423,-0.13642675979711355,-0.6172292780748664,-0.5262124631563602,-1.057074701515111,-0.49590583514190417,-0.9542432326427955,-0.6363176024983378,-1.0520076133486966,-0.3679608807638698,-0.7874304921114416,-0.437103763350257,-0.7129807156218044,-0.5158100563133969,undefined,1495595430944
903d185fccf839df,-0.5184507130389552,-0.4894607523649394,0.6088957522003494,0.5277160568358052,-1.0266063329709898,-1.8304220665783757,1.8498757777676689,-1.2304775269650046,-0.4491373498130515,-0.6065073922436433,-0.0076341900202031516,0.004377490457029952,-0.6955631684491979,-0.5613941681938297,-0.9949693930478906,-0.5181326044664036,-0.9110371389406,-0.6414536219578558,-1.0180800775789667,-0.41230840442998895,-0.7899140411715797,-0.44615819712966853,-0.6779728064828693,-0.5054292987419563,undefined,1495595432440
903d185fccf839df,-0.45053606142638336,-0.514115323830053,0.5170219412034479,0.49409673304390017,-1.0176063431150413,-1.7877853417264569,1.8640609586010113,-1.071053479030822,-0.5015627872422667,-0.5743658745744613,-0.04140222981146571,-0.024857609420059025,-0.7521376448306596,-0.583614187656683,-1.0549694413135173,-0.5484417133112418,-0.9110890740827445,-0.6688246050298438,-1.045178726446893,-0.3902886283841609,-0.8076601895985369,-0.4393081284808181,-0.6736973067446025,-0.5075154344397912,undefined,1495595433944
903d185fccf839df,0.3103859639076691,-0.36560041239337265,0.3855917140287942,0.4100730839609453,-0.4759203892278167,-1.721849237760678,1.8236986994252327,-1.0668090475391285,-0.263519268942569,-0.3553135616681943,-0.0950312067663809,0.06798077305478077,-0.6650999888591801,-0.6197217111895856,-0.997074623800549,-0.4756997955541872,-0.8831156059900876,-0.6737516342696215,-0.9692143505080092,-0.4041626290640336,-0.7876068523452233,-0.40397610864227124,-0.6775114434957569,-0.44861043588888555,undefined,1495595435492
903d185fccf839df,0.0983257567536103,-0.4325201514072031,0.1973783975597232,0.12697599049332609,-0.5424277085311411,-1.692847881237209,1.830178538302221,-1.0210754551348036,-0.2671669850208796,-0.37672411388823607,-0.04307520850712072,-0.013167221363764513,-0.7521376448306596,-0.5873175263922877,-0.9349692785221597,-0.13825826597864974,-0.6407566506435659,-0.6978484855489845,-0.9193130948339483,-0.06365680155818469,-0.7102843130766411,-0.4264519647790549,-0.735882373228976,-0.35712438177200295,undefined,1495595436974
903d185fccf839df,0.044271169112376496,-0.6279963796055639,-0.21860515983006987,-0.4258114676781177,-0.4664986935333067,-1.5671202085341707,1.7753286756086295,-1.1945143824793039,-0.17148667748534854,-0.5147470663112551,0.02700535465466861,0.009524523956663256,-0.865286597593583,-0.7224892542587246,-0.8823376704110458,1.1650337817907694,-0.4745808154317044,-0.7873139796116042,-0.8593854099810612,0.5799212248731499,-0.5892362893999961,-0.42699799867894594,-0.8476367555827072,-0.36503649082959033,undefined,1495595438449
903d185fccf839df,-0.21768562029367858,-0.7219188377609705,-0.41702664928358,-0.5131637243932975,-0.5614768303692298,-1.496346273038968,1.8176448782341361,-0.86948199861012,-0.1925844127089075,-0.5772478464911046,0.034467994602077605,0.026707849217656336,-0.6999150512477719,-0.7567451148992121,-0.827600743200468,1.1084567691921645,-0.49231757367224854,-0.8056351854377591,-0.8434886556080801,0.6729740309877679,-0.5744722112358744,-0.41563999068327506,-0.843945549004622,-0.38605530227468315,undefined,1495595439945
903d185fccf839df,-0.4061834978618403,-0.7236798827553347,-0.48274188993938155,-0.5802599703715688,-0.43461304394097844,-1.3937852106384854,1.7855691323911105,-0.8677039494674263,-0.18380313216465238,-0.7015068601934036,0.06246992297885371,0.01689369634320178,-0.8304715352049912,-0.7947043207506915,-0.834969175992747,1.2135283700748711,-0.39945873857633224,-0.8550448110841481,-0.8516749247681038,0.5451977319803264,-0.6284898508718767,-0.40684045105708905,-0.7644807085254084,-0.3309868291808067,undefined,1495595441448
903d185fccf839df,-0.6847725848681234,-0.6144949761927873,-0.454669414232174,-0.5295657205914913,-0.4291410568054741,-1.3224196526104952,1.7644097127721792,-0.8278077830947085,-0.3032691764442647,-0.6861342908474293,0.04868995224319262,0.05998922323805025,-0.8783422459893049,-0.8326635007006219,-0.8560218221820861,1.3125381774533318,-0.3705653696798459,-0.8998567208665001,-0.9228184976336992,0.41347942967317824,-0.6952539174423984,-0.41220168134308804,-0.7383241222345803,-0.29878750444342483,undefined,1495595442972
903d185fccf839df,-0.5239948352426377,-0.5387700414351283,-0.3672615518474899,-0.4733900240842229,-0.5825625106304374,-1.3511345144094697,1.7822161387363316,-0.7794478138941211,-0.2276193366371084,-0.6275236422075691,-0.0003744328367371853,-0.019685335155323495,-0.9697317847593583,-0.8382184958532544,-0.9160219293455832,1.3549708450419407,-0.4546894675758683,-0.9141945057673656,-0.9409962118080586,0.25036369510863016,-0.7397730456057137,-0.4080667316073703,-0.7484919020881846,-0.30494957301836717,undefined,1495595444436
903d185fccf839df,-0.5239948697480474,-0.27989613498367305,-0.26135201127088337,-0.35663577786873923,-0.9661984348462156,-1.5179755906639165,1.8019607240918212,-1.0128284342779161,-0.2595023216258072,-0.6918688229091676,-0.05833518173163425,-0.0022208156217391833,-0.9392686051693405,-0.7789651181735973,-1.071811574461903,-0.5120706979032714,-0.8997179616720289,-0.8561404112760335,-1.0223271411694035,-0.5147234660894515,-0.9064380942568927,-0.4022025811615986,-0.7040445065620384,-0.5497982396281186,undefined,1495595445950
903d185fccf839df,-0.4574661279174621,-0.5199855030392593,-0.08207110030014603,-0.11003134021034876,-1.1147136148507846,-1.6267603756082778,1.8766971825754615,-0.7701181544851111,-0.399141974903111,-0.5633951251927489,-0.034022704852240834,0.005568054490031546,-0.9610280191622104,-0.7984076400601344,-1.0623378667435626,-0.02106302155800771,-0.8825515183280438,-0.8433985293667174,-1.0247410410931348,-0.14172692360568095,-0.8294669460604567,-0.41789208204131395,-0.7009772746161503,-0.5736314655960113,undefined,1495595447436
903d185fccf839df,-0.42142973040573795,-0.5833832397483384,0.04935988928535594,0.002426303009765924,-1.099953635803593,-1.6828647607127065,1.9360992345408634,-0.47688385899797875,-0.3962959079487829,-0.6377941220469449,-0.018158561147125447,-0.005874780210188811,-0.9871393159536542,-0.7826684666222828,-1.0760220948650903,0.033493402627422446,-0.8498556866367427,-0.7949958404251607,-1.0269170492941326,-0.04374661510979883,-0.788124711261799,-0.4215963260723685,-0.7091592987046733,-0.5786988465718577,undefined,1495595449016
