UUID,iqrAccX,iqrAccY,iqrAccZ,iqrAccXYZ,meanAccX,meanAccY,meanAccZ,meanAccXYZ, covarianceAccXY, covarianceAccXZ, covarianceAccYZ,pressureDerivative, pressureIQR, iqrGyroX, iqrGyroY, iqrGyroZ, iqrGyroMagnitude, meanGyroX, meanGyroY, meanGyroZ, meanGyroMagnitude, covarianceGyroXY, covarianceGyroXZ, covarianceGyroYZ, class, timestamp 
903d185fccf839df,-0.30846954308492497,-0.2933974653264688,-0.25178197616644643,-0.39048141356770144,-0.85309691502847,-1.678505587724992,1.8238722554548539,-1.136926899220032,-0.6979864579571698,-0.572962999173422,0.009465786313180043,-0.5268242837919739,-0.35611631016042783,-0.9474668914227823,-0.3760212299145257,-0.10794917126617237,-0.7839977335245807,-0.929247006469084,-0.5478933856161776,-0.33614109770564843,-0.7098346930773684,-0.5322394472778315,-0.6618289040675146,-0.40535055479188187,undefined,1498140137920
903d185fccf839df,-0.4186576175457821,-0.41784477645416845,0.7364981686427878,0.6894287976233445,-0.8659888971302169,-1.8381219380165368,1.9312104620644157,-0.6574500104070741,-0.40559969528959533,-0.07253211512849184,-0.0761486740836899,-0.9707887901742485,1.993900401069519,-0.5595425053014147,-0.6402321435246071,0.3769966409130414,-0.6959439364791103,-0.7000396847729288,-0.6315552535497199,0.3429366093872569,-0.5255487163494877,-0.6476479081193504,-0.3991373777604947,-0.5519305473405164,undefined,1498140139295
903d185fccf839df,-0.47687031409248265,-0.45071766019095466,1.0937842230981571,1.0006031315466457,-0.9420584851030669,-1.8845499818271076,1.967832553158341,-0.4640862411961178,-0.36084543577370987,0.05841235361475913,-0.15467223983269937,-0.615525062380716,2.964370265151515,-0.4484424209379226,-0.6991795175160344,0.5143980662450081,-0.743348113986528,-0.5683514348484823,-0.6492822093731686,0.41220528540006546,-0.4812500956960046,-0.554334668689306,-0.4127234377510666,-0.5152737897389996,undefined,1498140140840
903d185fccf839df,-0.3022325004956589,-0.5023750530956176,1.274979547708901,1.2149539468851203,-0.7818067443556723,-1.8812996384665825,1.936091341464146,-0.6184795144020058,-0.2858420506214603,0.16472666961996763,-0.21828323518139414,-0.20626587574647828,1.4455631684491979,-0.39474402869781705,-0.6423373890017332,0.5265216532535002,-0.7298974865187424,-0.49073748417505275,-0.6776920142831119,0.4707344057571623,-0.4503774823860249,-0.5677432406109949,-0.3484230779872968,-0.5066749468930697,undefined,1498140142321
903d185fccf839df,0.0733774483749073,-0.5481622521770781,1.488075412896017,1.3874818163269114,-0.5634105386357385,-1.8791474212317618,1.8817990054850218,-0.8698776706749317,-0.3032013509788555,0.4461840225132426,-0.3232915875222184,-0.06702688128011806,0.6100016711229947,-0.31975153262110023,-0.6760215964006341,0.4396355600747786,-0.7080146957010898,-0.4493354922030565,-0.6994027910997308,0.5002863833679381,-0.43481861748437706,-0.573954034861154,-0.3272961906600723,-0.5652213421935186,undefined,1498140143832
903d185fccf839df,0.43928551119042164,-0.49356985735178915,1.2705133449597341,1.266650120110777,-0.3410954827002411,-1.8386535969930315,1.8519138937836261,-0.9572554750558796,-0.30345538493480506,0.8401791300860353,-0.24927883674030216,0.2797524149544136,-0.321301247771836,-0.3012348648446261,-0.685495318843442,0.3931615743362125,-0.6997900340824861,-0.3838674691902986,-0.7419999138357605,0.5322938313172986,-0.4178597779096157,-0.5333729850443645,-0.3575414605996098,-0.5699435373553738,undefined,1498140145318
903d185fccf839df,0.4877957695955146,-0.45306570556944403,1.1646035502461782,1.23096616527884,-0.09997817066392449,-1.8352529077657642,1.865215459605661,-0.8079612069953744,-0.27799644169506743,0.8103031768471367,-0.17757090223228963,-0.07067218068464422,-0.5432472704991087,-0.29105071246095604,-0.7570743350290027,0.3002136028590802,-0.7210810842858314,-0.3661415603300417,-0.7636200601236868,0.4247048949361294,-0.4410552932023928,-0.4865974124849728,-0.38292261331348276,-0.5745846719664117,undefined,1498140146828
903d185fccf839df,0.0733774483749073,-0.41256161224308363,0.7320319658936211,0.6092318921107686,-0.12764669348482852,-1.8253815926173693,1.8403585289841913,-0.9678229010112646,-0.11080320502871623,0.22292913184611068,0.014444299913544753,-0.021831182304004337,-0.691211285650624,-0.3669690335084931,-0.7939164989903981,0.16685343914762787,-0.6878235602075765,-0.4064570794924124,-0.8342388729932175,0.4226569000359092,-0.48385498075833927,-0.47053393539529736,-0.3522608147049429,-0.5769439996025584,undefined,1498140148325
903d185fccf839df,-0.012555514136108286,-0.4037564457272475,0.31413450313772034,0.13496870757221016,-0.1305472626363504,-1.8135956425029975,1.8912110841279108,-0.6432908910610224,-0.11536592187711367,-0.40259135878335456,-0.009452889745690115,-0.034379826019856737,-0.6215811608734403,-0.41788991198381426,-0.9507587668452809,0.10017348448314861,-0.7521543397603954,-0.4706351312838425,-0.8842310857344633,0.3508077518872854,-0.5406413952379896,-0.4453338049833012,-0.4616633288444965,-0.5755038267165951,undefined,1498140149816
903d185fccf839df,-0.21214149808999608,-0.506484216538452,0.14633702436362875,-0.024148970085639255,-0.3595891684260461,-1.7514212600031724,1.8878633322721887,-0.6501731751908146,-0.11736039513235927,-0.7066297226933338,-0.07651978495159924,-0.051064853494951504,-0.8565828319964349,-0.4808465798336714,-0.9233903326889271,0.15877111375965,-0.7861586921033259,-0.5458895011240977,-0.921664023998091,0.3140516637243711,-0.5860724809944126,-0.43817001893007035,-0.534876562958155,-0.5725630758225375,undefined,1498140151305
903d185fccf839df,-0.1664029902380568,-0.4835905146997485,0.26628356520468727,0.2162048490313094,-0.4213239238474022,-1.7272926711623786,1.8881473562838715,-0.6431706120010121,-0.13230180156940197,-0.6227095036412894,-0.21164381001395804,0.058638975203537516,-0.843527183600713,-0.5845400385290525,-0.9244429775141915,0.14058564845274713,-0.8413226252409607,-0.6437081478030742,-0.9024787682439208,0.3257852764350548,-0.6204691951951322,-0.4506366836369007,-0.5857827943648823,-0.5750981410442342,undefined,1498140152801
903d185fccf839df,-0.005625378634210056,-0.5640117448103327,0.18142774606611295,0.13721006263027113,-0.251959636624034,-1.739782052576095,1.8955528880751076,-0.584895726411407,-0.10989424487841476,-0.2721432392686342,-0.12365420308603728,0.12473748093337786,-0.847879066399287,-0.5132508423356166,-0.9381271761867839,0.27394572737003486,-0.8232797942400512,-0.6071797278413775,-0.9056623171499895,0.37173423706789455,-0.5941748083785698,-0.4049135695371753,-0.5698453863206684,-0.5683437297938153,undefined,1498140154308
903d185fccf839df,0.1288181873359958,-0.5927754504902882,0.5316960628001044,0.42648848421585756,-0.24407050864195765,-1.8041948345998775,1.9402359305782442,-0.38025426169242527,-0.15006912878609507,-0.19153313523668616,0.14264724827792047,0.22189313214204714,-0.06454016265597147,-0.459552424193962,-0.9160218998966481,0.3386051218860608,-0.8561782363379924,-0.5473650756112269,-0.9009184793389,0.3710567056971172,-0.56087217985361,-0.3950252290358205,-0.5874096206283171,-0.5919555956453962,undefined,1498140155799
903d185fccf839df,0.29652593444174075,-0.5869053297370668,0.5061756303390066,0.43629031689766296,-0.24844192586425984,-1.8345611257353867,1.9981258523609415,-0.056742357348998615,-0.20305665024628422,0.05548865107370372,0.28186674488967656,0.25563976393122834,0.02684937611408201,-0.4104832215618304,-0.8802323733982832,0.4578210819111246,-0.750784506552196,-0.4907928892483213,-0.8977139404589809,0.5163102400841595,-0.5073031018784673,-0.37282303189051214,-0.5944472791127725,-0.6350103202004931,undefined,1498140157303
903d185fccf839df,0.39770497422231016,-0.45130471903106456,0.6427101981428293,0.4776471988879146,-0.23467966739187388,-1.8359097554966748,1.939120896004702,-0.40161714222377143,-0.14006320642240652,-0.19793130842784631,0.25184114394420454,0.2675438061172832,0.1356464460784314,-0.3725240739888364,-0.8612850021350054,0.43357373830581103,-0.6729300838382329,-0.4394010510239155,-0.8533961402192981,0.557593474264226,-0.468716410593222,-0.40124822475727895,-0.48265021905899763,-0.6183421633206211,undefined,1498140158865
903d185fccf839df,0.5155160355598296,-0.42312799912123794,0.7888148010510889,0.5557469996996097,-0.04582398504680744,-1.7980316676683847,2.021070910102971,0.27465786994764557,-0.07614597937297497,0.3113478536146079,0.5072134607848106,0.17898664295041855,0.048608790106951884,-0.22716811603408224,-0.863390262336599,0.5022744509717944,-0.5631075033618118,-0.30931605209522434,-0.8484074150123717,0.724835992033369,-0.36997241722754226,-0.3391076564294127,-0.4612673071324663,-0.622928465868759,undefined,1498140160326
903d185fccf839df,0.4476015909797162,-0.3949512207554267,1.1027166285964909,1.1073410956509915,0.10211520289342282,-1.7677189481927102,1.9594545531459608,0.00672222018381617,0.0889432764114973,0.1899115431410578,0.5218615950656317,0.18820329625049842,-0.669451871657754,-0.25401729920336047,-0.8612849947727715,0.5729956389920664,-0.5530757820081156,-0.2872140783676831,-0.8489951469792032,0.8904770706818216,-0.32486568327423115,-0.391290490434367,-0.3780816216153238,-0.651759540779126,undefined,1498140161820
903d185fccf839df,0.4891819899261887,-0.4284111048763381,0.8334755578580101,0.8599598189479741,0.07490953328842916,-1.767572206061733,1.8595219152039537,-0.6395785736500117,0.036065183827356316,0.15728544613058734,0.5866589057918034,0.14723023892255208,-0.13852217023172905,-0.1762472634603102,-0.848653426200976,0.6821084873629266,-0.49158277126497135,-0.2945412944792588,-0.8194825995027138,0.93668780757971,-0.30882537733049237,-0.42397576748572907,-0.2984226778410209,-0.6501762594111513,undefined,1498140163297
903d185fccf839df,0.7248042506228667,-0.5898403754996814,0.7575521442177694,0.7890086280742646,0.14313455825768281,-1.784904073173216,1.8758424954022543,-0.5354674565406309,-0.012331416570959009,-0.47861080840268583,0.37579387921143814,0.27291722705690097,0.013793727718360084,-0.2512397983893506,-0.8265481204619048,0.7750564305753375,-0.4430594547143381,-0.3058582646369749,-0.7701200988962145,1.0044255727192861,-0.2930664681053939,-0.44277872354719794,-0.28392178196075657,-0.6591303067796733,undefined,1498140164819
903d185fccf839df,0.5931331253140091,-0.5029620973217314,0.8755847796927203,0.8895669435638577,-0.17306834409595864,-1.7423581917445108,1.8999525628875709,-0.43392653418600485,-0.15527781035032057,-0.6098747084982935,0.09719418245783938,0.2836997779907045,0.4663895387700535,-0.1605080705962968,-0.850758634866933,0.86396322522612,-0.3869174188479092,-0.26864588845787646,-0.782567425225609,0.9334849319634807,-0.2837800593504154,-0.4466829020363316,-0.34432640294637573,-0.5158881293739968,undefined,1498140166312
903d185fccf839df,0.7040140511496303,-0.4671540947523497,1.5161481427401742,1.2805760256180896,0.09258035438684761,-1.690397522005867,1.8954713746429526,-0.12444287138782373,-0.17543669684667254,-0.7687548766173944,-0.2654359299206523,0.28586546616851893,0.2749066956327986,-0.19661558117842484,-0.8139165003544727,1.227672616158342,-0.322467828872193,-0.25633464798651934,-0.746722763226733,1.2320915846443263,-0.22722511170057766,-0.40298678244799335,-0.14237430196798392,-0.2662452976642772,undefined,1498140167802
903d185fccf839df,0.3783005810148312,-0.45013071826281414,1.690324967218692,1.385255717056828,-0.0189063151649444,-1.6734895758095756,1.9022694223578474,-0.085560420335257,-0.2654181905291014,-0.05383586045477001,-0.5079221941793612,0.2307248405512113,-0.06889204545454544,-0.19661563298152301,-0.7928638836140689,1.4378157613943126,-0.3648160010482416,-0.23011626044788674,-0.703818318184667,1.261348622578327,-0.19136887284797405,-0.4162429659688212,-0.3004585742694799,-0.23310181158371912,undefined,1498140169314
903d185fccf839df,0.28266573244876375,-0.45306579325342106,1.0076528906104267,0.9503983791269403,-0.15212666270305786,-1.6802606736473416,1.9155552051690132,-0.11439125394937613,-0.3134072407269398,0.01682325134360558,-0.41328863618051015,0.16892238871385176,-0.22991170900178254,-0.2206872894352423,-0.8076007197496918,1.4560013397601015,-0.4183728086328973,-0.23589823928770542,-0.739816908830003,1.2752996141795876,-0.19532120617805393,-0.4212706631738051,-0.3525870028553083,-0.20514586046201758,undefined,1498140170872
903d185fccf839df,0.0733774483749073,-0.4606969297730144,0.74479218212417,0.6947779678489809,-0.2213288354986871,-1.7357897375506257,1.9326384252292057,-0.2388208814882741,-0.37856479706549134,0.024605362609497118,-0.1727122608601501,0.11619550204597023,-0.8043602384135473,-0.21050315000234682,-0.8202323030459551,1.496413390670814,-0.37667594621735767,-0.24983704878672505,-0.762521559971894,1.191963226401149,-0.2180810702784144,-0.4178798735747046,-0.34020076808763305,-0.18297370526339768,undefined,1498140172332
903d185fccf839df,-0.08324219234511165,-0.40551749072161164,0.777330606443595,0.7153142919643665,-0.45264387313000787,-1.7507201605085343,1.823270051412115,-1.0871496361065425,-0.38782013564455486,0.21070663299177755,-0.21355645802077164,0.17771746225748727,-0.7956564728163993,-0.1558789068898719,-0.8349691686305132,1.2721259852190119,-0.41498370063749884,-0.22611384257956813,-0.7880039453682641,1.111075194733474,-0.2402239233199604,-0.41175407755018273,-0.2480876918750059,-0.22816195386384608,undefined,1498140173809
903d185fccf839df,0.1509942620858089,-0.46832818320457714,1.2475449557447462,1.191296870441305,-0.17470376615009192,-1.826897927248982,1.907539556355407,-0.5421940202487864,-0.3024330340390502,0.4181025533608281,-0.3111443549609968,0.28182817115807707,0.3401849376114082,-0.1549530948698262,-0.758126979854267,1.1023949474231969,-0.5002196171508722,-0.2088945671760095,-0.7636060649665509,1.0340521705842245,-0.23698603159349863,-0.46499350144864066,-0.22990614604644743,-0.39517887816889496,undefined,1498140175305
903d185fccf839df,0.5529385671387036,-0.6156690646450147,1.3279345721341536,1.382749333653064,-0.2056225697152773,-1.8604622635293482,1.9252907381151916,-0.47466897646895445,-0.2988368999390865,0.6695789212271536,-0.28530830617572667,0.24814756443591598,0.8885221702317291,-0.1818022650883299,-0.8044428294473014,0.49015083569858064,-0.658681186292686,-0.2649031221219038,-0.8274589610148729,0.46500262456894115,-0.38108997081801255,-0.48039456193589664,-0.4098426170642996,-0.6044104250973549,undefined,1498140176803
903d185fccf839df,0.4850239500315415,-0.582209151296111,1.0918700635951002,1.130638408291941,-0.4091250802419766,-1.85359333694949,2.012821209828622,0.018221871446538338,-0.20185034208813052,0.4235488923551792,-0.21731870919258583,0.16785988550348196,-0.43445020053475936,-0.07347972039117126,-0.7897059565005095,0.34870823354026426,-0.607877306861464,-0.24412473498495751,-0.8061256840157098,0.5198980846850728,-0.36513842847031014,-0.4268492158612939,-0.2946612532976417,-0.5597689719467472,undefined,1498140178349
903d185fccf839df,0.5903610297067581,-0.5164634422785233,1.0267932149562502,1.052358047621866,-0.4290587614826278,-1.828311774782384,1.9894080407849328,-0.07426494697596546,-0.17757327238918333,0.6526887861042183,-0.2831627086558854,0.013310893607772581,-0.9958430815508021,0.05521123267952383,-0.7149690205636231,0.4376149716616038,-0.5628641380543662,-0.1537979575370461,-0.7889974909345505,0.6791180086745653,-0.28642856936683597,-0.5044861577924354,-0.20278162978195188,-0.6607367016384057,undefined,1498140179808
903d185fccf839df,0.5667988036370903,-0.33214055750045357,1.3776994154332944,1.2948739214527136,-0.42240391409637335,-1.800640412124016,1.9304898632291458,-0.28562596435734583,-0.26410916318545774,0.7728753366171357,-0.5611035922152466,-0.020034154719418443,-1.0045468471479502,0.1098354369396751,-0.6602321228019804,0.45984167032429946,-0.4369238809151496,-0.07787862766943138,-0.7789850552367851,0.7289627756956822,-0.24060705812751199,-0.5312794559437968,-0.07495373309490198,-0.6854302211830741,undefined,1498140181310
903d185fccf839df,0.6679777053960207,-0.35914321818604505,2.2951599789575585,2.132921870666574,-0.33567492378986125,-1.815440397674852,2.0316532360981165,0.4710821679788759,-0.28486386103743133,0.8893893335728393,-0.7352797015432084,-0.02467435124472954,-0.9653799019607844,0.21167710323489558,-0.709705870059639,0.6901910388686768,-0.3536622157687185,0.014519020439764063,-0.783029212480157,0.8263733397984034,-0.18669009980648463,-0.5115568910158771,0.0827505674061964,-0.6480501607464947,undefined,1498140182808
903d185fccf839df,0.6042211971943254,-0.10203044441293098,2.028470951465187,2.1451660719725134,-0.33880177853829785,-1.7204843014670042,1.9829018918268069,0.36425264778553146,-0.36683937363059727,0.45548529158759243,-0.6692818632322615,0.01748438049977069,-0.8913978943850268,0.21538045492127478,-0.6570742251373561,0.7144381846209397,-0.38956468914051434,0.024449074570111612,-0.7137397943072523,0.9876258581829365,-0.13710397346456465,-0.4905890696587126,0.040419116009097124,-0.6373085165662086,undefined,1498140184304
903d185fccf839df,-0.16640302474346652,-0.050960110348377934,0.9923403769968187,0.8702733502424599,-0.6837223449988162,-1.587114394530017,1.881091577878083,-0.2845469577690597,-0.33431314807781853,-0.0467826858210121,-0.33073519704001364,-0.06402912198484942,-0.8957497771836007,0.23204551160843206,-0.654968950211295,0.6356344450949175,-0.35784163068410135,-0.01938756156479566,-0.7062741986494542,0.690759228222044,-0.19945967687381622,-0.5100600790711837,0.08411495832653021,-0.6490312748556247,undefined,1498140185813
903d185fccf839df,-0.39232346839591203,-0.2041711417700294,0.4302524708357154,0.43726292936799455,-1.0539045735752584,-1.4367852953206515,1.8173897836318362,-0.6416067284053044,-0.40120608785913775,-0.7194708822528211,0.031484328922892046,0.03414335493704907,-0.8913978943850268,-0.011448851610585257,-0.7223374754426036,0.36891431552506354,-0.21244475902765284,-0.21975556708870986,-0.726201115744846,0.4039631823503744,-0.3587901660261539,-0.36156098089690547,0.18753941183330503,-0.5391575639529953,undefined,1498140187296
903d185fccf839df,-0.2065974794025428,-0.35268605320670976,0.4302524708357154,0.3930746573063656,-0.9895572509500905,-1.4020773021924493,1.8036779758021249,-0.772681216482478,-0.3218544811191508,-0.5877704867313785,0.1328368101821812,-0.027326310988822423,-0.8870460115864528,-0.33363898488805127,-0.7507585323375203,-0.0938049251827015,-0.5914470263875291,-0.43137721257504313,-0.7826303953612574,0.09648702872729112,-0.5272244478387482,-0.3149212645364762,-0.08146914718400658,-0.45107853237102125,undefined,1498140188787
903d185fccf839df,-0.146998838568446,-0.3004416599179216,0.2949936705179982,0.2880722916206407,-0.8266523796344033,-1.4247524456145193,1.8132268073676894,-0.735946408731947,-0.3581134927286385,-0.5089079710756593,0.11652886310300264,0.04803374445817993,-0.9218610739750446,-0.5762075166608611,-0.8697060503036137,-0.33425717926351006,-0.7472415656230801,-0.6145132781922106,-0.858286910483794,-0.28933641730545756,-0.7034159733453265,-0.271472144001921,-0.4790861377349426,-0.4180720577359731,undefined,1498140190371
903d185fccf839df,-0.11789245578968599,-0.42254089643913956,0.15845935685112492,0.05018690705959301,-0.5639248201087821,-1.532910668152589,1.7892114358525437,-1.0244139634260634,-0.23025434126852906,-0.533910088745227,-0.06444061091103395,0.06298452783873555,-0.8565828319964349,-0.6512000192129651,-1.0076009616196862,-0.3605250971496377,-0.9824415405246042,-0.705308689557826,-0.992401781221133,-0.4429975068640912,-0.8125060825657213,-0.41751836693084116,-0.6479556161742267,-0.5369532462480462,undefined,1498140191819
903d185fccf839df,-0.15808691044876227,-0.600406616237874,-0.3359991491511198,-0.28712606930069084,-0.5131751853155182,-1.5578102360248245,1.8241431524471763,-0.8343896770111533,-0.18367546306053992,-0.727081241407337,-0.16881325730022845,0.17653814465972298,-0.6259330436720143,-0.6734200775281421,-1.087601062785024,-0.35042212681904195,-0.9811829355844102,-0.6491924747964193,-1.0415333870258825,-0.43482093367834396,-0.8013898344798618,-0.43607746164668826,-0.6498574734434299,-0.5234963262049508,undefined,1498140193295
903d185fccf839df,0.3422644422936801,-0.6397366795679916,-0.06293052181737326,0.09455656620959077,-0.3486040343324464,-1.605436189807248,1.8630905721219044,-0.609418099750503,-0.24314065226685075,-0.3714057201838672,-0.23317347793383672,0.2322399289139091,0.061664438502673814,-0.5382482978586071,-1.0549694486757513,-0.1948352927096155,-0.8323864085274857,-0.551019182906089,-1.0266161868974493,-0.3473269684564934,-0.7362329432403357,-0.4157078636203916,-0.6320953455393301,-0.5004954853403633,undefined,1498140194786
903d185fccf839df,0.030410967119399505,-0.6549990695191477,0.41940641410822355,0.34981707514648497,-0.17942489965437508,-1.6087879666241673,1.855698174158921,-0.6255952734008551,-0.20131952488664126,-0.2537241962308858,-0.19259561352934415,0.34486173729260483,0.38370376559714797,-0.4993632864624692,-1.0749694574020596,-0.283742030830955,-0.7929423591274112,-0.5420707331245141,-1.0293729303155723,-0.40976766797213954,-0.7438082722684017,-0.42053927263412993,-0.5850173837043251,-0.48738554921364835,undefined,1498140196311
903d185fccf839df,0.04427110010155703,-0.6532380829807682,0.471723300653474,0.5057475632326638,0.012681054184563268,-1.6647525972794828,1.8545331686057214,-0.6756404688916559,-0.2829747041915864,-0.06406884678982162,-0.17752681419860405,0.2653048741831504,0.557779077540107,-0.45214579852585085,-1.040232583091193,-0.2898038667322834,-0.7482325662746306,-0.48412429951727093,-1.0121117981947798,-0.3622942600554343,-0.7012599574463944,-0.4252614436206964,-0.5805645649953638,-0.4922699465158553,undefined,1498140197787
903d185fccf839df,-0.189965423340183,-0.6673264429356816,0.4672570979043072,0.34861529995657875,-0.05408340492604093,-1.5955043179610156,1.7702952254940805,-1.0927009015092957,-0.3568911733547354,-0.14857151854155443,-0.2117344876565929,0.2786041811103043,-0.2908380681818182,-0.44196162024063174,-1.0265483623318992,-0.25545355279637405,-0.7257167838600996,-0.5015715603506223,-0.997439486202348,-0.33777993140474566,-0.7037864194409285,-0.4665296670240375,-0.5824125752473363,-0.46816199949820275,undefined,1498140199301
903d185fccf839df,0.00407671445330021,-0.6021676612322382,0.4104742627468393,0.3985533344407827,-0.008353184283985977,-1.5651240506898207,1.780693490387294,-0.917343718274076,-0.3776041440452265,-0.032792278456592314,-0.3021276052412429,0.23453705680278694,-0.20380041221033868,-0.41881577580695817,-0.9802325348255662,-0.16048497877370613,-0.6818755476016546,-0.4956122617288263,-0.9545280449182921,-0.2872730289812325,-0.6786901404719443,-0.4210643245103573,-0.6075274000409896,-0.480377876021989,undefined,1498140200799
903d185fccf839df,0.3284042403007031,-0.5417051164257353,0.4940535519884599,0.5289385112420384,-0.10755873087366452,-1.4283185148622666,1.797327013531442,-0.46426385892350763,-0.27183170833966463,-0.13605415496973478,-0.5038471307827402,0.16664501708649276,-0.3604681929590018,-0.39659574339333026,-0.9781272672617388,-0.04328967782362105,-0.7016382376451613,-0.4466459399473351,-0.9612799669983253,-0.2291130979996942,-0.6340798013970502,-0.4329469672734113,-0.6864512203848615,-0.4846571939423692,undefined,1498140202313
903d185fccf839df,0.5515525193350781,-0.3791017865781569,0.7735025415744303,0.7643154599248823,0.05463641906621173,-1.444888721504705,1.7495223990308058,-0.6881801490807429,-0.45275513915350857,-0.014760160977812496,-0.5775951148002797,0.20841727200152252,-0.3343568961675579,-0.3734498471565585,-0.986548285981412,0.14866803037016807,-0.7074813490000638,-0.38888949450092364,-0.9116096069457007,0.021912362788924663,-0.5393039271772612,-0.4244420387086102,-0.7131057700127371,-0.524270684112193,undefined,1498140203817
903d185fccf839df,0.5584825858261568,-0.3855588931015075,0.7071496713125254,0.713519680239324,0.04449472473504967,-1.4251740391121126,1.7537905789562387,-0.6164326151401883,-0.4154677006381483,-0.3719626430162681,-0.5594677565183159,0.10268698370998118,-0.06889204545454544,-0.38548572718651636,-0.9191798196479737,0.5204598880139757,-0.7126025156161185,-0.3533806795952303,-0.8324896706227207,0.44483066872128435,-0.4209671074322749,-0.45828370510389815,-0.7970363850665134,-0.3623714048688793,undefined,1498140205303
903d185fccf839df,1.4968145548696938,0.07524834807165906,0.9011047038799193,1.1236816924758126,1.1449305916631316,-1.1897787943245086,1.52293568151063,-0.5446546670726877,0.7421459897000915,-0.8250063804071186,-0.7052062780485963,0.1431654023492544,-0.6999150512477719,-0.40770573369859514,-0.7970743892927885,0.6437170248653892,-0.6514487945294707,-0.33849192918131843,-0.6446113073967752,0.48227968571767377,-0.33953636513499696,-0.40896957429673947,-0.8082419793061398,-0.2859664083184399,undefined,1498140206801
903d185fccf839df,1.8253001206117438,0.047658643159953856,0.8641003309482769,1.0145467102281513,0.7289872926474192,-1.151325383548205,1.5405737916729345,-0.4697640578405047,0.9724047498391405,-1.5024337906727305,-0.6053759711603296,0.0318384611137019,-0.8783422459893049,-0.26142400257611886,-0.6402321140756719,0.6295727081201145,-0.4965796233434066,-0.2661887095499978,-0.4938230362240904,0.6331228561652001,-0.2358948818646351,-0.05060329440232712,-0.4363536533436073,0.12470794791992666,undefined,1498140208286
903d185fccf839df,1.9237070647850623,0.2331553825663123,1.2207485016605935,1.3510786218007238,0.6722102459553229,-1.2327229777583386,1.542951125100135,-0.6269227846133929,1.2078366832507235,-1.4407273314559492,-0.5695991087769954,0.03279647336310268,-0.7869527072192514,-0.19013479343190853,-0.6433899675668935,0.5709750788436131,-0.4965796233434066,-0.23754480530822733,-0.4889812425652454,0.6959331125019904,-0.2199197325462026,-0.061525115057604156,-0.25936051237316804,0.1204298049300533,undefined,1498140209794
903d185fccf839df,-0.15392883604870528,-0.4606969297730144,1.4619170966918664,1.4976647371910277,-0.5023340656842868,-1.5560889289608741,1.8084668641460115,-0.5465624771876507,0.17779476632197977,-0.7279064086794257,-0.3784027222974998,-0.043141715845414964,-0.9175091911764707,-0.19939306904166013,-0.5907583300068444,0.6154284761690043,-0.47454597610148275,-0.1424936529455581,-0.4799763462084463,0.7693221021258365,-0.15936471048628525,-0.10787911840134543,-0.30438429875225975,0.1301662426523993,undefined,1498140211296
903d185fccf839df,-0.1303667134952667,-0.6931551613090072,1.5167857723462774,1.6049395683952201,-0.7528730744913938,-1.7896603812724807,1.8811915193136362,-0.821505432672731,-0.21412454710205833,-0.1391498913633007,-0.1639589975536226,0.06523938210723215,-1.0045468471479502,-0.1447689554369307,-0.6086531079804944,0.5527896418014318,-0.3895744505657202,-0.01973587093125923,-0.5242241770731306,0.6897121384146457,-0.13811200770029508,-0.18470637255854924,-0.1989898655020754,0.1538531744726653,undefined,1498140212782
903d185fccf839df,-0.08878614202174546,-0.7154617312376199,1.7955968781891951,1.7938787993473426,-0.7599702055079526,-1.7991823102709115,1.917401330343058,-0.6228162805857295,-0.3117262398965023,0.0934649268285112,-0.1920370023615352,-0.0906918529205391,-0.8739903631907309,-0.0901447382260049,-0.7223374533559022,0.28606937090797013,-0.5310674641639526,0.06775374623213407,-0.6704505252113875,0.7269301796447778,-0.14972400339382988,-0.12339380136716069,-0.2066800374940999,0.0624695787305803,undefined,1498140214287
903d185fccf839df,0.28405167673616005,-0.6344536030408838,2.436160241236649,2.3241937878610033,-0.3566165937497843,-1.7976263782604596,1.8476693967546713,-0.9094687837335325,-0.6306835179629421,0.8108700276275664,-0.3372778287041498,-0.02502787858122128,-0.6346368092691622,-0.1901348193334576,-0.7991796642188498,0.3062753963633263,-0.6256147802328049,0.12173575658795675,-0.8202102654604685,0.5931792843965187,-0.1942801523413216,-0.39366768784239276,-0.4985281848559486,-0.3720288467677144,undefined,1498140215793
903d185fccf839df,0.08723765036788429,-0.639736708795984,3.058221671955231,2.936172667548653,-0.2810064294305983,-1.8126196911379782,1.8443716148310851,-0.8805214947288449,-0.6015110652367798,0.15676431605011992,-0.31102757556744914,0.04031002316658161,-0.30824559937611407,-0.19661559412919938,-0.7907585792390724,0.40124398451835497,-0.6601556216308567,0.17699068655775868,-0.8094211839572549,0.7333975283746199,-0.14591290326390452,-0.383033097009321,-0.5037734281497259,-0.4114132063964811,undefined,1498140217323
903d185fccf839df,-0.15254292626671875,-0.6949161478473868,2.8738359120814256,2.6446589954751647,-0.3687742825939376,-1.7969835093978905,1.79962808422948,-1.1674759126448524,-0.4514892722712784,0.17676299775195656,-0.2543237977280339,0.07295548200437608,-0.21250417780748662,-0.1595822067731529,-0.8623376101491008,0.42347068318105063,-0.6030841850377732,0.2812119389789885,-0.8344627719322352,0.676977624434436,-0.10054302390115033,-0.4004134956014836,-0.44557028912966673,-0.48512323783696537,undefined,1498140218801
903d185fccf839df,-0.030573583496683862,-0.7084175512601633,2.909564771663912,2.9185459050756735,-0.3551148830404436,-1.7803923394924057,1.9257693592030092,-0.24774002023663425,-0.07535786424413037,-0.14605118588322266,-0.20152693811335173,0.04705598449231399,-0.6955631684491979,0.0561369799456968,-0.7433901289941764,0.5123775060965547,-0.42118422349469065,0.3647941304083408,-0.7905787742666422,0.6682929060222371,-0.03339336911437994,-0.3736188762377769,-0.5300579399292212,-0.49093247989140304,undefined,1498140220298
903d185fccf839df,0.1731705438680804,-0.7342462111775043,2.6562743524190418,2.6786629452997217,-0.2076591293227046,-1.7795608005665726,1.895100553499186,-0.42965563400852924,-0.05006859340917084,0.5111467190587261,-0.277396571289181,-0.20729499036571467,-0.669451871657754,0.07650533651613509,-0.739179579142054,0.4941920973190949,-0.4168706000026274,0.33393369559157643,-0.8016197417321659,0.7120090924019231,-0.04331119158820046,-0.3966802504046608,-0.4990636215179098,-0.4456277452190216,undefined,1498140221794
903d185fccf839df,0.016550834137241982,-0.7401163319307259,2.588644952260183,2.320593784057133,-0.1552329363448876,-1.8288917570414964,1.988732177104689,0.13360678753840427,-0.04763505959070045,-0.026722352616319757,-0.3158423933799714,-0.2451097583890796,0.8014845142602496,0.08298618901652413,-0.7833901685334947,0.7831388690222014,-0.4739093530278122,0.33242645465308396,-0.8007661298998862,0.9268789967130541,-0.0034334378973066605,-0.4072937409833019,-0.6671024199918127,-0.5330965298770602,undefined,1498140223295
903d185fccf839df,-0.007011322921606339,-0.6890460270941652,2.214132478825098,2.1834893685021366,-0.2924749898986447,-1.876496748216856,1.9486618193044836,-0.31317333491749466,-0.2157355035151233,-0.10819500795437995,-0.20576931843670465,-0.21153924322668666,0.4489820075757576,0.0959479717219495,-0.803390184622037,0.6861497772481625,-0.4261885403341697,0.2436385873301416,-0.8105406746762531,0.7712007145434788,-0.07265169367703937,-0.4056339377370323,-0.7407081890088281,-0.5065112277022251,undefined,1498140224812
903d185fccf839df,0.24108519548065227,-0.6274093646074425,2.128000638063469,2.1581502508594386,-0.3197629485568519,-1.8677947111041806,1.8336867144543565,-1.0143846893109263,-0.330875516225574,0.16727437706044015,-0.23651279141330941,-0.20347945168934933,-0.3996351381461676,0.012622791892359484,-0.8076007123874581,0.7811182523443051,-0.4932918199782684,0.10186931077707823,-0.8055449505908834,0.758820362291082,-0.15871473312487583,-0.4176795393692257,-0.6130487250618588,-0.4993831657212562,undefined,1498140226284
903d185fccf839df,0.21475101182537243,-0.549336282173321,1.9544616973280036,1.9308225577088076,-0.40679023036511697,-1.8371535694030063,1.831824804174399,-1.0206568542546832,-0.30047500252503156,0.2872113542467979,-0.22039352308545065,-0.12978654159110264,-0.5780623328877006,-0.0845897624995343,-0.8233902227972807,0.8639632534908416,-0.5502045109599132,0.07250978361185591,-0.7987020685380609,0.7518910570880577,-0.1732790831558914,-0.4685018552823715,-0.6079278767693131,-0.4661901096641367,undefined,1498140227799
903d185fccf839df,0.1468362912019811,-0.6209521996281072,2.081426230027389,2.2138702124536125,-0.41643820902185524,-1.8112943554568455,1.807180899549045,-1.1247404987817118,-0.3236575544160607,0.04917976724773178,-0.29102660609175546,-0.17538311122904413,-0.47361714572192515,0.004290315351879034,-0.7770743511175449,0.7326236499278426,-0.47682088998485506,0.18318430872427088,-0.7890254798969514,0.8018744124337088,-0.10691853577331084,-0.41557452790105553,-0.4794490807369733,-0.48713104398357476,undefined,1498140229294
903d185fccf839df,-0.12482262579699396,-0.6420847395604772,2.654998330795987,2.7361046481921267,-0.5294060299600549,-1.8236626132147458,1.8584358072900495,-0.824980953430748,-0.3227684571517471,-0.9309036013699631,-0.3555901210336344,-0.13328882874121314,-0.5780623328877006,-0.002190511246960914,-0.7802322635066368,0.5083363010054835,-0.578262000528134,0.1848498740464416,-0.8004022947616862,0.639020455601601,-0.1397739561235309,-0.42510585491372177,-0.45573948183247737,-0.4286004381944511,undefined,1498140230819
903d185fccf839df,-0.08740016322893944,-0.6233002596205928,2.5567444116838107,2.615345843328549,-0.7159474301053708,-1.8189342594898013,1.8315539290490943,-1.0653999268391918,-0.3799324051050508,-0.7275356171514227,-0.35958692100198103,-0.07771718515398963,-0.4866727941176471,-0.07255393427267465,-0.7739164681773882,0.21736862997726525,-0.5565895738139313,0.15015800907998839,-0.801458813045021,0.6119653874909681,-0.16772810373403665,-0.4081160978022723,-0.386911292160997,-0.4104412861959274,undefined,1498140232314
903d185fccf839df,-0.2315457532758361,-0.6632173964048165,2.2345485706570267,2.2483355157334177,-0.7251839917233942,-1.7752470484387755,1.837975909762019,-1.0576881799896871,-0.3585465818661719,-0.31864082071990446,-0.26063735310453623,0.006523186525876612,-0.44315396613190733,-0.1540272828497805,-0.8223375926964839,0.14058559192330405,-0.5965775261649657,0.04993917577836387,-0.8171876442261126,0.6340313618079184,-0.21942183196125098,-0.406769903629785,-0.4213724328081196,-0.3919597245773636,undefined,1498140233797
903d185fccf839df,0.03179698041761526,-0.6168430946412575,2.207113978692872,2.1395953908595837,-0.6603840976883409,-1.7554648217190323,1.8456365387743587,-1.014904646899192,-0.34354778383029205,0.19181968288321236,-0.21113293311215178,0.03576423350255339,-0.4605614973262032,-0.22624232991558565,-0.8665481747256908,0.15472988040385724,-0.6466287069725535,-0.03348469301689696,-0.8825868363406857,0.536651592872914,-0.30110566048804766,-0.36656208648182165,-0.40416124607787585,-0.45149902143261245,undefined,1498140235293
903d185fccf839df,-0.14422684647742423,-0.6632172794928471,2.1401229705509652,2.0502826158570984,-0.6224607282963583,-1.768205758491129,1.8471144904159713,-1.0440804937176167,-0.3556724607677317,0.4311245545569983,-0.20469622057743417,0.05285665218978108,-0.5737104500891266,-0.341971539133179,-0.897074499184435,0.14664747022171476,-0.773448289370132,-0.1738037279150438,-0.9161645310527488,0.48328058258502443,-0.39212347094823896,-0.4316152746550062,-0.5964507109166728,-0.5061087822409599,undefined,1498140236795
903d185fccf839df,-0.13313870558628849,-0.6461938737753192,2.2141322246881487,2.1279271683429597,-0.6530709562811733,-1.8046536929023644,1.9291828472413872,-0.5414854281854881,-0.39897953137071956,0.42590475518363685,-0.2656777543075005,0.03278725471864293,-0.7826008244206774,-0.2762373445677629,-0.8949692316206076,0.21332745315091556,-0.7445440432025495,-0.1828788357341298,-0.9195229998208914,0.5302766372524277,-0.3840122143774639,-0.4712075378388133,-0.601346114586894,-0.5046355795614137,undefined,1498140238304
903d185fccf839df,-0.09294431993803165,-0.6391496937978626,2.1854218652378883,2.1798728525275943,-0.7563907835427229,-1.8392894800365807,1.8743277270359118,-0.942231424993687,-0.3932190951958782,0.49597154639729213,-0.39800298594989303,-0.04189341760617398,-0.9175091911764707,-0.25772066384051423,-0.9370745828971561,0.2133273966214725,-0.7640433286869747,-0.15767372034104307,-0.926645753232178,0.5433345180215925,-0.37139762546572497,-0.48287070642730623,-0.5960757038400503,-0.5335794278851105,undefined,1498140239789
903d185fccf839df,-0.16640302474346652,-0.6344535445848991,2.9070127284178024,2.741725510687323,-0.6282515661445197,-1.8573224500077825,1.8774019714750008,-0.8348612112429414,-0.4209990782965811,0.5033721230363271,-0.5109325980106598,-0.015740737902562325,-0.8304715352049912,-0.19939309494320923,-0.941285118024811,0.2719251106921385,-0.6987179644728889,-0.06340785259019402,-0.9241548890616801,0.6090088865576228,-0.31033341735436276,-0.48294032624954863,-0.6069960692251948,-0.5077294447883283,undefined,1498140241305
903d185fccf839df,0.22445303590206322,-0.5786871197633673,3.0512034259599545,3.0619904979811627,-0.4154816406916668,-1.799445512798935,1.8644238919056693,-0.7687773102494453,-0.4339070109826279,0.7301651303624606,-0.4837682691989072,-0.003821614552009161,-0.8609347147950089,-0.19291229424591838,-0.9812851428396616,0.4194294215605363,-0.6599210908521647,0.012790126400586176,-0.9203976013272853,0.7458394708816767,-0.2455536047354753,-0.46754310765760193,-0.5471588753041859,-0.5149567083073967,undefined,1498140242800
903d185fccf839df,0.1357481158054356,-0.5634247298122113,2.0763218893982205,1.753458823717006,-0.5686150968400324,-1.8038431171670934,1.8380758580064638,-1.020376122096009,-0.3829994260452059,0.5638617172135406,-0.4161034335485372,-0.03414545150493893,-0.8217677696078431,-0.17346981444939852,-0.9633904164016481,0.4901507791691376,-0.6673402297867387,-0.04136287305249618,-0.8729382331263158,0.7378476772373356,-0.25245116272402757,-0.45523906530221264,-0.5587367113283163,-0.614788072487607,undefined,1498140244329
903d185fccf839df,0.08585163706966853,-0.5992326154696236,2.221150216546476,1.983319307091974,-0.6864171884605086,-1.8180305133866776,1.8841290171151817,-0.7850518356401962,-0.2888904702060685,-0.14356497145424896,-0.3440806210654581,0.008559869177445617,-0.9088054255793226,-0.20957729912997747,-0.9339166852325318,0.26788390560106723,-0.6301512945386355,-0.0579361884113541,-0.8490021434903439,0.6458573656086115,-0.27663511820448866,-0.4251304370982299,-0.5503395428605903,-0.6020583365099348,undefined,1498140245803
903d185fccf839df,0.01655090314806145,-0.6814148028905948,1.9818962892921583,1.958031201933213,-0.8570466154573577,-1.8681650583825307,1.8431566351556627,-1.2332765065815277,-0.31055744108427,-0.24300713121436143,-0.17276759604906752,-0.15039096088875323,-0.7695451760249554,-0.1521756070065909,-0.8707586877666442,0.3608318770781995,-0.49669138503408883,0.01739417420062694,-0.7881298891140518,0.7346909954765907,-0.2088056365682982,-0.34695729406857534,-0.43136428815786976,-0.4970684525516415,undefined,1498140247299
903d185fccf839df,0.037341068115888,-0.6244742750028394,2.551002695585488,2.578958066955806,-0.7982432830097872,-1.9150526432536135,1.9222559386330134,-0.7464894483743576,-0.3823536411263715,0.1124134486209136,-0.13118291240297994,-0.07657160319611035,-0.15592970142602494,-0.0994030397373056,-0.8412849713219955,0.5083362444760404,-0.4304755537008924,0.005348914850074152,-0.7586733156229768,0.8283905402847964,-0.19144924263310187,-0.32231960482331,-0.4336387028073404,-0.48119338905340664,undefined,1498140248788
903d185fccf839df,-0.01671345051452634,-0.5546194171564134,2.349391025005866,2.3651529661597848,-0.8284112320535191,-1.8825830484171373,1.8541045103792668,-1.129156401464527,-0.44700023010545753,0.4867678304456437,-0.23125523350810795,-0.040977965316881686,-0.3996351381461676,-0.0994030397373056,-0.8265481130996711,0.6255314747643217,-0.4207294036421068,0.031421644877910146,-0.7582744973234845,0.9028574238631183,-0.16681126710025598,-0.30615059929366795,-0.31028077643685104,-0.5143783191537623,undefined,1498140250321
903d185fccf839df,-0.047205743075272893,-0.5117673222935522,2.3519428141150263,2.3733044157593417,-0.6368812667500009,-1.8831630291667656,1.804719382425696,-1.3361909729955705,-0.484535551109473,0.18089433139288075,-0.3269356970409388,0.02333672381357793,-0.7564895276292335,0.06909873674957308,-0.8802324102094522,0.8558807867792559,-0.32117835029058805,0.17680703119665103,-0.8113662975338977,1.1795212992142006,-0.05749527443054063,-0.3764755516722548,-0.3520668020566593,-0.4875232683803274,undefined,1498140251797
903d185fccf839df,0.055359344508921986,-0.46715406552435734,2.8068449039395187,2.6772858428469775,-0.441669026335864,-1.7993942701232641,1.8822802534956182,-0.6486755008146561,-0.41617601202414645,-0.013665571291970494,-0.38530323724866816,-0.01509015168006011,-0.7738970588235294,0.06817285997565463,-0.8939166015198108,0.8801281303845696,-0.366640254382161,0.24820463901284792,-0.8398363202998693,1.2146759484852838,-0.012658434216521817,-0.4127329556812156,-0.46627209765131644,-0.46698994678949507,undefined,1498140253292
903d185fccf839df,0.030411105141038442,-0.49356976966781213,2.5152735818660523,2.3133133114755857,-0.3905902549348532,-1.743911792669662,1.7938661853643925,-1.1079952761270488,-0.4867045089723741,0.07837783003283906,-0.46390129336081265,-0.03832546691330647,-0.6520443404634582,-0.025336368631409045,-0.9254955928905207,0.9831791004570192,-0.40643396087344125,0.22223957162422395,-0.8690480048474909,1.3491505745466639,-0.017254395438303503,-0.4107840778936787,-0.47437855120783284,-0.4715270161957507,undefined,1498140254803
903d185fccf839df,0.0013046878568687057,-0.41667080491391034,2.6122512252182237,2.4026982042370464,-0.518924903923659,-1.6501389508307396,1.9029110865465633,-0.3014397427828699,-0.4405220030871227,0.4497520929347022,-0.5175227062972633,-0.02349909700141839,-0.7521376448306596,-0.05218547409603999,-0.9223376878636628,0.8457777316544955,-0.4108306827056209,0.15688359196552573,-0.8654096615644804,1.2971346265022234,-0.05265503628112076,-0.4401970946669361,-0.4445351243829764,-0.5265506610511448,undefined,1498140256294
903d185fccf839df,-0.06799594254850917,-0.4783074381726407,2.4986853007663385,2.3102923163001337,-0.7323736848649166,-1.693085464711103,1.8118856133625998,-1.0052318046132989,-0.4521520071634446,0.1957617779533593,-0.427192949256331,-0.02981078546271141,-1.02630626114082,0.0005870154685980282,-0.9076008517280397,0.7225206513325252,-0.49434342838549455,0.24304962474191721,-0.8556211234905645,1.0347913089029257,-0.04492801386495689,-0.4448892537696179,-0.6620921171546404,-0.5309976153058004,undefined,1498140257837
903d185fccf839df,0.1329761582198236,-0.4982659773367602,2.8432113931281084,2.55366349371076,-0.703491440985179,-1.7407812972692451,1.8249084173986838,-0.9822691774349265,-0.34770371250655163,-0.23632464363887717,-0.4291559969107665,-0.007732769017223777,-1.0437137923351159,-0.08829295877661893,-0.880232380760517,0.6437170248653892,-0.6153148274272979,0.1814997470238111,-0.8400672132297983,0.9431397584295232,-0.09708495262559937,-0.4203596299173614,-0.7162515457616134,-0.4844998362613364,undefined,1498140259292
903d185fccf839df,0.2951398176272958,-0.5786870613073827,3.088845936771599,3.0463069047499496,-0.5364620020722624,-1.844777171125782,1.8616310421985602,-0.8506425348860176,-0.3815855107278676,-0.2110603896970276,-0.4400418811729253,-0.04414902414084029,-0.8000083556149733,-0.021633042846578944,-0.8560218369065536,0.8477983200676704,-0.4981049785639179,0.21507068148534925,-0.7888155740842052,1.0644949066013003,-0.05615471032544951,-0.3408287045676169,-0.5649409423534865,-0.4661082975159462,undefined,1498140260789
903d185fccf839df,0.5820449499174636,-0.6467808595454483,2.868732333863105,2.942953758327148,-0.32826921101532325,-1.8717940166057812,1.8971860106913367,-0.568247234355699,-0.3800256382929174,-0.1480802333870237,-0.4493369603617944,-0.070363698187048,-0.7347301136363636,0.07372796520987071,-0.8591797345711779,0.9508493749342847,-0.5367390886347929,0.3281960526671622,-0.792607846154368,1.0382251601777142,0.006806882710752419,-0.36791713715548574,-0.6795768866436871,-0.52473343180791,undefined,1498140262304
903d185fccf839df,0.4974980352100735,-0.6602822629582249,3.0097325961421957,3.102518067668018,-0.23022594972539123,-1.8750759123854737,1.970084227126192,-0.0942683713194196,-0.36882971615405863,-0.11529856173324522,-0.3696836698272973,-0.09342125770790755,-0.7347301136363636,0.02928790038261495,-0.8623376175113345,1.0276324412529674,-0.6121628366696376,0.4186051579011897,-0.8137941903636863,1.0975553707111154,0.06328869736199465,-0.36157711572417134,-0.6879550557204277,-0.5308036789902996,undefined,1498140263804
903d185fccf839df,0.26603346935394556,-0.6966771928417509,2.732835395665386,2.7614912862617764,-0.3889445466735487,-1.9215139540462844,1.9490457721814585,-0.3460899757402917,-0.32029358098943045,0.13633726243090474,-0.3060161978134652,0.06767834057430376,-0.7826008244206774,0.02928784857951676,-0.8676007901020201,0.9427669647521422,-0.5409732439687348,0.40688287903806725,-0.8060837052975381,1.1304618460719909,0.061694671386794214,-0.3402064245626084,-0.7600121777990757,-0.5503607712969547,undefined,1498140265303
903d185fccf839df,0.16901257298425262,-0.6520639945285408,2.9382751311141724,2.962576521281747,-0.20077800415157027,-1.9260187025024453,1.9521094916453232,-0.2524563793571801,-0.38623769667273533,0.1263521037121523,-0.18443704626396798,0.09206628417391624,0.09647950089126561,0.16631123933836867,-0.8560218221820861,1.1589718752276372,-0.5213147266218103,0.506227765791085,-0.8156273555229548,1.4105287729529596,0.16039353125288253,-0.3335825176061826,-0.7401683161733089,-0.5759608127662268,undefined,1498140266801
903d185fccf839df,0.03456907602486623,-0.6667394279375601,2.644789903674598,2.554506088817625,-0.4147102161845034,-1.9300156778030526,1.8657755888880256,-0.9233763379031951,-0.33123141897260067,0.23134485549018405,-0.19375076961357438,0.013677672609741306,0.057312555704099835,0.16075623771034897,-0.8581270823836797,1.0882507154720866,-0.49696360335442746,0.5447827261682072,-0.8179572936611125,1.2848928586972153,0.15890930198183023,-0.3065077057486405,-0.6895093096124166,-0.6249697705712163,undefined,1498140268307
903d185fccf839df,0.038727081414103755,-0.596884555477138,2.4463686683580375,2.3611469573600403,-0.3950131007363725,-1.9255947812293623,1.8490631800201425,-1.048987260869767,-0.3882175685052816,-0.10165883697033587,-0.1576806329721615,0.0760523695002805,-0.0775958110516934,0.22463888594032094,-0.8528639097929943,1.2741465453674652,-0.4794653662691659,0.4794077500260232,-0.8109814732965871,1.4513192608635888,0.16004606347027567,-0.2895345801298894,-0.6565681441460143,-0.5053437946493289,undefined,1498140269813
903d185fccf839df,0.4004768627971027,-0.5939494804865311,2.321318295161709,2.2925890481923967,-0.42636391083106273,-1.9235636847727342,1.8826011002552814,-0.8566935089043989,-0.34443661095320627,-0.10687302719882175,-0.26783182314327025,-0.13602418109338038,-0.41704266934046347,0.23667468826563148,-0.8528639245174618,1.1731162767670764,-0.48126470377752917,0.41963742840715107,-0.7921530542242508,1.4817465852690797,0.1330557493754173,-0.26729373255030353,-0.5610716064739111,-0.4783722476499256,undefined,1498140271343
903d185fccf839df,0.43651345008858045,-0.6444327995529627,2.1956297840853782,2.3019613978562603,-0.39459138906429175,-1.880675403395439,1.8070783394399461,-1.2792917821799248,-0.3583011668169171,0.32984138302210636,-0.2563036610275956,-0.009644838866083886,-0.8000083556149733,0.2579688957084391,-0.8444428689866197,1.0074263875328897,-0.4315761516616821,0.4304034310863044,-0.8041805715707233,1.3951457273387375,0.12123387713421202,-0.3041589745866894,-0.5443712530872565,-0.46563079269041274,undefined,1498140272798
903d185fccf839df,0.19950486554499916,-0.6262353053832074,2.341096503250585,2.401589538973055,-0.39443710313459135,-1.8975111443506738,1.8847654384573191,-0.771004488772132,-0.31797859611596246,0.32183541195434784,-0.23777968157564786,0.09044613771087272,-0.7477857620320856,0.16260793945508767,-0.8497060268528376,0.9346845263052782,-0.5023598574996665,0.35427511599855877,-0.7750808350306329,1.3240357026195,0.07663768436605037,-0.307736733666316,-0.6900813503281741,-0.4226286362439971,undefined,1498140274296
903d185fccf839df,0.01516482083902623,-0.6074508400573191,2.4578528629655314,2.552735347608114,-0.47735010590341076,-1.9241529827428954,1.8780699546487896,-0.890924568747676,-0.3236758702081076,0.26677956899425287,-0.12879354602542423,0.08663981266149472,-0.36917195855614976,0.2542655440220599,-0.8349691612682795,0.9084165377573467,-0.41312734849803195,0.4264643444707859,-0.7577287434508844,1.3207558288795476,0.11100141917704115,-0.2202910431214231,-0.45659411221638047,-0.32223388085847077,undefined,1498140275798
903d185fccf839df,-0.009783349518037844,-0.5974715558612632,2.3066441735650525,2.4447398335822275,-0.3785457012361641,-1.9357968495662403,1.8206639146083592,-1.2582504739836833,-0.3484347370462192,0.09459153693653727,-0.026672135854844885,0.27207248267561646,0.4054631795900179,0.32648056518631596,-0.8412849713219955,0.8457777881839387,-0.31767785879274496,0.5122693977135164,-0.723857180485976,1.2955331689920182,0.14824471364929476,-0.20054586942058186,-0.4501417543492685,-0.3688318259782853,undefined,1498140277299
903d185fccf839df,0.1302040626125726,-0.6573471441256294,2.4010700278080637,2.604332737362156,-0.3958256764978949,-1.9452256099527485,1.824056367361593,-1.2783385398752187,-0.360146009413952,-0.05218446742609581,0.1510357243796096,0.12044462538037091,-0.35611631016042783,0.29407627678282167,-0.834969175992747,0.7568710500625991,-0.36634202976084684,0.5082923097817341,-0.7247667676310723,1.3589131700046775,0.1554520105939103,-0.18652019986328078,-0.5410664455270269,-0.3296300972567819,undefined,1498140278789
903d185fccf839df,0.2979118097183176,-0.6978512082239975,2.4010700278080637,2.4440032421057687,-0.4454130240228994,-1.9315320122992106,1.8158934396025657,-1.3296697501432875,-0.29038673185720587,0.3639438659354113,0.1843113241483954,0.09360147828017161,-0.673803754456328,0.3042604291664917,-0.8328639010666858,0.9831791004570192,-0.34508661513651656,0.43812329613948425,-0.720680631504368,1.55422705282619,0.15251927280409436,-0.1478619628548133,-0.47898373467311617,-0.3484982817880858,undefined,1498140280305
903d185fccf839df,0.44344348207424944,-0.7677060660704235,1.95637611096801,2.1106699580991855,-0.3276829369329041,-1.9632655671133747,1.8076095461218198,-1.4385313928712338,-0.31581787647702053,0.7532623112012558,0.0854060369037331,0.020727194309479644,-0.8913978943850268,0.15520123608232927,-0.8002323016818804,1.1124980590774003,-0.39002380891244864,0.40061327078812164,-0.6855706348555233,1.5237689286354097,0.13100903627102478,-0.15257234681870863,-0.432029289763425,-0.3315825910608853,undefined,1498140281784
903d185fccf839df,0.5335343464582734,-0.6820018178887162,2.087167946125712,2.0931179662217554,-0.2453973625976693,-1.9370569670770488,1.9255037521957465,-0.6186450004516733,-0.3518906920901378,0.9334276306795505,0.040186642479160026,-0.12536043091768506,-0.5867660984848485,0.07650541422078237,-0.872863977417173,1.1771574535934262,-0.4420267408492371,0.2321822973114722,-0.7311758492568933,1.6510678802900411,0.05557276362427967,-0.2685651905279068,-0.4346932998672552,-0.26864093590702254,undefined,1498140283338
903d185fccf839df,0.421267062270339,-0.7125265977910283,2.050801711074072,2.14211125704603,-0.3835239882612986,-1.9081883768854697,1.8535759285251285,-1.10369094829165,-0.43273041622025565,0.5986702792565003,0.005454688784664267,-0.015469603370607425,-0.43445020053475936,-0.09940311744195288,-0.8865481908142331,1.4277127910637166,-0.45702852027209745,0.07145218624220753,-0.7573439234893996,1.4547992979434012,-0.05760946058106032,-0.2877113130128094,-0.47192934331509007,-0.28439540387807427,undefined,1498140284808
903d185fccf839df,0.3727565623273779,-0.6150820496468934,2.339182343747528,2.2807277149438807,-0.40565880897626216,-1.893490878331367,2.0117903143006113,-0.024969045227763748,-0.4131833721543701,0.4999933523216109,0.009302417594284577,-0.07325015474762063,-0.5606548016934046,-0.0753314609882336,-0.8339165385297164,1.3731563951430081,-0.4120689721106787,0.10360453751078362,-0.7087790589007642,1.291083032635788,-0.05282406676284867,-0.18292660729472704,-0.47618873911340764,-0.3657342602122794,undefined,1498140286306
903d185fccf839df,0.23415519800039297,-0.596884555477138,2.736025830928447,2.650148690263441,-0.617924734556043,-1.9008745679086732,1.9187714469486388,-0.6771731708522647,-0.45900669738781946,0.26939516170609673,-0.04929409086040896,-0.03573912297580276,-0.6520443404634582,-0.07718308502832501,-0.8097059946757531,0.9266020595936927,-0.4374190229553981,0.15091795815770248,-0.7094157684152741,1.1406094254040027,-0.06492382778461368,-0.16075041646297875,-0.4333367185749165,-0.33012348123143137,undefined,1498140287800
903d185fccf839df,0.22999715810574572,-0.5957105108668991,2.438712284482759,2.3647009918737805,-0.6737863516970607,-1.9309753256229416,1.974404991598158,-0.3652257831886071,-0.42228544899857207,0.39205690791605774,-0.042569083749292136,-0.03461768862552832,-0.673803754456328,-0.0790347349699655,-0.7370743189404604,0.9063958928147288,-0.3671716219852158,0.15676326533249857,-0.7298674454883793,1.1138315320442518,-0.07356726115778366,-0.16402207540550204,-0.39349191171789827,-0.28933628656789084,undefined,1498140289306
903d185fccf839df,-0.023643551511014837,-0.5939494951005272,2.2785714437208955,2.204544823519954,-0.8218078181877687,-1.9453187800859337,1.851466822480958,-1.2494695714402506,-0.41382288235177533,0.1402176112795539,-0.1878266577609327,-0.04723219397144169,-0.9740836675579323,0.0015128404394182796,-0.7012848071665632,0.839715966414971,-0.34837691049721675,0.2172175470001454,-0.697500198605319,1.0234118624030035,-0.04468447432405469,-0.14974557659416507,-0.4536151450092707,-0.27719680609990316,undefined,1498140290798
903d185fccf839df,0.14406423010013986,-0.6450198583930726,2.0718556866490534,1.986408299216075,-0.6194058763499526,-1.9752960879834829,1.9178904606932738,-0.7902830367494426,-0.39060597821852816,0.47075803430366037,-0.26801647465300654,-0.06054413110955154,-0.9523242535650625,0.1163161987846423,-0.6865479563064726,0.6639230785854668,-0.4198361232218807,0.32803139769288986,-0.7019221828163452,1.1891607328216551,0.039351833717719276,-0.18011888883233945,-0.5759640668944966,-0.2275724024174354,undefined,1498140292319
903d185fccf839df,0.25771742407006076,-0.6726095925327702,2.2128564572020433,2.337201989758745,-0.5165900444042879,-1.9645909039456477,1.935583797775837,-0.6286793692437062,-0.38639426627851536,0.5289296225582124,-0.22336851601906568,-0.09557695502401213,-0.7086188168449198,0.07187621166203383,-0.6970742720389083,0.6235109146158684,-0.4123153154568404,0.3391140517527053,-0.7067779691120967,1.2043435982277444,0.04344100332953613,-0.24596757118091309,-0.5973033317549014,-0.2541992879244744,undefined,1498140293804
903d185fccf839df,-0.008397439736051296,-0.6913940724726545,2.3985177304250045,2.4200757465989753,-0.6371075574262381,-1.9759412862143824,1.8437220376627375,-1.2814061041998477,-0.3912517874870932,0.7285400612048527,-0.14680606707322563,-0.08297852395607146,-0.6607481060606061,-0.054037124037680496,-0.7097058921463404,0.9084165942867898,-0.5012696974381711,0.26546191978550965,-0.6526856246588167,1.2451648757192322,0.022746933491533502,-0.3332684328293484,-0.5109127663849837,-0.26324071890792206,undefined,1498140295300
903d185fccf839df,-0.10126036522191643,-0.6925681024688973,2.6096994361090635,2.610568755078096,-0.6330549913627092,-1.9685645855692937,1.9494244544525272,-0.6039730264131006,-0.38729072221237243,0.7910751140692588,-0.011015971422969763,0.0191092121199604,-0.843527183600713,0.15797871099479002,-0.7191795998646807,0.9427669364874206,-0.5098214370892166,0.3371381778100585,-0.5966551623203483,1.2398832080830302,0.07967813339119414,-0.3214025053624549,-0.5518132009451512,-0.32236016254915684,undefined,1498140296831
903d185fccf839df,-0.19828143411865803,-0.7500956161267818,2.5210160603752234,2.3879292287350355,-0.7264799783013114,-1.9619658521757066,1.997578829671263,-0.28258161071884697,-0.39485998420867724,0.3418918395304579,-0.05711151223707355,0.03520069373327605,-0.8174158868092692,0.1561271646593459,-0.7139164567229305,0.9649936351501163,-0.5250798685639712,0.40900442037445944,-0.6121391045274014,1.178289425113201,0.09548889969928823,-0.2703370546962485,-0.49384307637765196,-0.3897832661991869,undefined,1498140298300
903d185fccf839df,-0.20105339170427008,-0.7630099753134446,2.640962092942383,2.659053857053033,-0.5957590531770336,-1.9443800965474938,2.015650853214982,-0.0904673439301477,-0.3946240396098821,0.2360864806816806,-0.10202296699220183,0.05256917773531348,-0.678155637254902,0.20149289904812734,-0.6802321904261592,0.9003341841046473,-0.4143176261493498,0.41856082720686133,-0.610739742162437,1.2249467048668021,0.10584483205719222,-0.31263182234876125,-0.3627793101166961,-0.36963004086797213,undefined,1498140299796
903d185fccf839df,-0.30084638368121397,-0.7518566318931537,2.4648706006869094,2.4141412399992404,-0.7433690919262391,-1.9428707484796763,1.9498583762141155,-0.5438661455721835,-0.3782614925100032,-0.19102140319877411,-0.14344230759352258,-0.028005549735958476,-0.9044535427807487,0.2200096833815724,-0.6370742458599828,0.839715909885528,-0.4024319189613311,0.43472883020611314,-0.6327866927393649,1.1136313411874315,0.09184247952058895,-0.22162306917746058,-0.3387445908049597,-0.3397806172006221,undefined,1498140301298
903d185fccf839df,-0.19966741291146406,-0.6972642370678646,2.5567444116838107,2.5464363313872402,-0.7258834028877817,-1.9679496670753855,1.9151475704430818,-0.7900470076232575,-0.4106287411883612,-0.22139143071492381,-0.18616125898252117,-0.03131115259779429,-0.7913045900178254,0.2709304971030208,-0.7665480353851092,0.7528298732362495,-0.31263178750929943,0.477330542074779,-0.6807358379892038,1.063647989503529,0.10317203741580858,-0.20605850149145147,-0.3843374189567022,-0.35736183913884184,undefined,1498140302791
903d185fccf839df,-0.3715331999118563,-0.7101785377985428,2.2843134139561676,2.3316193313960074,-0.865902600959571,-1.9720840661457175,1.915271178014765,-0.8371587902859636,-0.3866932777650709,-0.6154579669959843,-0.2216132783236181,-0.06199627908566881,-0.8087121212121212,0.3144446592548091,-0.7833901758957286,0.7346442383410173,-0.3734256996067782,0.44394325994579237,-0.721709162434089,1.1125996431885605,0.07830991959061934,-0.2210100524927549,-0.2935990594588318,-0.2933165315913555,undefined,1498140304342
903d185fccf839df,-0.16085893704519377,-0.7219188962169552,2.5765231280465857,2.582288244732468,-0.7549816415820709,-1.9709963123750847,1.846822587469116,-1.2487248052677717,-0.44104655603091963,-0.40709891761512207,-0.25379337077511427,-0.08282326969642358,-0.7564895276292335,0.32185133672601834,-0.8139165150789404,0.6942321309008619,-0.3245131965508344,0.42877586125582506,-0.732722143059832,1.1665557914820883,0.07392310655650998,-0.3203744961045512,-0.22222666889993636,-0.31633384763782174,undefined,1498140305811
903d185fccf839df,-0.27035409112046743,-0.7119396120208993,2.469337057573026,2.493840437740406,-0.8389129338031172,-1.9865812518263863,1.853909909374924,-1.2750396981161074,-0.39691845371901513,-0.24517863328133652,-0.20467784005813314,-0.0037848701592068106,-0.8130640040106952,0.1653854661706466,-0.8454954917251828,0.708376419381415,-0.36820108395460127,0.34840447372151695,-0.7472615151807103,1.0797239606260358,0.009127979819689408,-0.3208456477555065,-0.2562804738010262,-0.35386369246115645,undefined,1498140307296
903d185fccf839df,-0.19550937301681678,-0.7090045516442885,2.554830252180754,2.585174306560378,-0.8044352774702068,-1.996822917409819,1.856179427669007,-1.2644764240662696,-0.4172295584198763,0.21394157742952727,-0.145882442748153,-0.0007945810534024241,-0.8261196524064172,0.16816296698465644,-0.8560218221820861,0.7892008038500552,-0.39187054102971125,0.34787250521240276,-0.7933355154214528,1.1235017417298683,0.010890256652724476,-0.45196515363604,-0.25093991135380794,-0.39291443781140506,undefined,1498140308797
903d185fccf839df,-0.3659890777081738,-0.8087971890089014,2.580988822521854,2.654251391433385,-0.7173874243198785,-2.001173935369521,2.0015603704468545,-0.30274117747359003,-0.381369799458813,-0.17853883294052633,0.04190858430788358,0.007202216029286294,-0.5693585672905526,0.07465368657449459,-0.8644428924373958,0.7972831009733116,-0.4262299790023546,0.3538001389884685,-0.8250380646472886,1.2714038088009836,0.035207952776790924,-0.45100097351845264,-0.3700862829251749,-0.4135473474914329,undefined,1498140310338
903d185fccf839df,-0.32302273447430496,-0.7512696315090284,2.4916673089080112,2.523878427843159,-0.7599907825915116,-1.9654666970552757,1.984868992150267,-0.3618960663006657,-0.39057610533077913,0.04309755638319084,0.017017480607782173,-0.17513607000831705,-0.5475991532976827,0.07372791340677252,-0.8665481600012233,0.7831388124927584,-0.46232241253017947,0.3771813692213094,-0.8587207123666561,1.2837225685505145,0.04700959465401551,-0.5077339283225252,-0.49274585011496397,-0.4793755896772155,undefined,1498140311790
903d185fccf839df,-0.3784633354137545,-0.7354202411737472,2.7105053984673493,2.789122553435844,-0.9095139585132272,-1.9396936651699264,1.993405342049675,-0.31488754358929233,-0.37488798178528926,-0.08314767671616656,-0.009720421499390423,-0.08263923736490689,-0.4779690285204991,-0.02996546758396121,-0.8212849552334532,0.7629329283610099,-0.5594928147151048,0.354895740304297,-0.8362959329196678,1.2242229792232084,0.034178182618989666,-0.4709105719925053,-0.5856805289316457,-0.47200873341513216,undefined,1498140313294
903d185fccf839df,-0.15670093165595625,-0.6655653394853327,2.952311877241675,2.9311751541689226,-0.7932135853301047,-1.9082233142872616,1.9671519889315743,-0.4152410109834634,-0.3939477129902877,0.1485861183088846,-0.022712813137725905,0.02195989063506956,-0.7303782308377896,-0.05311129906686024,-0.8886534657402942,0.6639230220560238,-0.5952456245681619,0.3408429371546845,-0.8895976390039979,1.1831091299085483,0.014386939364009352,-0.4732006624364907,-0.694319899824342,-0.48251258282291315,undefined,1498140314892
903d185fccf839df,-0.18164920552924954,-0.7571397814902423,2.525482008987441,2.7037486681272633,-0.7426285255624652,-1.9658486931441304,1.9474284488126856,-0.6093730592331589,-0.3791120955149238,-0.12899971079551673,0.01877145515684037,0.03978367062758467,-0.6520443404634582,-0.04663052427111848,-0.8791797653841877,0.6841290757761015,-0.6221144803967739,0.2505288265519712,-0.8758559022097556,1.1156639377902906,-0.034591829433862374,-0.4467666422725852,-0.7855125751359845,-0.4461721741349859,undefined,1498140316292
903d185fccf839df,-0.2758981098079207,-0.7360072269438762,1.7496600997592189,1.8892835057011277,-0.7832158861122713,-1.9744365976316252,1.9170463016378567,-0.8725085732935036,-0.34420009581361244,0.058807302177588616,0.0748119127198477,-0.03138722707905833,-0.691211285650624,0.010771167852268075,-0.7970743672060872,0.5932017492415872,-0.5604273134189304,0.16870086321761257,-0.8179712853926939,0.947466717655473,-0.09720085493323444,-0.4301012242256226,-0.6441170721529546,-0.5058535556416006,undefined,1498140317795
903d185fccf839df,-0.39648147378514953,-0.650302993376165,1.7311576591564484,1.6847894001766721,-0.9131242337905882,-1.9737564600173962,1.8726551783181637,-1.221110661506845,-0.30385598850991075,-0.31131026537949813,0.009316500045673517,-0.04422148665874425,-0.6433405748663101,0.08483791666281192,-0.8107586247765499,0.6659436104691987,-0.47183504335715326,0.08225618460129872,-0.7897181633846415,0.9457574852164183,-0.13714080895030686,-0.4180375235010883,-0.6035692314106392,-0.5231544222740466,undefined,1498140319303
903d185fccf839df,-0.5032045667585819,-0.5645987013524694,1.5691026588915278,1.4649615776831477,-1.060929699157101,-1.929717534364095,1.8933333433794866,-1.0709408505590998,-0.321235686638178,-0.5762391988523987,-0.0015798674657460867,-0.07278991438680331,-0.8391753008021391,0.0246587496269646,-0.7528638072635816,0.603304832631069,-0.4353731213671418,-0.00033806721574052424,-0.7661808908431009,0.8322401435824446,-0.1974427702139909,-0.38297704083257533,-0.5458873856488623,-0.541306502230107,undefined,1498140320811
903d185fccf839df,-0.4436059949353046,-0.6303444249840533,1.3036899071591612,1.2859730273209988,-0.9310213462914332,-1.9222080671547137,1.9749257104918303,-0.5061238832417594,-0.316797285371711,-0.5768955396739192,0.06378378722210531,-0.06227690213420522,-0.9088054255793226,0.07002458762194241,-0.7412848393436476,0.5669338172230988,-0.38257558051518126,-0.025555847853928868,-0.7114448397096448,0.6514623969374372,-0.22507041525464938,-0.41467150489186166,-0.3775034256104606,-0.5906310661787568,undefined,1498140322307
903d185fccf839df,-0.2634240246293887,-0.7131136127891498,0.6886469765728054,0.7187573778745597,-0.9485996090898846,-1.9228718993722933,1.9345082144443364,-0.799836576817446,-0.30548394173867033,-0.25250289634828865,0.08529976362132727,-0.03781357468309806,-0.8957497771836007,-0.017929639357101564,-0.7707585557882964,0.2719250824274169,-0.4643846837747749,-0.1411383999921867,-0.7041261761137613,0.5965823357783195,-0.288678371525779,-0.42863862084698595,-0.36179091211148623,-0.6234829054689374,undefined,1498140323802
903d185fccf839df,-0.3022324659902492,-0.7048954028154503,0.45641104117681536,0.48776173419848406,-0.8508340608938021,-1.977692873408098,1.8987323366992435,-1.0693372152491076,-0.3120693389711365,-0.17666367176816636,0.09089113700253355,-0.045099266314645683,-0.9784355503565063,-0.22809397985722615,-0.7412848540681153,0.5325834750224678,-0.5814100171104136,-0.18230886936916815,-0.7155449716847128,0.6517087714991607,-0.2955437949568849,-0.4829666789595023,-0.4168143439414241,-0.5490803151669728,undefined,1498140325335
903d185fccf839df,-0.25510794484009414,-0.7741632602777511,0.08381221897088854,0.09345694838855109,-0.9103368170450258,-2.015650156709847,1.9392734235580715,-0.8502570330430804,-0.2807837530347267,-0.46016973866138855,0.14526408281065753,0.03388779699163703,-1.0088987299465242,-0.2845698340590179,-0.7349690292899316,0.4456974101084678,-0.6232331002233366,-0.28840467489063903,-0.7775507109400576,0.703678533321246,-0.3301457127317296,-0.43758722682717854,-0.6446858266765284,-0.6510901794345602,undefined,1498140326803
903d185fccf839df,-0.31747861227062246,-0.8545843953973601,-0.29644222469946874,-0.3161830769128907,-0.8471723491011575,-2.071027819564735,1.9379900784202906,-0.8836421452282611,-0.2869417257706476,-0.5041525310689116,0.13316322807194225,0.046386496449797775,-0.8957497771836007,-0.26883064119500455,-0.7654954200087799,0.9831791287217407,-0.5911917013913512,-0.4725603441021298,-0.8860782449314453,1.0802783130760456,-0.33206005195103355,-0.4060728411014356,-0.8731715760051139,-0.8287881218692966,undefined,1498140328307
903d185fccf839df,-0.2578800059419354,-0.953202995458732,-0.7162541010953759,-0.7610211972891447,-1.0208051999773289,-2.1263332754094995,1.9668311523852489,-0.7510768628758869,-0.21836023250404293,-0.6712125223038728,0.1269756840172092,-0.15053552166203135,-0.7434338792335116,-0.5188058115866999,-0.9718114388024383,0.7407061731688711,-0.5957526359228054,-0.7005589822703987,-0.9970686549322652,1.0235812360812306,-0.47690983941409076,-0.3799564479492392,-0.7802566381493032,-0.6458599789655777,undefined,1498140329795
903d185fccf839df,-0.24263389416697184,-0.9819667742086685,-0.7921775147356166,-0.8272271988441526,-1.0089560774691382,-2.1438468250654714,1.9615426013832693,-0.7983534616725274,-0.22596935259603693,-0.6115270967402351,0.11218751807236338,-0.17329704805408633,0.5186121323529412,-0.7215634098617425,-1.1781274833639148,0.5810781057036519,-0.43500916937929085,-0.8031716696274872,-1.078693450772508,0.9272947584153143,-0.5621035866686116,-0.38147287712930267,-0.7615847769361439,-0.5718724312877338,undefined,1498140331297
903d185fccf839df,-0.4879584204782087,-0.9185690886485759,-0.8004720364908975,-0.8503625963377545,-1.2107614520275434,-2.1216934308512836,1.9550811685117213,-0.8747848667177802,-0.2196788234018263,-0.6718838504933543,0.10507370724428775,-0.1900800856980937,0.39240753119429594,-0.9104335234928976,-1.2202328015104111,0.637655118302257,-0.5262627657177872,-0.945719898014793,-1.1576804487348484,0.74003426343726,-0.6914518787326446,-0.3921363624309156,-0.6428760706415299,-0.49721267660705176,undefined,1498140332826
903d185fccf839df,-0.7956536832307933,-1.0154266437155839,-0.8464083066469746,-0.9148307727834349,-1.1692998083957709,-2.082736904895909,1.9508156325312964,-0.8953112573645925,-0.2504137214307927,-0.6743688975045345,0.10689371968254713,-0.17737551283934203,-0.22555982620320855,-1.0752319612441716,-1.2518117892000042,0.5042949828555261,-0.7454523544897508,-1.0907823075113765,-1.2346593613944619,0.27387711974348194,-0.8862494853391154,-0.46677488688778873,-0.6208987212225591,-0.51763478761619,undefined,1498140334306
903d185fccf839df,-0.8954467442185566,-1.0700190823828613,-0.8942592445800078,-0.9480324854346533,-1.4199519579598034,-2.058198369798743,1.9479701778509788,-0.9451154250080899,-0.2826725166527543,-0.7019226800840488,0.08896278336457783,-0.010730942070722277,-0.6085255124777184,-1.0854161298163099,-1.2454959957113143,-0.22918563491024638,-1.038689658123939,-1.1002437255370368,-1.240984478426978,-0.2503629541560367,-1.0266487954648087,-0.4667790458482584,-0.6214985952449908,-0.5173933938146016,undefined,1498140335790
903d185fccf839df,-0.7651613906700467,-1.0207097933126725,-0.8617205661236333,-0.9049563950407326,-1.3154801340543163,-2.0255633987580812,1.972235404264411,-0.731858729697179,-0.2454290748394223,-0.3274969472731402,0.10393793737787542,-0.09143347226356426,-0.8739903631907309,-0.9780194068522778,-1.2349696597327355,-0.12209343148200401,-0.9515797122662719,-0.9948445439751056,-1.2151662464510826,0.1215403010569519,-0.89594117296383,-0.4405676654058477,-0.24089856260501813,-0.4384215934376642,undefined,1498140337307
903d185fccf839df,-0.5295388711827959,-0.9350055451309652,-0.5969459522712689,-0.6614491571080905,-1.2235774292831483,-1.9654317588416605,1.9522620275788674,-0.7494322994432281,-0.3115498786354221,-0.31077903844217886,0.074306546733096,-0.06741785449882887,-0.9088054255793226,-0.9048785186271843,-1.220232805191528,0.08400857932469906,-0.8536526672465141,-0.930571498953138,-1.1982269672574768,0.246005939301421,-0.8357460960143658,-0.4026451791346152,-0.14068684483909366,-0.37068519347313306,undefined,1498140338840
903d185fccf839df,-0.26758216804026513,-0.7383552869363618,0.20822445428721506,0.07663032281255429,-1.067882835290391,-1.9408676019722069,1.9644958869095313,-0.6058076500790454,-0.3289510369921816,-0.2618115298311301,0.1110889557951343,0.03796583159463776,-0.7042669340463459,-0.6493483692713247,-1.1181274166927035,0.09007040109366668,-0.48863005222027817,-0.7540026964055792,-1.0987742971077146,0.37025599430166306,-0.7005089003571342,-0.31389993031652597,-0.07944932819157621,-0.40102627974727983,undefined,1498140340291
903d185fccf839df,-0.2481778783490154,-0.6591082037339897,0.599325462958963,0.5475469665991516,-0.9954612419243991,-1.955965730960188,1.9914461379454977,-0.4148088098937169,-0.3267810489085041,-0.31855902632387223,0.07774102226233554,-0.007494745795396144,-0.5911179812834225,-0.44751662186865143,-0.9360219159851902,-0.08976369182690873,-0.5849396227787389,-0.602506016952192,-1.0195634014420027,0.5754556773630531,-0.5669244314010027,-0.3426562126593503,-0.2529505315501347,-0.5095506609962076,undefined,1498140341795
903d185fccf839df,-0.568347226280132,-0.7213318519908415,0.8928104362615878,0.8237092602453856,-1.1517112654737327,-2.0034961872670296,1.9943546942911596,-0.48946274645209054,-0.3113814730364462,-0.7425518516406361,0.09197010679211876,0.10957008713946402,-0.8000083556149733,-0.07440554536199151,-0.9118113574067593,0.019349156543951574,-0.5864714602551251,-0.3463194474004748,-0.9622175391909036,0.6655365820660708,-0.41508889687980133,-0.4215918266066325,-0.3988587249689733,-0.5461515552959195,undefined,1498140343294
903d185fccf839df,-0.5960675267498569,-0.7013733274407181,1.0006343904782007,0.9583140257569988,-1.1428449974213009,-1.9530145853518228,1.971772549427113,-0.5893607833841802,-0.34651131301289434,-0.7533943224874269,0.12162746729170977,0.004871796531698032,-0.8913978943850268,-0.12162307215093347,-0.8749692081698315,0.24363656199575368,-0.6705713200170086,-0.215702484164999,-0.918984244667691,0.7477334808158664,-0.32981862023753405,-0.4737879392935069,-0.41582229981215524,-0.563332054650563,undefined,1498140344800
903d185fccf839df,-0.6917026168537924,-0.738355316164354,1.341970555850808,1.312353378116296,-1.19656719431155,-1.9370919056929514,1.9252355064810849,-0.9057442816815076,-0.33636243421299444,-0.7061319499972886,0.09950150562839416,-0.04362293692917666,-0.8304715352049912,-0.13088145136688145,-0.8739165854312685,0.03551400517295806,-0.7036279931257363,-0.23230746250926726,-0.8836013717462472,0.3031187639438448,-0.40993056438117625,-0.5176607719004199,-0.5739876005198408,-0.5033066119582613,undefined,1498140346308
903d185fccf839df,-0.7263529493091863,-0.683762833655088,1.239250942263364,1.2356647290171743,-1.275581919877304,-1.9026214945309712,1.9540239927569447,-0.7097964632414439,-0.2798728035932969,-0.39573618531291893,0.14056578109671963,-0.014856356305781544,-0.6259330436720143,-0.17532145144026448,-0.866548167363457,0.05369949874458247,-0.6584916757135875,-0.23632888166689783,-0.9120713958702064,0.3051513589312271,-0.4257955080965929,-0.5000297725634469,-0.4812284853634577,-0.45904127717030024,undefined,1498140347825
903d185fccf839df,-0.7388271034985378,-0.7054824178135717,1.273703526085846,1.3038275602073381,-1.3215898396635752,-1.917069766207998,1.991325157558474,-0.48714873786396073,-0.22312382526667324,-0.2108062241991399,0.12013530818350779,0.00992122955423383,-0.6259330436720143,-0.17902480312664368,-0.8718113252296749,0.19514201610873422,-0.6490188265712379,-0.2317501650602166,-0.9357695939608396,0.32712494077155024,-0.42216674057354364,-0.4657615161670691,-0.558348255330144,-0.4602732240846982,undefined,1498140349294
903d185fccf839df,-0.6071556848936974,-0.7172227177759994,0.6471761467550468,0.669400960107869,-1.194335192486752,-1.94616196412467,1.9547550781198382,-0.7230307493011704,-0.254856964306742,-0.046592868236836345,0.16294262634121595,-0.0048784941745144,-0.5737104500891266,-0.3151223041608026,-0.8423376087850261,0.6982733077272116,-0.5287500823293332,-0.3053326375758572,-0.9346431077583669,0.8553070215517494,-0.3499574536410863,-0.44096342730573956,-0.5961985143613534,-0.5708622207531152,undefined,1498140350805
903d185fccf839df,-0.09155827213440616,-0.8017529944174485,-0.14842422469900032,-0.19590595584088855,-0.8888088464997806,-2.029462545902359,1.9689165797230284,-0.6383531679478303,-0.3057610685330535,-0.24857287010717383,0.09873104522912413,-0.13771676936504024,-0.43445020053475936,-0.35771074494796695,-0.9465482758910287,0.6942322156950266,-0.5084552390489834,-0.4280397541804172,-0.971831157739184,0.8014432617500059,-0.43182532767306214,-0.4144994928244455,-0.5239796037339435,-0.5696316744276517,undefined,1498140352332
903d185fccf839df,-0.2856003064116602,-0.8498882681053909,-0.2371078545697899,-0.29871290833879044,-0.9311344905032586,-2.072050355170933,1.9767665624411648,-0.6392174482204974,-0.29323477765114186,-0.3905149567086098,0.10601660120852187,-0.06041187408716315,-0.7738970588235294,-0.487327445284835,-1.0139167569489347,1.043797346411417,-0.4825227700860911,-0.4651761351295104,-0.998719902103415,1.018730724230947,-0.40694561422232245,-0.3988541487655068,-0.6176474481932449,-0.5722571012702502,undefined,1498140353889
903d185fccf839df,-0.43113180624054337,-0.8616285680678186,-0.43425306826329574,-0.41687280837223417,-0.8777517266785979,-2.0816421621332597,2.01607690337405,-0.3695797351597663,-0.3149874394414484,-0.39970355766302995,0.10855492227421991,-0.02681085031944286,-0.8087121212121212,-0.6086116690812227,-1.0697062995358417,0.9609524865884881,-0.45230112724679156,-0.5678268197998533,-1.022865896132975,1.3125484649147963,-0.39627128204375045,-0.38637597208671276,-0.6451843221072054,-0.5899453629759863,undefined,1498140355299
903d185fccf839df,-0.2703541256258772,-0.8099711751631556,-0.42340650326190504,-0.45491954144285734,-0.6665863669029488,-2.0245338751402153,1.9734319789819144,-0.5812471744171614,-0.23536276622943014,-0.5803604437922304,0.05331418063501369,0.014798097052768567,-0.7695451760249554,-0.6910109138584087,-1.151811675627241,1.2034252725530286,-0.42191090465903863,-0.7495823019402261,-1.092001384258613,1.0854829867887648,-0.5479783667994743,-0.4121638003622091,-0.3933424938446567,-0.4647780288173886,undefined,1498140356794
903d185fccf839df,-0.7041767710431439,-0.9784446842199402,-0.8189737146828199,-0.8698720673566999,-0.31138010558052864,-1.9919617938891447,1.9377954761065463,-0.7529721044810804,-0.24221329079593354,-0.580728779591685,0.06872867026594322,0.040835685750367716,-0.8696384803921569,-0.8585868556613863,-1.1528643057280379,0.43155312162791465,-0.6150686223550745,-0.9347132435146556,-1.1637886637187453,0.28226927459836587,-0.8204293980750541,-0.4337707005183895,-0.502033693427717,-0.408193494192987,undefined,1498140358305
903d185fccf839df,-1.0673125312189489,-1.0635619466315185,-0.9153134742919388,-0.9588386728849644,-0.25873790606910774,-1.9577965131557626,1.924378196837067,-0.8399198450252116,-0.271586399720065,-0.6548120044171886,0.07279479030656141,-0.06641607957183573,-0.865286597593583,-0.9465410567388811,-1.1833906577951587,-0.3807312568624212,-0.8594548169602207,-1.0008925050375248,-1.2065111907604587,-0.20812501664100863,-0.9707332222227719,-0.4282963612224759,-0.47553893430848265,-0.38650797168182727,undefined,1498140359803
903d185fccf839df,-1.1366131961297365,-1.0846944865638883,-0.956784049972748,-0.9844814656766098,-0.34483947060272796,-1.9910696958463139,1.9236050262385809,-0.8993549023164418,-0.28293635952226315,-0.6704617517280181,0.0909104386480316,0.02596621494950776,-0.865286597593583,-1.0891194653142209,-1.2781276061394704,-0.8313267904366275,-1.1447356962654713,-1.1078242589195548,-1.2566783251254918,-0.7980240645217186,-1.1684350653193096,-0.4491562772508917,-0.5976651120653805,-0.4884092147806194,undefined,1498140361297
903d185fccf839df,-1.1740356932032008,-1.0788243365826744,-0.9650785717280289,-1.00352683892643,-0.427495328442934,-2.009058409880508,1.9266371912034475,-0.911132284814018,-0.28553159961948493,-0.6726980882194793,0.09015215165287573,0.007877175952690708,-0.9262129567736186,-1.1511503373325005,-1.3307592547428702,-1.067737881823447,-1.3420610115405536,-1.1818627033688942,-1.2998066675039053,-1.0561328072943081,-1.268745124828696,-0.47472380972534367,-0.6683976471157475,-0.5197514200074489,undefined,1498140362795
903d185fccf839df,-1.0382062519564181,-1.043603407467399,-0.9472142690052604,-0.9876230059332776,-0.47849181252318257,-2.0241402335918925,1.9239916057764543,-0.9316540822287662,-0.2584766510204537,-0.6142143368766617,0.09109844972327535,-0.050756866544697535,-0.9001016599821747,-1.1326336598429456,-1.3128644933342462,-0.9121510618463815,-1.244578861564215,-1.1420221550543048,-1.2785083755500897,-0.7557553300619488,-1.1793576162240367,-0.4636144993295671,-0.5527618666786619,-0.47299210758777943,undefined,1498140364326
903d185fccf839df,-0.8815866112363991,-0.9937070741710963,-0.8585306391344708,-0.8704494811082781,-0.4847558108779173,-2.03103478166588,1.9478360563030506,-0.7491466254241895,-0.3200729410153773,-0.4815769858052394,0.08638426591931272,0.04322654440102518,-0.8304715352049912,-1.0520861200481917,-1.269706541405836,0.2618220838320996,-0.7716156676683987,-1.0949050542273884,-1.2215823220188786,0.1411887122903489,-0.9305886396572354,-0.447223794371741,-0.37625569503729095,-0.15552747500555988,undefined,1498140365834
903d185fccf839df,-0.1733330912345453,-0.5634246567422304,-0.6084298927418136,-0.6204022676067455,-0.7317051155136651,-1.9360041507417316,1.919236926351791,-0.862074674998485,-0.4877244319260603,-0.47913440761556864,0.07103801874561332,-0.027966755583709417,-0.7564895276292335,-0.9733902301950784,-1.0897063340299684,1.389321194308752,-0.17397332565550244,-1.0490165445237163,-1.1401884211027271,0.5271815461771366,-0.8055344921284139,-0.43932513822382435,-0.3754586148330956,-0.12110962632459686,undefined,1498140367297
903d185fccf839df,-0.15115687846309325,-0.257589535827068,-0.4731716006979952,-0.5308915918796031,-0.7240319893999775,-1.8007685228238353,1.8732337392702532,-0.977571413167087,-0.2723637176139895,-0.5537754117928169,0.04466477133728634,-0.05643431658121285,-0.7477857620320856,-0.9502443987121794,-1.0391799529903962,1.292332010674368,-0.24646814956114801,-1.0237291002925468,-1.1107248503970493,0.5861883884407288,-0.7715669674253188,-0.44800353867326287,-0.4268249367130405,-0.19171098883139925,undefined,1498140368793
903d185fccf839df,-0.2911443250991134,-0.8357999227644737,-0.6467105414334602,-0.7221708305087555,-0.6449761223083981,-1.6473671570983468,1.8678347564257138,-0.8437914785235592,-0.30634808654431006,-0.6506917815404952,0.050357994915929204,0.07740597013516598,-0.678155637254902,-0.9502443857614049,-1.0602326139042029,1.0720857537841941,-0.40194711911882325,-1.0086756929000895,-1.091798477018457,0.7357226930985166,-0.726168725361819,-0.45579155903619795,-0.4730453879806919,-0.26901367685710353,undefined,1498140370318
903d185fccf839df,-0.43113180624054337,-0.7882516494606566,-0.6773350603867776,-0.7285416780046697,-0.49316951559456684,-1.6699281698196924,1.8634771589924304,-0.885669928855821,-0.29938394436664645,-0.6335894046959724,0.0539890637709811,-0.028712620070337057,-0.5650066844919787,-0.9317277115095435,-1.0749694684454103,1.1630131933775947,-0.3516576418188962,-0.9578918174624969,-1.0970111007423236,0.9034117637662555,-0.6680731736234197,-0.47403651059816637,-0.514894166731084,-0.29651313861942263,undefined,1498140371783
903d185fccf839df,-0.5032046357694014,-0.5739909997783962,-0.5369731901246385,-0.6562321059085245,-0.8577048991555821,-1.8114178067114706,1.9066243816074928,-0.8550744643004827,-0.2728454409382138,-0.4554805743576286,0.034831577287817425,0.04341489903641437,-0.5954698640819964,-0.8650676790225326,-1.09707475209778,0.2820281658168989,-0.669710485121841,-0.8971398874752324,-1.1124250754584333,0.2963280545638608,-0.8013277277014512,-0.4714533245322426,-0.45505548503439086,-0.41711019413020506,undefined,1498140373299
903d185fccf839df,-0.14422677746660476,-0.7982308752007279,-0.23838362205589536,-0.2908640872746539,-0.7946535715605327,-1.9234099570791494,1.9467657320547163,-0.6900869153444091,-0.35460110396504746,-0.5177480266975893,0.046353540079157804,0.00606002598231301,-0.7434338792335116,-0.7669292802336567,-1.0949694882150696,0.07996743076307089,-0.8007313054451587,-0.8274268426384652,-1.1165741839840984,0.20212036364069133,-0.7919197995211584,-0.42976680876589024,-0.31806920353870927,-0.4726430525226555,undefined,1498140374802
903d185fccf839df,-0.018099429307332358,-0.7283760027403058,-0.17841035163536612,-0.27283344838264467,-0.9345904867127062,-1.9538437954955412,1.9581370148017825,-0.6571514549549698,-0.3848012847176032,-0.5371977900773101,0.04192887893176499,0.008159859892614075,-0.7477857620320856,-0.6928625767508237,-1.0770747360092376,0.4659034638285455,-0.6072614896714258,-0.7491643244241054,-1.078777411493713,0.8859499297264976,-0.5999501581640815,-0.3918609095810134,-0.297364310003759,-0.4419851767198262,undefined,1498140376296
903d185fccf839df,-0.23154568426501662,-0.9156340063509709,-0.5975843442882205,-0.6308885323070424,-0.7413530985775513,-2.0120491533352354,1.969681855149754,-0.6157948755073936,-0.3478114236654832,-0.826541511254101,0.07761327816148744,0.010370669642728871,-0.7826008244206774,-0.6539775524039113,-1.071811574461903,0.5083361879465973,-0.7103441073724378,-0.7673272070957222,-1.0834512811042798,0.9607093807258169,-0.5858474997618451,-0.38073325598607655,-0.2894242864351038,-0.4431323848722183,undefined,1498140377791
903d185fccf839df,-0.6556662365947731,-1.0659099773960117,-0.8534265526422513,-0.9002110693011266,-0.7608547822590336,-2.0591626751801426,1.9531561555188979,-0.7955648834882846,-0.32825909268351294,-0.6763996241786782,0.07948860015177887,0.0643501162925849,-0.7782489416221035,-0.7011950694797724,-1.0749694647642933,1.126642248631428,-0.32909433604834726,-0.8483762202513012,-1.0998168217998812,0.5677872488383406,-0.7119233362532329,-0.34820604157658136,-0.11517468826806167,-0.3407966417324991,undefined,1498140379411
903d185fccf839df,-0.7928816911397716,-1.0723671716033392,-0.8846894636125202,-0.9449087200047701,-0.7802433156210999,-2.0370116104421054,1.9288304441495625,-0.9591011486947223,-0.2885486606510744,-0.6486767499343997,0.0848238600345784,0.015365901704239685,-0.9349167223707665,-0.8715485088590661,-1.1749695820181736,0.8397158533560849,-0.5104515413015973,-0.9488547051018821,-1.1339262749032042,0.29715957126415127,-0.8201305699462486,-0.36427070963806524,-0.19909976002921684,-0.3213892097505083,undefined,1498140380857
903d185fccf839df,-0.8427781698755387,-1.0083824783521234,-0.8923455933508496,-0.9362929931503026,-0.8913082725985761,-1.9991964119245582,1.9235918819351108,-0.9945786347717018,-0.3107735656715264,-0.6446979252257025,0.08899218809825017,0.11004267024562163,-0.9218610739750446,-1.0048685835461688,-1.2623381159757907,0.36891430139270276,-0.7138805383235992,-1.047585297824166,-1.1983179256948835,0.13834000462151885,-0.9125066806955656,-0.3930731876737901,-0.34079989778582487,-0.3328759816787376,undefined,1498140382299
903d185fccf839df,-0.7097207897305972,-1.0400812882506782,-0.8980875635861219,-0.9349861665531852,-1.1977809008285958,-1.9667664147505153,1.9264794134708465,-0.9934483204648118,-0.3093400890915929,-0.651996518631791,0.09027702682928194,-0.052052655404943284,-0.8261196524064172,-1.1215236533492126,-1.2876013046550185,-0.4615555353383556,-1.0652027609587964,-1.1526804982889023,-1.2660120711714176,-0.5386372532676147,-1.123148936268629,-0.4726223675310405,-0.6420302653761635,-0.49004426924665423,undefined,1498140383790
903d185fccf839df,-1.0603824647278701,-1.0788243658106669,-0.9618886447388664,-1.0095839290838464,-1.50845009663514,-1.9583741658916094,1.9425291171035002,-0.9398172432676964,-0.27908291603916596,-0.6647684840367479,0.09245625480665666,0.04092727702377371,-0.7347301136363636,-1.1243011509255287,-1.2949697374472975,-0.6333072110106082,-1.159775843764872,-1.157214886056038,-1.2743592664494205,-0.8254948931768533,-1.1970124148125787,-0.4734573467964892,-0.6474189762734588,-0.5034502146374802,undefined,1498140385309
903d185fccf839df,-1.0839446907975379,-1.035972212491821,-0.9504041959944229,-0.9964606682026637,-1.5854693964132849,-1.9194222982062785,1.9298455723795314,-0.9766695697498641,-0.3037814408317039,-0.6582514267090254,0.1105258660622849,-0.07341485354803885,-0.865286597593583,-1.095600308101529,-1.2939171036653838,-0.6818017780961687,-1.1640040713868596,-1.0693262929371325,-1.2391653082596845,-0.6802567564409812,-1.1226151182316066,-0.3457095848087582,-0.4356680896662366,-0.36018458018403193,undefined,1498140386802
903d185fccf839df,-1.085330773106573,-0.9479199043176281,-0.7015797253617699,-0.7540070043842775,-1.4686855907381218,-1.9603423721006366,1.9277838033214676,-0.9895099587144837,-0.3217873453012278,-0.6659417726875608,0.14809688245487715,0.16357976773117366,-0.5998217468805704,-0.9872777504535959,-1.2802328773844147,-0.49792644475362013,-0.9996950172259902,-0.959057077986267,-1.2157399859278173,-0.2867032836591727,-0.98200662297354,-0.2967745169776199,-0.17871325114803813,-0.3036175466656175,undefined,1498140388293
903d185fccf839df,-0.7138788641306542,-0.5745779709345291,0.2069486868011096,0.17941568759786805,-1.196618614978706,-1.9328853010540252,1.9113185865514704,-1.002263219776461,-0.311873938468551,-0.776426241882698,0.23741746498480798,0.10465249160513636,0.11823891488413549,-0.6400900450961685,-1.1802327546088591,0.5689544762980774,-0.17614509260271177,-0.7401652129645045,-1.1164132580312798,-0.011764040538822197,-0.8051041123963032,-0.18925164478558695,0.021776881092716832,-0.2233951775392547,undefined,1498140389793
903d185fccf839df,-0.6071557366518121,-0.6127339896544078,1.1728978178645098,1.2277434157469567,-1.0949650723358306,-1.9540674030185843,1.9817368951775425,-0.5282859244294758,-0.24366423644137,-1.0060582492461416,0.21762578778746453,0.16927110395362216,0.4054631795900179,-0.07162805102336894,-0.9128640022320238,1.152910081723391,0.07909550592506573,-0.47984323030558385,-1.0256786140381116,0.3754606687548093,-0.5831327243892133,-0.1455818994515462,-0.04855068943854712,-0.32746181795227225,undefined,1498140391306
903d185fccf839df,-0.5780494228838715,-0.6209522288560996,1.8249453755194576,1.9067003977915193,-1.0969193568816888,-1.8942688445880227,1.9548839390133175,-0.6427260557296723,-0.31535834151423725,-0.9849947048529245,0.18456245544007424,0.18325283483703464,-0.7738970588235294,-0.03181715637792535,-0.8002322869574128,0.9569111119090877,-0.22516546652941863,-0.24043262923075123,-0.9315994954429726,0.5957662289260515,-0.39453432371965996,-0.19938839092849242,-0.34299664768616156,-0.4902464423319536,undefined,1498140392802
903d185fccf839df,-0.5766634440910655,-0.6479549187696834,2.266449619507298,2.2036478455504245,-1.2047546085100032,-1.8887671798710894,1.917772116394844,-0.8915895316457237,-0.30784399091883,-0.9564112139773684,0.07330972551758551,0.03450260673182326,-0.9044535427807487,-0.06144386626276252,-0.8433902462480567,0.7669739921284734,-0.5161106291511969,-0.10357771893686056,-0.8931170354744385,0.7542932244051643,-0.2816550281239791,-0.23652792847043846,-0.5417984140634771,-0.6249808488709623,undefined,1498140394380
903d185fccf839df,-0.5045906490676172,-0.5698818071075695,1.6290759293120571,1.5524000928385435,-1.072027973461484,-1.870228764375762,1.8849232062384629,-1.0513435202118955,-0.3485962686797062,-0.7311713288138872,0.05356300020811813,0.02788231811356186,-0.8957497771836007,-0.10125474148204429,-0.8570744743695843,0.49621260093810515,-0.46611148062722807,-0.011224401748996738,-0.8585178057932599,0.5588869485146835,-0.27936205262539726,-0.2656107167808941,-0.2858939565929548,-0.530562783232634,undefined,1498140395799
903d185fccf839df,-0.5129066598460922,-0.477720393946527,1.4415002424490895,1.3313234043705082,-1.0171332069588104,-1.862907966037279,1.9393233762060975,-0.6661540220209402,-0.3357248354080871,-0.790786535749031,0.05084425330334326,-0.002335843850789227,-0.8913978943850268,-0.21698397660118676,-0.8381270442084361,0.3487081770108212,-0.5696356845902535,0.010529260740687855,-0.882348944000129,0.6483827092886469,-0.25265682708405024,-0.30315675665525166,-0.4435248717322681,-0.5578847983685324,undefined,1498140397297
903d185fccf839df,-0.4976605480711287,-0.4876996781425829,1.1224948366853669,1.1059802644471115,-1.116297610948384,-1.8680695607891624,1.934095319063956,-0.7348482223443558,-0.33465096475300593,-0.671482919793148,0.03539247560674002,-0.007067730250172669,-0.8609347147950089,-0.23364895558369675,-0.8718113325919087,0.4396356166042217,-0.5372465822355745,-0.0481201308051291,-0.9292485681261825,0.6348782749746955,-0.28722643980235485,-0.31738254802578414,-0.44943493359987546,-0.5316749719466544,undefined,1498140398794
903d185fccf839df,-0.7221948749091293,-0.5405310718154963,0.6095336359434022,0.5808927134720864,-1.2515339550900333,-1.899143940742942,2.008063864460994,-0.3256859719438962,-0.2803152851640465,-0.7338113346285688,0.012437192768007217,-0.006170235067795767,-0.852230949197861,-0.17902476427432004,-0.9223376878636628,0.5002537212350118,-0.5442284551855808,-0.1335388712501257,-0.9515613975653605,0.8368904773381775,-0.28330788812840185,-0.31717669783785407,-0.6176597906418203,-0.5235742581408372,undefined,1498140400299
903d185fccf839df,-0.6279459016196386,-0.6743706229131381,-0.25497215729255834,-0.3390700527807684,-1.17426779837091,-1.9748605192191082,1.9747468576682579,-0.632045222413193,-0.3021510591245314,-0.6939223943957514,0.03773651227836609,0.02537256354098917,-0.9262129567736186,-0.3086415164142863,-1.0097062291835135,0.694232243959748,-0.6758632278847008,-0.36960567753177553,-1.0073609638236132,1.0285087326467768,-0.35966035186149026,-0.4023583581358526,-0.7181231783488123,-0.5821266341653273,undefined,1498140401795
903d185fccf839df,-0.4865723726745832,-0.8041010544099341,-0.2773021544905948,-0.33396957590928195,-0.8835939979912486,-2.0097897912458924,1.9391077234181435,-0.84538066851243,-0.2950543409847072,-0.5677080747012871,0.04712818533659376,0.05915473414444658,-0.9566761363636364,-0.5012150011579825,-1.0370746927888026,0.9932821555817796,-0.6658639657550516,-0.4952829439237525,-1.0324585240528794,1.454722305945029,-0.3115648633399564,-0.4408644240563832,-1.0271158241382838,-0.6363571171875462,undefined,1498140403298
903d185fccf839df,-0.6029976622517551,-0.7958828444362347,-0.44892744399690165,-0.49234723393908963,-0.7677770492820779,-1.999965060909036,1.9732925684964477,-0.597675955744653,-0.28693788127893194,-0.4660004488638623,0.10083316144012824,-0.034339880019535245,-0.9305648395721926,-0.5789850109994836,-0.9970746422061335,1.2014047971987398,-0.6279376701554501,-0.5975409868446203,-1.0049960413619214,1.3144578678018095,-0.38080805504692883,-0.4775381889394874,-0.869640411887541,-0.732036810911069,undefined,1498140404798
903d185fccf839df,-0.3008464181866237,-0.7277890461981691,0.4098358707298877,0.39561586255056785,-0.7891610164598446,-1.9545006405264145,1.9828676949540833,-0.4853591754861682,-0.27137667612155814,-0.21179922781136376,0.10276068448942063,-0.059804767806755525,-0.7434338792335116,-0.49658575974691027,-0.9444429788782662,1.1973635355782255,-0.62303773565253,-0.5568898224757012,-0.9695781849978006,1.3553715335427596,-0.34871773148728546,-0.419307207488475,-0.8205915570757287,-0.779980264674974,undefined,1498140406293
903d185fccf839df,-0.578049353873052,-0.7477475269063039,1.0969741500873196,1.1004645359614833,-1.0171949222633334,-1.9368799456190686,2.000624147843535,-0.4073546949615403,-0.2115945827428036,-0.15515647854658915,0.12888071744126564,-0.0454455945726096,-0.7129706996434938,-0.4493682329579683,-0.9360219233474241,1.2256519429510027,-0.607464491232566,-0.5056626423261007,-0.9693822746663944,1.042043965938279,-0.39181374772360533,-0.40309525239473615,-0.8134100520669064,-0.7294746639484877,undefined,1498140407795
903d185fccf839df,-0.45192200571377966,-0.720157851222591,1.466383045304084,1.4388080819318334,-1.03290118189114,-1.9530262311397353,1.9743681733021452,-0.5886867920246096,-0.14970711580057625,0.1743209028230579,0.1956971454009038,-0.049238440925129405,-0.9697317847593583,-0.29845731222751803,-0.9065482216272429,1.082188893703119,-0.4177802877618867,-0.33434385035286,-0.9433401447546795,0.8401703478337135,-0.3522034988099675,-0.3982179600909839,-0.713501113925645,-0.6431734573041964,undefined,1498140409362
903d185fccf839df,-0.5045906145622074,-0.5939494951005272,1.2143686476822684,1.2502448768963628,-0.9569618790777156,-1.8892726259171018,1.9858446492352797,-0.4001355417042605,-0.010399845469429701,0.07189056080985602,0.23191748075908622,-0.0049031060111602255,-1.013250612745098,-0.20679979831596762,-0.8791797727464216,0.37497602423514503,-0.4901625066180263,-0.25741125077029586,-0.8802499012570761,0.37941806259758626,-0.40673938221388195,-0.42791280421235295,-0.41269353148062216,-0.558502927758214,undefined,1498140410793
903d185fccf839df,-0.49073041256923045,-0.4196058799045173,0.8634621930682748,0.77937179691405,-1.02260519956574,-1.7707912159193202,1.9654268300030096,-0.3861713058374965,-0.10531745138165463,-0.059148855398612595,0.16322533754791624,-0.006029156578772231,-0.9697317847593583,-0.30401235270786137,-0.9349693079710949,0.37093490393823836,-0.6341701656668718,-0.31676993132143394,-0.9007435596114015,0.2645456601337059,-0.4604481828881068,-0.3842851520542342,-0.43157076972109315,-0.5274701715816514,undefined,1498140412295
903d185fccf839df,-0.773477504964751,-0.4941567846659335,0.5010715438467871,0.4120502623706896,-1.072315972798514,-1.721115531295378,1.9460135988364173,-0.4515219323446354,-0.17661318112375265,-0.35194972189891366,0.04380294829889672,-0.039434087137216585,-0.9044535427807487,-0.3493781907028392,-0.9560219320737325,0.1446267404849322,-0.685396808679702,-0.4104784985282363,-0.9136806622495008,0.13506013522989205,-0.5386681762193326,-0.41977967779968245,-0.45707735690595563,-0.5029810415340473,undefined,1498140413800
903d185fccf839df,-0.8150579039112236,-0.45306567634145173,0.3243426761221595,0.2581448069742781,-1.3211372698621087,-1.8110358102891886,1.9036737243134119,-0.9015399127801028,-0.2890614731056359,-0.6494730846969505,0.040524085017477104,0.0007359151106891931,-0.9001016599821747,-0.4678849266359915,-0.9749693327859456,-0.05137217279992814,-0.7455127350808497,-0.43432836483808107,-0.9047037531362084,0.049383186086060196,-0.5629048254281261,-0.418924632995642,-0.49597950713229233,-0.5349331980219658,undefined,1498140415292
903d185fccf839df,-0.8150579039112236,-0.5933624362604173,0.3568813545785339,0.26076239691778014,-1.3089795721496456,-1.9027169940537791,1.9422871699472355,-0.7716672521786474,-0.3004417911981613,-0.7123553185489963,0.12697463208290594,0.012543950606207705,-0.8565828319964349,-0.5113991276401034,-0.9497061514689517,0.21938933144932624,-0.6028902795354601,-0.4735609515340941,-0.8998199792849803,0.45559417160109955,-0.5007056757615257,-0.47114218330213803,-0.27577571222358804,-0.5902148656309069,undefined,1498140416800
903d185fccf839df,-0.7526872364806952,0.18149803350363786,-0.191170567865915,-0.4179585181862255,-1.3368846673007726,-1.7328851738335909,1.9022036636534727,-0.7315057775292632,-0.33809211526947053,-0.6341546987006906,0.03925029773490087,-0.04104304092431746,-0.8217677696078431,-0.6252766869160563,-0.9749693401481794,0.023390276840858204,-0.7628326924442252,-0.6523589500678482,-0.9857967908482246,0.34812841809861694,-0.6358520336752589,-0.4394550481649144,-0.3306675150932503,-0.539540564025163,undefined,1498140418292
903d185fccf839df,-0.5586451331926218,0.0036324013888804478,-0.6773355686606765,-0.7811489354155903,-1.2910001725941076,-1.448908986391446,1.8006537081040626,-0.8864418965014909,-0.2959619110140271,-0.7530877535374935,-0.03535359162646413,-0.06121278960884045,-0.7826008244206774,-0.6586067096349489,-0.9970746458872505,-0.14634073269023526,-0.7735087985768648,-0.7140038234581615,-1.0001402536408948,0.3987893045188744,-0.6580546182126249,-0.4504725716785473,-0.3223724601980701,-0.4819326195676324,undefined,1498140419794
903d185fccf839df,-0.20659741039172336,-0.413148714925182,-0.6690415551792944,-0.8100050796925008,-0.9921389589802443,-1.3728453508337422,1.7855559985628577,-0.839398678370025,-0.5879412859088231,-0.5035534828861578,-0.06882134566502708,0.055144482804547486,-0.8826941287878788,-0.6178700094448469,-0.9907588395146513,-0.19685589525515113,-0.7371783823611018,-0.6853599197423743,-1.0034427483073989,0.324907563106044,-0.6519184400772625,-0.45013250726353177,-0.37598327867621073,-0.4761808469904985,undefined,1498140421293
903d185fccf839df,-0.19273731191497556,-0.07385363681912736,-0.5561132603335125,-0.7229767466250007,-0.8660774572630826,-1.5378137189980412,1.8203483319075913,-0.88309929626352,-0.5311782147513604,-0.5633316275967332,-0.08694049413491955,0.04994394002552326,-0.6302849264705882,-0.817850139282816,-1.0181272957577063,-0.008939279093547086,-0.8214924105227399,-0.7987576101931346,-1.0520495941405519,0.5734076732276887,-0.671834623914395,-0.48056184438894833,-0.30114956231338313,-0.4193562088486459,undefined,1498140422801
903d185fccf839df,-0.06660996375570316,-0.5980585854733808,-0.6301225144706961,-0.6852630913575607,-1.0721102548747072,-1.8011854558469587,1.9169016545909427,-0.739682727451865,-0.4018554008370081,-0.6043203050690128,-0.030970032163495805,0.05038557623943714,-0.7782489416221035,-0.9085818606004826,-1.0507589098669794,0.04359641535510054,-0.8599884596626475,-0.9074182572174028,-1.0780567401324588,0.5378064729427328,-0.7183418221972914,-0.4845167737399142,-0.6456681658743171,-0.3805433939667504,undefined,1498140424359
903d185fccf839df,-0.6390340080053646,-0.7647710203078089,-0.7621908795253519,-0.8308666854635156,-1.21143002281917,-1.8526034122593602,1.9225162813195007,-0.8697224823269096,-0.33003883901289643,-0.6323267698001213,0.05808746273219986,-0.009144394293922446,-0.9131573083778967,-0.8983976985037316,-1.060232606541969,0.15877111375965,-0.7751016581729839,-0.9073549277917022,-1.0929949316477836,0.36403501787187637,-0.7600794155813988,-0.4802571598053606,-0.6114709348613707,-0.3682383261714954,undefined,1498140425795
903d185fccf839df,-0.7291249759056178,-0.5681207621132053,-0.8074897742122753,-0.8816649984578074,-1.143174138518217,-1.8827926817307623,1.9275207967870578,-0.8560821403757961,-0.3734806127253444,-0.6760918282839165,0.05322883417378419,-0.07760317147497246,-0.6999150512477719,-0.710453416318784,-1.0812852674557756,-0.06955760984210947,-0.7238146656881416,-0.863188978247834,-1.1026085498779767,0.0947470031667905,-0.8015076873413748,-0.4403653836287174,-0.5720019344287668,-0.39739674791844315,undefined,1498140427275
903d185fccf839df,-0.6625962685804422,-0.6385626495717488,-0.8234399174319866,-0.8678538502725817,-1.2611305097067367,-1.8144132060270473,1.905619783066597,-0.9562309301998776,-0.41074686485983725,-0.6234232964101196,0.04972182376355292,-0.0065965418334896775,-0.7347301136363636,-0.7687809690276208,-1.0423378580172542,-0.06955763810683101,-0.7267498688140459,-0.8858229174116398,-1.0375242153294568,0.05461865376835088,-0.8002375722457057,-0.40083585728265375,-0.6084695054893678,-0.43800826646918356,undefined,1498140428822
903d185fccf839df,-0.8427781526228337,-0.5951235397107661,-0.8393905689255969,-0.8829708862696117,-1.397981707353183,-1.7795957391208637,1.901314805795587,-0.9536947025127392,-0.45793860631261435,-0.6230018645529753,0.04784884192925818,0.008869524383627259,-0.5432472704991087,-0.8928426936380183,-1.0254957322311025,-0.756564263067857,-0.9791054757436596,-0.9348778991367178,-1.0508181554813103,-0.7316567644597514,-1.0030350535170762,-0.38998379440969405,-0.6309098072727062,-0.4716384602020509,undefined,1498140430349
903d185fccf839df,-1.103348928730673,-1.0289280325143642,-0.9044674175644469,-0.9666856043571134,-1.7769170739339208,-1.6243892150723185,1.872655181460729,-1.026746875207183,-0.2909592845547012,-0.6928004279746709,0.09193100615132467,0.09436976424242514,-0.499728442513369,-0.9576510632326142,-1.0254957175066348,-0.8050588513519588,-0.9097323149754611,-0.9525848095424357,-1.0604177800224626,-0.8007033946082519,-1.0295222055634048,-0.38212969847912315,-0.6127875336689356,-0.4505527839908612,undefined,1498140431816
903d185fccf839df,-1.0784006721100847,-1.023644839075287,-0.9421101825130409,-0.9988787113726212,-1.7837570620063832,-1.6366759520593244,1.8866720454447017,-0.9556942356611177,-0.28532282347001664,-0.6829770694732878,0.08773673322320487,-0.04457619470958023,-0.8087121212121212,-1.0678252902483496,-1.149706393338946,-0.8535534820331429,-1.1661618494999628,-1.0361290027228374,-1.1346539436319876,-0.881298858572221,-1.1047225445491173,-0.3977798965471604,-0.6464715265312434,-0.4740410052980373,undefined,1498140433341
903d185fccf839df,-1.1851238082152793,-1.0013382691466743,-0.9255221555502767,-0.9915701061995493,-1.859871220343116,-1.651774080831665,1.8932833682097419,-0.9389911790874742,-0.2883516373804952,-0.6843524817302988,0.08650829621253475,-0.09036925165721245,-0.3125974821746881,-1.109487815409272,-1.2328643958500252,-0.9202335214917867,-1.2524983960794855,-1.1275830434587777,-1.1912161630771332,-0.940028529383197,-1.181714568844838,-0.46437069817843885,-0.6676203675280091,-0.48075033300630476,undefined,1498140434865
903d185fccf839df,-1.1075069686253203,-0.8305167877813813,-0.9095720123305653,-0.9860909913934245,-1.731145724141264,-1.5885561983033016,1.872568385899928,-0.9325367319763481,-0.24088930198075223,-0.6970771830511772,0.0546472865497136,-0.09888997707135748,-0.5693585672905526,-1.0826386322399937,-1.2581275808481358,-1.0131814788365583,-1.257258095180694,-1.0309929859928955,-1.219224396698385,-1.0803545635429448,-1.1719220516041016,-0.4067322335464097,-0.6637720577193327,-0.5155854312236068,undefined,1498140436352
903d185fccf839df,-1.0894887957485155,-0.7999919494230844,-0.8910693175908453,-0.9623074254186456,-1.6948886424187506,-1.5093411020027443,1.819072871466353,-1.1257054611298778,-0.26291439496738245,-0.7242488208526386,0.051625815491977096,-0.03530466623543242,-0.9131573083778967,-1.0141269239097932,-1.2507591590992075,-1.0030784378441586,-1.215599120117908,-0.9843508554988505,-1.1934131614599617,-1.0118006849545695,-1.1288374676108712,-0.36893947836401536,-0.6093276793795348,-0.4222885273285066,undefined,1498140437799
903d185fccf839df,-0.748529196586048,-0.7131136712451344,-0.6352271092368145,-0.7754175640581003,-1.2886036086430455,-1.558835105618863,1.840192846652134,-0.9921895178417104,-0.45777523709506485,-0.5390560091186132,0.0069292162591469385,-0.027279525614734266,-0.9566761363636364,-0.7919267875597453,-1.047601015883472,0.5649132146775632,-0.42127432463572406,-0.8406120326316184,-1.0876633613193272,-0.28316164504328484,-0.8840577031458268,-0.29517500285680404,-0.45187437800629826,-0.23405511388901717,undefined,1498140439298
903d185fccf839df,-0.6182437395213088,-0.5587285513712554,-0.2798541977367046,-0.35212317361023343,-1.1693512367509296,-1.6629847078204365,1.8276197311519196,-1.1872183675099703,-0.4708492065944937,-0.7594610143611047,-0.05442483601478676,-0.03510882171745475,-0.7956564728163993,-0.5076957953798861,-0.9833904140846059,0.7568710571287796,-0.3489516609852366,-0.6922248294373807,-1.04153338698918,0.004219541566871108,-0.7425259994341257,-0.2801754175824318,-0.431466934831823,-0.2797780431779637,undefined,1498140440798
903d185fccf839df,-0.6722984306787719,-0.651477037986404,0.2930802734257894,0.2624117141964656,-1.0186657762296494,-1.7419412583915843,1.860723733815557,-1.0488882743732753,-0.31134069240464085,-0.8761357151459235,-0.10113331775855999,0.011781392447160643,-0.6433405748663101,-0.32715817771537314,-0.9086534891910704,0.653819995195985,-0.5915410919447919,-0.5398098729293052,-0.98530701485149,0.20118105713569914,-0.611996003047559,-0.3295284980122073,-0.5410392777010875,-0.38327914204043,undefined,1498140442299
903d185fccf839df,-0.5697332740837575,-0.5587286098272402,1.0306210256884654,0.9002360878519228,-0.976000707866851,-1.741123695271634,1.8171609928255423,-1.2608064289000966,-0.32229862413309257,-0.9294129841484544,-0.23865902782414417,0.03965916758215639,-0.6172292780748664,-0.13921392790736192,-0.8633902844233003,0.9367051147184531,-0.5093736396912579,-0.35899166466484317,-0.9546329962862242,0.5953350675532749,-0.4499225535340219,-0.3014050706706539,-0.3031618843975139,-0.3345378064203033,undefined,1498140443792
903d185fccf839df,-0.1761051178309768,-0.4859386331482188,1.4536228290735351,1.3557785279696848,-0.8090946971083413,-1.7677375820158479,1.8638821379887336,-0.9281894706434957,-0.27105723341130566,-0.42844951419654737,-0.2714095241362515,0.11175701659269104,-0.8913978943850268,-0.10310640437445934,-0.869706072390315,0.556830846892503,-0.5755587394680148,-0.1311196864608454,-0.9158846573392158,0.7920348086475414,-0.28437701428358214,-0.3325037846233781,-0.5302733405419103,-0.5396921246204494,undefined,1498140445304
903d185fccf839df,0.05258724890167101,-0.5546194171564134,1.8370674538700043,1.657604605065839,-0.6121338831923614,-1.8541430391390894,1.9114868842835673,-0.6783594480550451,-0.27397552839633643,-0.7227238633042307,-0.18946768645126638,-0.004626635225449914,-1.02630626114082,-0.0281138435438698,-0.8791797653841877,0.2800076339331671,-0.3072932318228071,0.0032590465758243975,-0.9033813570427581,0.397757615620525,-0.29070022430889414,-0.3718922829887966,-0.28144021603257585,-0.5048381204487843,undefined,1498140446795
903d185fccf839df,0.05258724890167101,-0.6849369221073155,0.9680962202957252,0.8736361791249924,-0.6017556140903407,-1.9129912680702428,1.9051806166252663,-0.8236163424570202,-0.22098137663942194,-1.0111343125159518,-0.050124653259217784,-0.09839416938857351,-0.9523242535650625,-0.005893837031791013,-0.8812850255857814,0.43357371004108947,-0.29273215848593165,-0.02350397284563075,-0.9253373494697812,0.3771390959832641,-0.31142891975921005,-0.36851569622644814,-0.22830838723788047,-0.49515509991874107,undefined,1498140448307
903d185fccf839df,0.14545020889294588,-0.6608692633423501,0.743516160501115,0.6890581200762123,-0.6553646681991369,-1.9242671137272143,1.9330775929799386,-0.6758710139921739,-0.2125418132880619,-1.6078712684397292,0.048497368989699655,-0.07323677309042746,-0.4823209113190731,-0.01792974296329794,-0.8539165914294277,0.6154285044337259,-0.19177028052938844,0.022758179654677666,-0.8794102823920242,0.5524196010368362,-0.24480442227591753,-0.3560371766811654,-0.30816371581020874,-0.5262146107195651,undefined,1498140449854
903d185fccf839df,-0.012555445125288818,-0.6632173087208394,0.8947248499015943,0.84220187843202,-0.6631303676887186,-1.8995282628241745,1.9471233926584248,-0.5810902646889129,-0.2102341430396199,-1.1544834083159843,0.032714847166958605,0.020581311149479076,-0.5127840909090909,-0.06885053078319726,-0.890758718579654,0.4719652573327916,-0.3209748477654376,-0.03231309990379598,-0.9101332784927342,0.3951552758495752,-0.3026742570421089,-0.33926020605180734,-0.4307872285347223,-0.5623633789481566,undefined,1498140451302
903d185fccf839df,-0.15808697945958175,-0.6884590120960438,1.0574177339095674,1.11442910902441,-0.7290616875897928,-1.881315941603989,1.969350507245987,-0.43418377175849837,-0.23785190176623056,-0.891612342408428,-0.0003111370912584502,0.006519840400557485,-0.5301916221033868,-0.13921392790736192,-0.9033902871514496,0.5628926686614706,-0.45648528721088066,-0.09980327933388888,-0.9464187406534437,0.45451628320655746,-0.33320426426646405,-0.41837113246224794,-0.4456577755573645,-0.5872342082255864,undefined,1498140452795
903d185fccf839df,-0.3216367556814989,-0.7389423311624754,1.6144018077154005,1.3596993039041296,-0.7506205085344104,-1.9064600793988453,1.9452904107403286,-0.6437346154121738,-0.305891867572123,-0.8298904916126691,0.08370589562836003,0.09042883111021854,-0.8130640040106952,-0.20217062165876817,-0.919179804923506,0.6396757349801533,-0.4563678297673122,-0.06267323148903643,-0.9430602710105613,0.4674663765538492,-0.31513101872454113,-0.4313936303661223,-0.4252168057893581,-0.6025967507760448,undefined,1498140454304
903d185fccf839df,-0.3008464181866237,-0.6438457845548413,1.4548988506965899,1.4845933396259465,-0.742926804692996,-1.902507362405479,1.9713859709367616,-0.46082460243309437,-0.24298935947534692,-0.8231534204145158,0.0989995183461459,0.007187280074596476,-0.9871393159536542,-0.14847222941866262,-0.8770744683714251,0.718479502770897,-0.4336769154010612,-0.0038148513125023887,-0.9240079546018775,0.6521707293185738,-0.24927164639465244,-0.4277872515159435,-0.3698512181863645,-0.5877841405256908,undefined,1498140455788
903d185fccf839df,-0.16778910705250175,-0.5874923155071958,1.1684316151153429,1.020986457850134,-0.7256056893198088,-1.8839759359293498,2.010165089474947,-0.17785512902974837,-0.20324320722781924,-0.9925066261086868,0.11181863268110243,0.0014945129450404187,-0.8913978943850268,-0.20124474488484972,-0.863390262336599,0.5628926121320275,-0.4852821982706319,-0.007570287095905798,-0.9335865892364669,0.5999545989120306,-0.26432735115635503,-0.4220434236240303,-0.35949306726508273,-0.5426718365184253,undefined,1498140457299
903d185fccf839df,-0.2786702744259911,-0.49180872467344794,0.46853286539041267,0.48664838270741706,-0.737393100266451,-1.803030215036251,1.945408749277388,-0.4667062083005015,-0.26439638016093764,-0.8751524552041298,-0.04517497763141348,0.04297840622096654,-0.7738970588235294,-0.1429172795937411,-0.8960218838081058,0.41740883314736144,-0.7064161959889207,-0.13609737943275235,-0.9499941111704693,0.48198710903460723,-0.35129807175664185,-0.46289959328957,-0.3684927808625783,-0.5746173873680941,undefined,1498140458798
903d185fccf839df,-0.17887721343822777,-0.5886663747314309,0.46151461939513605,0.3782732212616399,-0.7997861433390615,-1.7909694125404847,1.8875635393911812,-0.8304195174659512,-0.3107307904382562,-1.3088384098435208,-0.09681345625412204,0.016835387841237105,-0.6476924576648841,-0.14754640444784237,-0.9149692697958512,0.6396757349801533,-0.6411683635221305,-0.12813686720385084,-0.9577465766553318,0.5999238047270621,-0.3225361151478618,-0.45626435504462237,-0.32924124999119875,-0.6148004344901057,undefined,1498140460303
903d185fccf839df,-0.2814423010224226,-0.6473678745435697,0.42770017345265615,0.33389130144303353,-0.8215506802809841,-1.8288684647480775,1.916764909524681,-0.696384064752804,-0.33389790588042206,-1.100633709297701,-0.11901215879920443,0.06918199233032726,-0.7651932932263815,-0.12625223585735837,-0.9054955768019785,0.5042950676496907,-0.6072140749294761,-0.20340390543957063,-0.9386662736821351,0.464263499389454,-0.3737666535266512,-0.4513511545236303,-0.41669006091182603,-0.6024064378724896,undefined,1498140461845
903d185fccf839df,-0.31886466007424796,-0.6238872746187142,0.6471761467550468,0.5478382224295822,-0.8138261211229165,-1.911810342728066,1.9295326184347048,-0.7557270884489578,-0.3125855518832566,-1.0235875305725992,-0.03713611017082893,-0.028565826954823754,-0.673803754456328,-0.16606313697818922,-0.9191797901990385,0.34668767339181095,-0.6289793074999752,-0.21798234447574663,-0.9464957047166984,0.3152065506330431,-0.412109408329242,-0.46638163539969546,-0.552267865521795,-0.605031343148793,undefined,1498140463287
903d185fccf839df,-0.553101045494349,-0.5910143762679317,0.4627908951551404,0.3521047374502212,-0.9551207422265899,-1.8988248342638274,1.934681776235328,-0.7568422887252177,-0.2817750325037653,-0.6320891716571184,-0.02239744991224828,-0.02097228633852266,-0.691211285650624,-0.12810389874977343,-0.9170745152729772,0.39922345263462317,-0.5429638256631715,-0.18450007247144187,-0.9207404434086359,0.36523610394018313,-0.3816979410237858,-0.4684086986442758,-0.4444143927810063,-0.6002040467374652,undefined,1498140464789
903d185fccf839df,-0.4851863938817772,-0.6191911254057507,1.1122866637009277,0.9993319540285581,-0.9811126952919271,-1.8523867914360206,1.9071292986349038,-0.8859025315987218,-0.29786388724826435,-0.624099889132522,-0.04435032201242222,0.0689628359242717,-0.5519510360962567,-0.1095872050717502,-0.892863971419014,0.7063557744387972,-0.40559512431363437,-0.14154371501492874,-0.9158356781827504,0.5503254206143006,-0.3327645289032891,-0.48240761478486616,-0.32786536364519114,-0.5707571019783935,undefined,1498140466299
903d185fccf839df,-0.34519891274034725,-0.6685004437039319,1.0408294528098538,0.9613986594242119,-1.0065183621556888,-1.8356022944829176,1.967357117268065,-0.4813656193839241,-0.2956549051124619,-0.7115375659194539,-0.02299324484086953,-0.03858374515568241,-0.6215811608734403,-0.12440054706339423,-0.9233903253266933,0.255760262063132,-0.3625167593327789,-0.18564000280952558,-0.92367210648697,0.37085653712041944,-0.40143133208825804,-0.48622621297849167,-0.24475705604681908,-0.5227522776693285,undefined,1498140467789
903d185fccf839df,-0.4186577210620113,-0.6203651846299858,0.8302853767318982,0.7525663796585877,-1.0627811225914958,-1.8114573992963843,1.9649298050047939,-0.472956628014812,-0.35356062252986376,-0.8165379744855241,-0.03675355847837722,0.1404241426629207,-0.6955631684491979,-0.12625224880813293,-0.9423377481256078,0.2254511814830154,-0.4556546095344891,-0.22348567335082684,-0.9187043708929875,0.42565960305021056,-0.41415751616964863,-0.4513998229478984,-0.34941259886340126,-0.4779994503979387,undefined,1498140469301
903d185fccf839df,-0.5004325746675602,-0.6279963503775715,0.8455978903455063,0.8068099173258958,-1.1719843691111933,-1.8266766474407232,1.93289350464244,-0.7320644448282576,-0.36930072269562514,-0.8863855615204334,0.02586950012866473,-0.014055739718806382,-0.852230949197861,-0.11143889386571433,-0.9318114103064706,0.1486680586348896,-0.4240884198231066,-0.21133908764334897,-0.9222377604835824,0.35071536768997846,-0.4202866639293114,-0.46542664868164946,-0.3715974890924645,-0.49019372042757253,undefined,1498140470796
903d185fccf839df,-0.6445780266928179,-0.6051027654508374,0.6873709549497504,0.6565038909121489,-1.172745515169206,-1.8419750905801258,1.9029952402574,-0.9462283470803076,-0.371584837627302,-0.840526995762972,0.041739596981074586,-0.010577532155489408,-0.9523242535650625,-0.12625222290658383,-0.9749693548726469,0.08602919600259544,-0.4764517339420292,-0.24193987047376042,-0.935832564304468,0.35071536782460166,-0.4372586518095317,-0.45986828456889906,-0.4514853877637456,-0.5230965582674854,undefined,1498140472300
903d185fccf839df,-0.6598243109948301,-0.6144950054207796,0.743516160501115,0.665071590898895,-1.199251758119778,-1.8789401180285243,1.9038841274458953,-0.9894583175460121,-0.33444802237589916,-1.0429236100482508,0.004680953728140115,-0.03513933223699457,-0.9262129567736186,-0.18920894255953918,-0.9665482698928697,0.04763770524033638,-0.5613940768147784,-0.2991326844533306,-0.9361824059799582,0.2586480595395463,-0.48604211253496515,-0.4254493949030434,-0.5520310085363562,-0.47584780706547913,undefined,1498140473804
903d185fccf839df,-0.6265598538160131,-0.6555861429732538,0.5316960628001044,0.49541079451175823,-1.1598163984070011,-1.9258067413417523,1.9292433447675517,-0.8765047660157341,-0.3076620603710886,-0.8622407799766945,0.0917375695970309,-0.012723728468233818,-0.9958430815508021,-0.2725339799306092,-0.9139166470572881,0.07592611261311351,-0.5222341757158139,-0.35084750206337,-0.9370080302995805,0.4210400655795664,-0.4762247733665694,-0.4180815326967758,-0.6057088440806855,-0.4635373720820922,undefined,1498140475300
903d185fccf839df,-0.605769757859006,-0.7905997094531422,-0.22817544907145623,-0.2806549691390761,-0.9990303815174563,-2.028572776633488,1.9576373584288207,-0.7586510187166765,-0.28348406146630645,-0.8155099880886492,0.1082046668628236,-0.061585480859632884,-0.9131573083778967,-0.38178234959858803,-0.9886535903564083,0.38507916415407,-0.7781849835082273,-0.510855657055112,-0.9930944664644196,0.7246512184019168,-0.4961399292959156,-0.4117816618682889,-0.6898484633693139,-0.5398321886810212,undefined,1498140476844
903d185fccf839df,-0.49350254268189114,-0.8774780022450884,-0.2951669654872621,-0.3650614438377789,-0.9899583969735906,-2.069858541945347,1.9626523889201455,-0.7556473744412221,-0.2760175649888518,-0.7268342671398356,0.1638401164388121,0.028772764019754996,-0.9001016599821747,-0.42529662183195993,-0.9823377913460429,0.4194294498252578,-0.6935183485962966,-0.5508291971980002,-0.9939480773240867,1.1730077559288337,-0.41175010014369157,-0.38196414709326787,-0.7767163112279789,-0.5115120724354539,undefined,1498140478337
903d185fccf839df,-0.5336969628355577,-0.782968499863568,-0.21860515983006987,-0.22236917181831592,-1.0806679599100413,-2.0378850755818956,2.0274139897721546,-0.29552008138070723,-0.3657458687641757,-1.0541029018710522,0.13302710668371723,-0.009412982279431704,-0.865286597593583,-0.4160382296652374,-0.988653601399759,0.5527896983308748,-0.6844545926272503,-0.5328879671287688,-1.0008329394224829,1.0849748400545345,-0.4165442629726565,-0.3801729851825528,-0.8316272778572049,-0.47880577639488653,undefined,1498140479802
903d185fccf839df,-0.47409828749605115,-0.6444328141669589,0.24778137873886608,0.18201249936726085,-1.1887397784631706,-1.9779933474652855,2.0194982687763186,-0.30673402305108216,-0.3714190499359803,-0.9968268082491624,0.09640075802114145,0.01682799634077417,-0.8783422459893049,-0.4160382749929483,-0.9949693967290075,0.5628926121320275,-0.6285620739781326,-0.5501642381727774,-1.0007419806853401,1.0075514550312996,-0.4329449666365103,-0.4010728256462227,-0.8408994967062448,-0.5009490318601854,undefined,1498140481313
