UUID,iqrAccX,iqrAccY,iqrAccZ,iqrAccXYZ,meanAccX,meanAccY,meanAccZ,meanAccXYZ, covarianceAccXY, covarianceAccXZ, covarianceAccYZ,pressureDerivative, pressureIQR, iqrGyroX, iqrGyroY, iqrGyroZ, iqrGyroMagnitude, meanGyroX, meanGyroY, meanGyroZ, meanGyroMagnitude, covarianceGyroXY, covarianceGyroXZ, covarianceGyroYZ, class, timestamp 
903d185fccf839df,-0.28629331306076805,-0.517343935547713,-0.24795365716033232,-0.3201904411043909,-0.9713395692069758,-1.5318916250625232,1.8531310650492283,-0.7664141925604997,-0.4720380615802344,-0.4613008569506907,-0.022643071620845216,-0.24291798576989637,-0.21032823640819964,-0.7150826026890644,-0.4949687920540217,0.3527493538371709,-0.7859160615441144,-0.6432380477425882,-0.5283792048131063,0.3531127902813251,-0.5053701493575682,-0.03287039962128249,-0.5446207670329125,-0.2060837025495757,undefined,1495111178524
903d185fccf839df,-0.2856002719062504,-0.28165717997803724,0.23821108949747968,0.2721564301388584,-0.693932704621415,-1.6737100305812729,1.8004215065809637,-1.198509688195239,-0.3909529942349717,-0.5040670467262578,0.18302593524100666,-0.6832638633987702,2.3311713179590017,-0.5160283042973028,-0.6718111054463819,0.44367673690112835,-0.6557214914280838,-0.499942116227079,-0.6875815703984066,0.40494982950816105,-0.47424304620818275,-0.26836676844521345,-0.5071078965124804,-0.37327067540972136,undefined,1495111180020
903d185fccf839df,0.14683625669657138,-0.36383933817101616,0.47044702489346973,0.4694269678656551,-0.3728928391378054,-1.7953136696418799,1.863945060585337,-0.7850361322471385,-0.35600354883035545,-0.7628769251968682,0.0723439887214079,-0.32433480470689335,2.463903743315508,-0.5002890855317403,-0.6823373917298825,0.5548101171557204,-0.6438029054712525,-0.42416258442778987,-0.6719968204239688,0.5091345708918119,-0.41632964919213716,-0.3991484898712277,-0.4284768511175338,-0.45633909219098057,undefined,1495111181532
903d185fccf839df,-0.029187535693058375,-0.37323166582493533,0.6905611360758624,0.890448750841501,-0.4536004402298757,-1.8494263286225254,1.9155683416160703,-0.5414102901340917,-0.30422964412640374,-0.9379925439325482,0.06143265346915794,-0.2101238150164238,-0.2908380681818182,-0.4521457726243018,-0.7223374680803698,0.43761508472048993,-0.6462967993103679,-0.5085600673293827,-0.7418678775510392,0.46388797798002307,-0.4839613459145294,-0.4034687899380141,-0.44043184450501377,-0.48486956325384784,undefined,1495111183035
903d185fccf839df,-0.04304773768603537,-0.4695021693588314,0.8558060633299454,0.970213791380183,-0.32242694515609305,-1.8817748034310209,1.9401096968694238,-0.3879647712566902,-0.19693721136923284,-0.9842826554965681,-0.0007902986908444424,0.03870493337287063,-0.2908380681818182,-0.4614041000371516,-0.7581269945787347,0.4254912150647824,-0.5987893770257948,-0.4933419411872831,-0.758490284992888,0.4770645653604426,-0.48281888205771284,-0.4300017748763039,-0.3133533664209616,-0.5340480618456159,undefined,1495111184516
903d185fccf839df,-0.19689542082044229,-0.44895668826657137,1.1626896448800705,1.07612440509794,-0.49345751704014634,-1.824086535402036,1.8966916013550408,-0.6533539618761783,-0.3340186967970514,-0.7457087004822467,-0.004867846199812776,-0.008587921686527618,-0.2908380681818182,-0.4410357175651642,-0.7476006493973637,0.49823318935128,-0.6506699925103328,-0.47717822559699985,-0.7779670913387394,0.5805456400408487,-0.4639978365227271,-0.4374145312541912,-0.2795379360547183,-0.5389090170924894,undefined,1495111186007
903d185fccf839df,-0.1899652163077246,-0.3515120816664517,1.7107415673245197,1.55152202581823,-0.41469993184981985,-1.7968693749461075,1.9569299381545346,-0.19311859269870504,-0.39755366794280905,-0.492978865910063,0.0609764805430723,0.11863099267793746,-0.02102133467023172,-0.44103573051593875,-0.8402323264967311,0.25171908523678227,-0.6788944270105695,-0.46135103654486903,-0.8365967962461446,0.5578860436641832,-0.4857577378764273,-0.4986639969882433,-0.3126969898480658,-0.5106317310023247,undefined,1495111187565
903d185fccf839df,-0.3756912743119133,-0.39612522152367713,2.1394853409448618,2.0645752318412214,-0.5855453634797777,-1.8212262302531854,1.839582728582242,-1.0558647072669762,-0.5035877371158375,-0.394588817584081,0.07506838658706616,-0.019741844164498663,0.21833221925133692,-0.3956698925209609,-0.8591797272089441,0.1365444433616759,-0.6749168565915934,-0.44229520932964994,-0.856390774589405,0.5130457693937627,-0.49588998171391996,-0.5072065363207389,-0.23567486606338647,-0.5132178666189694,undefined,1495111189049
903d185fccf839df,-0.32440871326711096,-0.5610765967497449,1.9755159270399345,1.9729216461367516,-0.4223113531877267,-1.8868432284936851,1.9149477100936934,-0.6270361653385177,-0.3856022964394905,-0.6253108285892298,0.0779808057244605,0.1268429983863755,-0.042780748663101595,-0.4197415878270039,-0.8728639847794069,0.20726571617611253,-0.6292922376953499,-0.40605810531970654,-0.8530113152540572,0.5628135456281154,-0.4742659843755301,-0.4980654956279939,-0.2865405930326381,-0.46268717633342726,undefined,1495111190525
903d185fccf839df,-0.3230226999688952,-0.600406616237874,1.7049990888153483,1.6694051739581983,-0.370461156763418,-1.8908099223059012,1.959288877099034,-0.33050012142005314,-0.407251283614007,-0.5599093244371328,0.06682031183175637,0.07905149227360121,-0.9218610739750446,-0.45307159759512206,-0.8507587011270372,0.14866800210544653,-0.6831606413010017,-0.42981297720863043,-0.8603649631367724,0.587066097219479,-0.48287165638605933,-0.5188677121623605,-0.28325101812664444,-0.454217511738267,undefined,1495111192023
903d185fccf839df,0.11634392963041508,-0.6144950054207796,1.8453619756252853,1.8906831887145572,-0.04709941366414643,-1.932368209248188,1.920730661528034,-0.4381591270948136,-0.42607779826069053,-1.0178022736889711,0.015545371592336668,-0.0476720233780437,-0.8913978943850268,-0.45770073539999784,-0.8391797037581681,0.29415183761955566,-0.6612779063008619,-0.3554135547094563,-0.8435446295996115,0.7554480996150894,-0.41579191066776755,-0.4812960363124947,-0.17974004142300742,-0.33947841962018876,undefined,1495111193521
903d185fccf839df,0.41156496918282875,-0.5745779563205329,1.9385112999713427,2.0189913915527606,0.09911176704298243,-1.9160728518037276,1.9645984508158958,-0.10392980522567276,-0.5394192007845988,-0.7352723775134427,0.014356532212855587,0.04110668260180814,-0.8913978943850268,-0.4040024338153141,-0.7812849230563688,0.3163784514880867,-0.6493468802597927,-0.3403601487399221,-0.8439434487187901,0.8108209144479149,-0.398341709230636,-0.4839353894061573,-0.17100601882806346,-0.3751272593970778,undefined,1495111195026
903d185fccf839df,0.37691477474907387,-0.5270297268587044,2.1949921544792748,2.22171811589098,-0.11672329479498736,-1.8980002851649387,1.9258692927821497,-0.4017402816116035,-0.5186826940050397,-0.5401657528585032,0.09524947469586928,-0.035919183028498995,-0.9175091911764707,-0.34011986328998944,-0.6981269168641727,0.3123373029264585,-0.6201526846515208,-0.3136794544082269,-0.8049712116891526,0.898900021108292,-0.3534871697770542,-0.524574584412697,-0.13984857665516034,-0.42520036420265667,undefined,1495111196579
903d185fccf839df,0.225839049200279,-0.640323694566113,2.5548307604546525,2.4845464896732934,-0.27811616288251834,-1.9030337710517597,2.0097495862890615,0.03916192822997285,-0.4963492435106323,-0.8040556911783366,0.15761102144311245,-0.008271980765489698,-0.9305648395721926,-0.31141904312984525,-0.7170742881274506,0.3729555206161348,-0.560970040614233,-0.3318613347038825,-0.7735835187019678,0.9824981797264682,-0.33421709127527305,-0.4957758502291407,-0.1648780266125971,-0.42452247203894594,undefined,1495111198031
903d185fccf839df,0.12188805183409757,-0.5270297268587044,2.1624534760229004,1.8894681316143984,-0.28825785830196365,-1.8766178694933773,1.909156881819223,-0.5485562104223702,-0.5252177456226658,-1.04069528458449,0.1210539685720693,0.014707206270635678,-0.865286597593583,-0.30401236565863593,-0.7286532560473845,0.6033048043663476,-0.5446576270986092,-0.3220896025930568,-0.7867445193309405,1.0278465997214457,-0.3188128129267032,-0.4884401336216156,-0.09866926886072244,-0.4840787823192846,undefined,1495111199531
903d185fccf839df,0.12327399612149385,-0.5546194317704096,1.9857241000243737,1.839056471332502,-0.14428895727262805,-1.9014219371646248,1.9412904817671666,-0.3224380260244066,-0.4586817661044867,-1.4980416269728698,0.06478619638226575,-0.05091151571490015,-0.865286597593583,-0.2660531403809947,-0.7276006259465877,0.7306031745735538,-0.5148133617795894,-0.3225835717015934,-0.7438680624866427,1.0590746486481428,-0.3003281483727814,-0.5007733111215099,-0.11510970480123077,-0.46095507588501294,undefined,1495111201023
903d185fccf839df,0.2701915437540025,-0.6321054992064098,1.3828037560624633,1.33987954967596,0.0423964376419264,-1.9220077530250377,1.8279063933472401,-1.017277778972699,-0.5040013909269093,-1.2612676022082028,0.01335113497458276,0.05076900770167343,-0.691211285650624,-0.30401233975708686,-0.7676006875726074,0.6639231068501884,-0.502070634922837,-0.38059966935582445,-0.7618288755238252,0.776728755166314,-0.3861475091350934,-0.5254602005260696,-0.25495876291910485,-0.4693605266941918,undefined,1495111202602
903d185fccf839df,-0.15531502187396973,-0.694916177075379,1.4785053777915802,1.5322683448710221,-0.08941476277819153,-1.9211599087877247,1.981618556640483,-0.13757307821822978,-0.37359517964084404,-0.8135164175555816,0.15279544030724088,-0.019447522149017946,-0.7913045900178254,-0.33363903669114947,-0.7949691070044935,0.6639230220560238,-0.5391950952475973,-0.3809479796081545,-0.781161064447098,0.745500707101205,-0.394797960235183,-0.5101581851630927,-0.311881242811404,-0.46110841827362176,undefined,1495111204009
903d185fccf839df,-0.013941389412685102,-0.14957871771674805,1.1965038366856011,1.2607932965628887,-0.36880515167617606,-1.7481510076388933,1.8923682034132847,-0.5494411002157268,-0.7698547964028926,-0.31260987318468786,0.09869905848227817,-0.021522300927757445,-0.847879066399287,-0.3891891047744446,-0.872863977417173,0.694232187430305,-0.5538950910097006,-0.5041427346863635,-0.8343298303662556,0.531801081399575,-0.5041056113086083,-0.48148580959853415,-0.3305914438093556,-0.38707433253748263,undefined,1495111205558
903d185fccf839df,-0.34658499504938245,-0.2945715099367077,0.7875390335649834,0.8446879149170224,-0.851852338737005,-1.5820599468429721,1.8106259375035134,-0.9866965956008302,-0.6662462090022556,-0.13968708435686364,0.10523262899735113,0.008933786148528421,-0.8870460115864528,-0.4789949298920309,-0.9602324745636212,0.35881126040030314,-0.6568986301905108,-0.5258963963289383,-0.9098464096688677,0.2793127731669151,-0.5884874495989665,-0.4662729096694827,-0.3212048729805551,-0.3727644486815432,undefined,1495111207015
903d185fccf839df,-0.5226088219444219,-0.25289344507008926,0.5954973980897984,0.5863794112715058,-1.063315987409729,-1.5524739506760132,1.8215790746909686,-0.9015059657624371,-0.43757185612940414,-0.36891883466145026,-0.08643213510734121,0.02099061315893348,-0.9218610739750446,-0.44010989259434397,-0.9676008926314327,0.07794679995281373,-0.7479172928921111,-0.5270679896801159,-0.9321452462386908,0.005374430319879687,-0.6390168572918533,-0.473310972657744,-0.5106773383179892,-0.4642293621800571,undefined,1495111208539
903d185fccf839df,-0.3257947955761462,-0.3321404990444689,0.9534218445621192,1.134908827361294,-0.8007015683269516,-1.7035693698032415,1.856124206510119,-0.8960795954781087,-0.37510251118048155,-0.1972334364074697,-0.10668005517064039,-0.2068464937672604,-0.865286597593583,-0.4225191145425628,-0.9886535756319408,-0.09582551359587635,-0.7124413095928671,-0.49085621685799546,-0.9613989124529075,-0.13214908761676947,-0.6601544657245914,-0.43824169006052205,-0.47745987564811554,-0.504456224634385,undefined,1495111210036
903d185fccf839df,-0.36460316792618724,-0.2834181957444091,1.3936495586530058,1.4737295085124242,-0.5459145634621285,-1.8055481203044654,1.8096607933472242,-1.2820902865753323,-0.36627885312897807,-0.34863994961868017,-0.07167262214613193,-0.17832490160457795,0.49685271836007133,-0.40955739659101015,-0.9707588123827583,-0.15644374541791337,-0.7309483640522881,-0.49899404931180746,-0.9606222663721917,-0.18701374751681818,-0.668771563663937,-0.3950226834554603,-0.4995182671663284,-0.49997265233777666,undefined,1495111211534
903d185fccf839df,-0.4131136333637386,-0.4712631997391994,1.5231658804615518,1.6006074749684498,-0.5660230969012223,-1.8885971456125006,1.8795610385473713,-0.9494773101360315,-0.42221063509477136,-0.7874830410290042,0.013127918305765526,-0.18508494888373217,0.14435021167557935,-0.40400238201221594,-0.9412850959381095,-0.04328973435306412,-0.720289879215252,-0.5257507357286819,-0.9494973370048702,-0.046687713208984995,-0.6489490698450484,-0.43437465770373274,-0.5120309425144863,-0.5032905401629446,undefined,1495111213020
903d185fccf839df,-0.2883722985026819,-0.48300351431562333,1.1288749448006414,1.0570235840657751,-0.6175338742315819,-1.9069189408462413,1.9698712015228972,-0.36896312241416906,-0.39680988736485284,-0.9559549559128552,0.07196103589546488,0.02025531982746695,-0.7608414104278075,-0.34845233983046986,-0.9244429701519578,0.04157581280956492,-0.706994831650317,-0.48781006884523687,-0.910790979131102,-0.001400886188054334,-0.608918499045483,-0.4655243894947249,-0.49654568548818495,-0.5028801703307834,undefined,1495111214513
903d185fccf839df,-0.1539289395649345,-0.4049304611094941,1.0555035744065104,0.8856580753639064,-0.5620631164827825,-1.8645733721582332,1.9558569715324756,-0.3832777952866974,-0.44561802255833843,-0.4579093141933757,0.09440068673799758,0.21801638001052698,0.23573975044563283,-0.4086315716201899,-0.928653490555145,0.02136971669240489,-0.7002640747543021,-0.5796694169854673,-0.9335795917588307,0.002556512716551202,-0.6659333425093606,-0.44188839610003144,-0.4135834087688022,-0.5022881892672898,undefined,1495111216019
903d185fccf839df,-0.14838488637207148,-0.33977167940605074,1.2009702935717173,1.0878889214303853,-0.4498050234420924,-1.86294989240753,1.8481269726058887,-1.0723272031592332,-0.43057249054991326,-0.09626044027855028,0.1516073223576695,0.16638942615539298,0.47074142156862747,-0.4308515781322687,-0.8876007988283285,0.053699413950417864,-0.6923617196956969,-0.6187373473507248,-0.915464848074909,0.1395410835548016,-0.6512043473666531,-0.4491658322059564,-0.45334176277250543,-0.49439202393623966,undefined,1495111217752
903d185fccf839df,-0.04027578010042333,-0.4970919181125251,1.1882100773411683,1.1427757878024762,-0.36326116342307996,-1.8730191928799296,1.8198986402291557,-1.2063710415122073,-0.4468590953520135,0.060092182668378215,0.1680039863311298,0.2262022510483819,-0.6955631684491979,-0.43177738367692714,-0.8760218529950959,-0.0372279125840965,-0.6928436106556752,-0.6009227765536813,-0.8999739092649596,0.05762135287858257,-0.6517788921697988,-0.45114851095895914,-0.47183046808262885,-0.5061287645224265,undefined,1495111219022
903d185fccf839df,0.18425865025380642,-0.46010992938888917,0.9999967608720974,1.2070403979098434,-0.47447011504176195,-1.898559301519408,1.900170828194879,-0.7101197519490763,-0.4494911278532279,0.1358356165932948,0.1611396495138027,0.008774747499025324,-0.8913978943850268,-0.4826982880537974,-0.8528639466041632,-0.05541337789099937,-0.6814024339372463,-0.6468746174271038,-0.8881003212378236,0.058545258393751895,-0.6717610141611852,-0.46049098525530374,-0.4853963507271685,-0.4979964107117214,undefined,1495111220517
903d185fccf839df,-0.13729671097552598,-0.6039287354545947,1.3687670099349607,1.390630576555703,-0.5801865038057358,-1.948556421252362,1.926413654766472,-0.5974817946787523,-0.29832071515132247,-0.6699968867280359,0.03895889744533931,0.05031629220803279,-0.9784355503565063,-0.48269829452918467,-0.8497060194906039,-0.08168128164476626,-0.6902282663845851,-0.6150515765500058,-0.8683273333577786,0.17073833081148612,-0.6418754985595402,-0.43987808169311565,-0.4444059997512427,-0.47435424703743495,undefined,1495111222025
903d185fccf839df,-0.3770772531047193,-0.6450198145510841,1.2564771071061303,1.2418548271303134,-0.7824238810686498,-1.9714761352068264,1.8979407496200984,-0.8931117687252355,-0.3267570633958597,-0.6521205825274847,0.007465529816018392,-0.048064536944303786,-0.9305648395721926,-0.5095474906492374,-0.8402323485834324,0.08400852279525599,-0.6696246252555008,-0.5765219481856696,-0.8515069999307247,0.25678484412688285,-0.5971633218365663,-0.4829183155620229,-0.42796030738499036,-0.5024069164611107,undefined,1495111223513
903d185fccf839df,-0.2564940271491294,-0.6820018325027124,1.2035220826808777,1.290549859674156,-0.7548067898517504,-1.9572281790312394,1.937351026227168,-0.6504794012417822,-0.30951740904122327,-0.7136647922595589,0.07840522900577857,-0.017030391858701352,-0.8348234180035651,-0.5123249526109236,-0.8623376175113345,0.1911008392823845,-0.747602712878908,-0.549486613437373,-0.8478476676036573,0.3389663458447747,-0.5701836057520525,-0.5063448030126203,-0.3841566057109574,-0.5130759126885491,undefined,1495111225028
903d185fccf839df,-0.1830352188274653,-0.6679134579338029,1.0995264474703788,1.0970000540697071,-0.72908225595108,-1.95526695990427,1.954336951415619,-0.5568570502006595,-0.4280536829349141,-0.454754915061024,0.15880828856768422,-0.058250948786071656,-0.7913045900178254,-0.5076957371014006,-0.8665481600012233,0.19716257625718753,-0.7322675663295584,-0.5166249686677029,-0.8437195494494513,0.4056878115386245,-0.543726729362866,-0.5296496839944981,-0.3573790878286217,-0.5075916981220953,undefined,1495111226517
903d185fccf839df,-0.03750368449317236,-0.6191911254057507,1.6539582238931527,1.718072024953759,-0.614839023764065,-1.9128119170749533,1.8985166907201807,-0.8270881022478431,-0.4926746873350419,-0.5046761854568543,0.050469378682302134,-0.039992278415728465,-0.8391753008021391,-0.5484324631930517,-0.8802323660360494,0.12240012661640119,-0.7689585357625006,-0.5742357562268243,-0.8556001343608686,0.35822980401940024,-0.5831011059509258,-0.5163643716742349,-0.37718616913055647,-0.4935723822997808,undefined,1495111228014
903d185fccf839df,-0.013941389412685102,-0.4994399634910145,1.4740394291793626,1.5696222191755598,-0.5232448939511051,-1.926787352436466,1.851771883872828,-1.1028672179598813,-0.5092375623274978,-0.5964877275586506,-0.005000050813743423,0.09339504291562521,-0.7564895276292335,-0.5308416203873978,-0.8623376322358022,0.16887411235496733,-0.7284416012734243,-0.5640523832586579,-0.8531792382991373,0.41095408172559067,-0.5680848709189034,-0.5228670972971148,-0.36744135282272666,-0.43204016213287477,undefined,1495111229559
903d185fccf839df,-0.09155827213440616,-0.505897143084346,1.586329332008193,1.693467246925562,-0.5628345482438356,-1.9208198411190656,1.9418979621771812,-0.5232629216208363,-0.37538724904280185,-0.4770335439981995,0.008719903801345935,0.07521689412795954,-0.499728442513369,-0.5243607678870087,-0.8591797272089441,0.08400855105997752,-0.7509113240878518,-0.5806826926025027,-0.8646680026027956,0.37316629973712173,-0.5865658390110968,-0.5140699395113196,-0.38699172470856985,-0.43651202430185687,undefined,1495111231022
903d185fccf839df,-0.04997780417711413,-0.5023750677096138,1.446604328941309,1.4962833500019097,-0.5822025172456569,-1.902616837019747,1.9458374114320491,-0.4992566189670876,-0.4720866380348238,0.006212590128169684,0.04768993966282348,0.08643649672956147,-0.6346368092691622,-0.5336190952998585,-0.8633902549743652,0.017328511601333654,-0.7394378931832333,-0.6346583713434477,-0.8579580608680722,0.3540876237694393,-0.6141990737316676,-0.4716949581763533,-0.4777334011504988,-0.41012492282784374,undefined,1495111232518
903d185fccf839df,-0.0887862800433844,-0.5810351651418567,1.491265594022129,1.6384067595793215,-0.6054070424665411,-1.9131473271771187,1.875789897761699,-0.9626475801989429,-0.4206877674474531,0.23194229792156268,0.012144377002978355,0.02841742604083623,-0.8261196524064172,-0.4799207548628512,-0.8381270662951374,0.025411063107083808,-0.7387615117144088,-0.5946594986562534,-0.8605538781315137,0.3979577964479245,-0.5900043662380373,-0.4686152347328519,-0.49612150572075636,-0.4163668057299675,undefined,1495111234001
903d185fccf839df,-0.1844212666310908,-0.5822091951380994,1.458088523548803,1.6390761511128706,-0.5664036792006433,-1.9257950953644745,1.867603316436804,-0.9760801121541833,-0.4750608427924181,-0.22824318844841227,-0.11832960539289983,0.005568396536843432,-0.7738970588235294,-0.3956699054717355,-0.8612850094972391,-0.03722782778993189,-0.6808658334026791,-0.4859798524133867,-0.8635345194793392,0.4779065250704211,-0.5253637608813061,-0.4522912608632386,-0.4968706163712226,-0.41838588825704565,undefined,1495111235529
903d185fccf839df,-0.23708984097410885,-0.5957105547088876,1.5174239102262796,1.5436612118179387,-0.6882274756644576,-1.8980165877854422,1.990804462757803,-0.14017752080420448,-0.43623373638417196,-0.8185952775099288,-0.07718604203655449,0.006710105343553875,-0.8217677696078431,-0.4086315845709645,-0.8486534114765084,-0.03520718284731397,-0.6639516239557955,-0.48950730104509416,-0.8859383071112418,0.42729183311145247,-0.5421712812908913,-0.45052135161420287,-0.4745833168689631,-0.41681086790657157,undefined,1495111237021
903d185fccf839df,-0.1885792720203283,-0.5786870905353749,1.5308220101998813,1.7391625946024698,-0.534878012402337,-1.8818283758859171,1.8793348728306938,-0.7966484479315744,-0.41548602326981565,-0.8778581867820505,0.09246191041916933,0.05423175300860185,-0.7913045900178254,-0.3271582100923095,-0.8549691920812893,0.15068861878334291,-0.6006182466470285,-0.3944941475071891,-0.8495478935091954,0.7437914824568275,-0.4297670928578638,-0.38214945625507946,-0.26431326374745634,-0.3214549179034365,undefined,1495111238538
903d185fccf839df,-0.009783384023447578,-0.65499909874714,1.7509358672453244,1.787162309720887,-0.3541583118395074,-1.8947975808639186,1.7934690714235986,-1.3090437128718981,-0.43172625839446355,-0.5897921629337507,0.04980806249778056,-0.045859058164424156,-0.7956564728163993,-0.33456486166196975,-0.8602323573097409,0.3386051218860608,-0.5718998516721019,-0.3608408843902782,-0.8333852605064123,0.9328997926116119,-0.3746741112121887,-0.4237255413164148,-0.2779854005410774,-0.3794531992362499,undefined,1495111240015
903d185fccf839df,0.09693974345539455,-0.5874922862792035,1.4989217237604584,1.6327790531588042,-0.27876414988683995,-1.9311406999149032,1.8529026873156955,-0.9325041026530632,-0.41601200978571146,-0.34655312678830963,0.059170490532778224,-0.009168893175317161,-0.9566761363636364,-0.3290098470831755,-0.7981270193935853,0.5002537777644549,-0.5348810707480525,-0.3343818454791314,-0.8025783023815632,0.9960642150110783,-0.33737275785181475,-0.44949465678091816,-0.2850337497711891,-0.41886760419434027,undefined,1495111241561
903d185fccf839df,-0.018099429307332358,-0.44484753943773314,1.5429443426873775,1.7320843647898625,-0.4665912660529776,-1.9208640964299903,1.9966189639772935,-0.06038803892124221,-0.3913093196984006,-0.3437273370767898,-0.00791413165604761,-0.06965238503287773,-0.9479723707664884,-0.3290098341324009,-0.8107586100520823,0.8376953780017962,-0.5033201757221983,-0.3670091722905813,-0.8070562603088532,1.0855291814654504,-0.3354787911558442,-0.4696966437303939,-0.21329141367771912,-0.39624074980664326,undefined,1495111243030
903d185fccf839df,-0.11512053270948369,0.07466127461755301,1.0325351851915223,0.9287246538046361,-0.5027454932737497,-1.7219261030086812,1.9319204841697828,-0.15495548179442079,-0.45795730247067273,-0.3124187700037354,-0.15589519808871508,-0.07300668147985198,-0.7303782308377896,-0.4197415748762293,-0.88549556807567,0.8599220766644918,-0.526819825098628,-0.42450596838055615,-0.8147387585352207,1.0344525355642138,-0.3727230497881088,-0.439525407212124,-0.22533289891694522,-0.4235135988289829,undefined,1495111244526
903d185fccf839df,-0.3673751255117993,-0.2024100675476729,1.0676259068940066,0.9107673201087969,-0.45416614715932263,-1.6635064545865064,1.871474385040247,-0.5272530410147683,-0.48750096122571873,-0.1804948082411296,-0.19204991398685956,-0.08480779347364407,-0.3517644273618538,-0.4373324047311086,-0.8981271513719332,0.6699848438249915,-0.5233288142631326,-0.4455123434498685,-0.8722175599482945,0.7977938271232913,-0.44288731386624275,-0.4908658860813612,-0.31589279061242265,-0.4795811164431049,undefined,1495111246027
903d185fccf839df,0.06090332869096553,-0.1360772850759791,1.2679615558505737,1.0627375560208285,-0.3340292023251178,-1.7604796711714719,1.8878870036459272,-0.5549777025744661,-0.43473825133219185,-0.1602365481742562,-0.30564226567498637,-0.13626123107112006,-0.691211285650624,-0.32345488430747943,-0.8644429145240972,0.5245011213697685,-0.509912738391311,-0.4096108877470066,-0.8696217438776799,0.6345857013341112,-0.449774435182672,-0.49530026465828575,-0.3723502651892915,-0.44360735762485115,undefined,1495111247518
903d185fccf839df,0.22722526953095315,-0.6244742603888432,1.704361459209245,1.7603371018490273,-0.2511676287596778,-1.9281359801831455,2.0052815376340654,-0.04770667683196907,-0.22482974791401375,-0.09820077797642322,-0.05261986891493606,0.03188334241773202,-0.7869527072192514,-0.3965957045410066,-0.8718112957807397,0.4800476957796556,-0.5490079158783732,-0.4921608086261041,-0.8546345740989805,0.5777192439568389,-0.4973313817491061,-0.4540134699796711,-0.39646997684414814,-0.41212828901055704,undefined,1495111249019
903d185fccf839df,0.1121859587465873,-0.5293777576231976,1.5537903994148692,1.6915266788063208,-0.2500361999688949,-1.9115331631052996,1.9408381466674838,-0.3777473329723004,-0.15787888229367267,-0.47272614493223536,-0.08986038275137281,0.056831381294627184,-0.7434338792335116,-0.3225290204843355,-0.8676007901020201,0.5790575738199202,-0.4881435726709738,-0.457994576285118,-0.8529623373210039,0.7216177168543211,-0.4533174650661129,-0.4184884766672897,-0.3684547326952061,-0.4142929796760317,undefined,1495111250555
903d185fccf839df,0.15931047989674235,-0.4806554397091416,1.6960671915909136,1.6505236991874819,-0.18331289202462686,-1.8656424909423568,1.8266703757678695,-1.0207680790802651,-0.28298506329752204,-0.09995109546519206,-0.0395788956185374,0.0133225523729235,-0.7129706996434938,-0.32067735759192045,-0.824442867622545,0.4578210819111246,-0.48445600061678323,-0.42894536314969445,-0.8382270538961065,0.6955019558410219,-0.4428500377669843,-0.41876490875060923,-0.33801265207036996,-0.39469240012949136,undefined,1495111252006
903d185fccf839df,0.00962083665698269,-0.32685733483338403,1.2826359315841798,1.3418495429856725,-0.312737815164975,-1.8017747522944982,1.929698288196501,-0.2960678591934112,-0.47647361935499527,-0.522565869443093,-0.07906059920907196,0.010403710286669879,-0.8043602384135473,-0.2308714547696869,-0.8149691304552695,0.5871399840020626,-0.44847054197725394,-0.3628990937873236,-0.8074061016846075,0.8136388264509227,-0.37827255705509044,-0.4560207770617293,-0.3223889009346148,-0.42972216468444346,undefined,1495111254119
903d185fccf839df,-0.20382541830070158,-0.4178447472261761,1.784112683581701,1.7738443477576848,-0.32293094375683346,-1.7633120255706658,1.7957754190126731,-1.1498098311964935,-0.5186214894544532,-0.23268439235669425,-0.08758907740593931,-0.024093694323051182,-0.8870460115864528,-0.2401297821825367,-0.7644427457345804,0.39114098592303764,-0.4704649115638161,-0.3752673307240938,-0.786086818931138,0.7429753597998082,-0.38989462763041327,-0.4451025612002371,-0.354071310837696,-0.453511192791582,undefined,1495111255285
903d185fccf839df,-0.10126036522191643,-0.4765463931782766,1.828135810782519,1.8210041730804172,-0.17376776625320933,-1.7604470625762576,1.8292791449938937,-0.8532403431095901,-0.5803799560224975,-0.47180186197650903,-0.11374261756668376,-0.0788381150572175,-0.8739903631907309,-0.2558689879973246,-0.7676006581236722,0.3891202561862551,-0.4337303955923948,-0.3774078660524722,-0.7766201334235018,0.7716626620373007,-0.39042763938198355,-0.44658342381112953,-0.27519388984065757,-0.3922271150915525,undefined,1495111256802
903d185fccf839df,-0.2204575778792906,-0.47830746740063307,2.125448848954308,2.1065331184355314,-0.07646507134105508,-1.8235787622573552,1.891666022319251,-0.4983056080248061,-0.41408813123790794,-0.4925559036208683,-0.08282778822009294,-0.04361215113208397,-0.8000083556149733,-0.20124478373717336,-0.7791796113191385,0.6033048043663476,-0.37899266160655093,-0.278943257872652,-0.7983242414602995,0.8810840118514877,-0.3261843955510416,-0.42543972955326537,-0.2444078040946424,-0.34736410481999946,undefined,1495111258286
903d185fccf839df,-0.15531488385233078,-0.4354552556258024,1.7413660862778368,1.7415736804637922,-0.26489904175997464,-1.8849984708120644,1.9756252219765726,-0.05306103747515505,-0.362261219500839,-1.2866269221542965,-0.13594446845898847,-0.0239644388747078,-0.7477857620320856,-0.21790978862123245,-0.7328637764505718,0.5386452967914355,-0.29615781427356097,-0.2048604826182508,-0.782329531264031,0.8745396733041673,-0.2974739681233278,-0.4360127060465675,-0.19750992010763366,-0.3209102626746998,undefined,1495111259795
903d185fccf839df,-0.16501704595066052,-0.5328998476119259,1.925113199997741,1.8960302212469025,-0.32955492775433215,-1.922208066540863,1.9145059046830835,-0.5455422139238081,-0.3896040786515482,-0.9416216615150917,-0.1499882532380379,-0.017449871583027937,-1.017602495543672,-0.2558689879973246,-0.7697059256874996,0.6012841311590081,-0.27096221688258515,-0.23833009098862376,-0.8084346326938502,0.7989179080136253,-0.3308824081791609,-0.400162436788904,-0.18185631403362898,-0.29565808530548265,undefined,1495111261362
903d185fccf839df,-0.16085893704519377,-0.5945365100986486,1.396201856036065,1.4240759863429546,-0.3633537263142429,-1.9001478425441234,1.8756163380657507,-0.8502302700255754,-0.4395821053181468,-1.0011609695851067,-0.16559834100237228,0.08204156092740525,-0.8739903631907309,-0.32160316961196617,-0.7823375089837628,0.5810780774389304,-0.3659236749205236,-0.28687843773995714,-0.8108765199834295,0.7116087254698985,-0.3725659949078776,-0.37103102953861344,-0.22963757833585924,-0.27421680128299813,undefined,1495111262805
903d185fccf839df,0.17178439254822572,-0.4988529046509046,1.091870571868999,0.9952088434367193,-0.23041109278021607,-1.7898304146925175,1.8346939197532366,-0.9250953527453702,-0.35216403272763747,-0.3714993104026853,-0.16839638655438763,-0.004382806481812424,-0.7782489416221035,-0.3317873737987344,-0.7139164051872939,0.8740662803508804,-0.31845168474743607,-0.321861619881767,-0.7789570684092385,0.9431705504335974,-0.32314025470457014,-0.4185488236103927,-0.2779205038538282,-0.2944971290047301,undefined,1495111264285
903d185fccf839df,0.22861121381834942,-0.44719555558823015,0.9164172174935274,0.884101104671418,-0.18421802233713996,-1.7832479852141832,1.808561530785572,-1.0563210728684913,-0.4418857914726159,-0.42872776222042464,-0.14172995769892857,0.07595587897817727,-0.7434338792335116,-0.2910506736086324,-0.7233900981811666,0.8781074571772302,-0.2876219587007812,-0.34909961020636976,-0.7658870262666093,0.9639430545522456,-0.3211459567700372,-0.36959230045044417,-0.3210288015325196,-0.3417572314381282,undefined,1495111265842
903d185fccf839df,0.39354700333848236,-0.4336941814034459,0.8015752714185873,0.744922185859915,-0.32117208027883715,-1.8061723568434145,1.800551142102654,-1.1811079351604907,-0.3464142770321357,-0.24831800896235864,-0.11138409761315264,0.025970362816177837,-0.7042669340463459,-0.44751660891787687,-0.7254953510205264,0.8195098844301718,-0.2828002442592252,-0.4111307935098141,-0.7485979066453935,0.9614331101388576,-0.3482342737678072,-0.39716230030071864,-0.3221532797559797,-0.32727858570902746,undefined,1495111267303
903d185fccf839df,0.3727566658436071,-0.6186041396356217,1.2239386827867054,1.3089886884671649,-0.06285709214063545,-1.9493041072655426,1.8440507610006496,-1.030859477047836,-0.6116543919924556,0.12246491798367032,-0.014748741231532062,-0.09453053039408349,-0.38657948975044565,-0.3456749167211073,-0.7876006815744483,0.6235108580864253,-0.4176719845640876,-0.37379809259676483,-0.78274234401108,0.7975782513102595,-0.3639740913312355,-0.41135201968726587,-0.3846309496737377,-0.33590075382047774,undefined,1495111268801
903d185fccf839df,0.20643493203607793,-0.46598005014211075,1.8874704350491471,1.9144534931054042,-0.16615635438576926,-1.9225621117967044,1.8805656203279186,-0.7461290076164179,-0.6049677603600117,0.4458752727625509,0.0806977810699563,-0.11597264311284816,0.005089962121212133,-0.3160481420823974,-0.7528638440747506,0.603304776101626,-0.416441384968243,-0.3483903217768617,-0.763249228364239,0.8221541706329396,-0.34698560501058323,-0.38698279477571995,-0.3568554432022885,-0.35766401580882595,undefined,1495111270295
903d185fccf839df,-0.1331387400916982,-0.523507636869976,1.998484570391872,2.0142660816386324,-0.056654824398411116,-1.9441774518997066,1.7803226744811365,-1.428732125952556,-0.5159968255706875,0.3128091637459428,0.1345202402070532,-0.1975334554610736,0.4750933043672015,-0.2734598049014294,-0.7412848540681153,0.45580040870378513,-0.4709673185037534,-0.26386452363865437,-0.7656911154886575,0.8289140872145732,-0.31312690377851893,-0.4281252899260567,-0.3383384929511802,-0.3451434515028709,undefined,1495111271800
903d185fccf839df,-0.11789259381132493,-0.5604895817516234,1.9595657838202232,2.0129055961947984,0.011930206026767344,-1.9451976579894343,1.8805235502813922,-0.7369037937086861,-0.42661234782947055,0.1565673974663474,0.10829125519965459,-0.10896273007083772,-0.517135973707665,-0.3345648357604206,-0.7991796715810835,0.2739456991053133,-0.4750975711409472,-0.19660866310247826,-0.833469223197311,0.5852490875225951,-0.3654567797856412,-0.3670914453733502,-0.2829060021708312,-0.38064331768184473,undefined,1495111273281
903d185fccf839df,-0.08185611003607643,-0.5675338055710686,1.4159803182618904,1.72931777577166,-0.22695510124798657,-1.871735781941777,1.8482374185899917,-0.9281597250635957,-0.5980602150711657,-0.24734042350317337,-0.053464720389387044,0.006099926752368271,-0.7826008244206774,-0.4049282328845853,-0.8307586555895597,0.38912028445097663,-0.5358231681829466,-0.26890554672280853,-0.8681244282830622,0.5352811297877275,-0.416322701087576,-0.40158215205965897,-0.34171861453237323,-0.39469204453400053,undefined,1495111274870
903d185fccf839df,0.15931041088592288,-0.6015806754621091,1.2430787529955794,1.3658408940816265,-0.2086259822236379,-1.8688451961000496,1.8510592008490494,-0.8880970123065248,-0.578968678623176,-0.23655096735720632,-0.04985107842512302,0.16111043689892207,-0.7086188168449198,-0.42251908864101373,-0.8212849625956871,0.3103166579838406,-0.6370527147814398,-0.2677656166117279,-0.8661023493218795,0.4412274247460253,-0.4283291376453879,-0.4088696694698486,-0.36739040823345354,-0.4842677234252204,undefined,1495111276278
903d185fccf839df,0.0026907356604941924,-0.6362146188072556,1.2252144502728108,1.2226592643006327,-0.46846326214177786,-1.883631207773083,1.8116936345671881,-1.26483485278492,-0.5347339228514918,-0.46504128238073367,-0.05871307270248227,0.0750873026491643,-0.691211285650624,-0.43085161698459234,-0.803390184622037,0.3062753963633263,-0.6730912496786906,-0.32571838203870546,-0.864821933188364,0.46153797287613485,-0.45551482724007375,-0.4463142021658165,-0.4003672626803945,-0.5120381964910845,undefined,1495111277933
903d185fccf839df,-0.33826881174385875,-0.6467808741594444,1.2252147044097603,1.2914123928087589,-0.5980733368031559,-1.9484609227293834,1.886942903678717,-0.9311252231910861,-0.3856989388283894,-0.4288592256938454,-0.04501423324108087,0.06851534421207546,-0.34741254456327986,-0.42344491361183395,-0.803390184622037,0.20928619153040123,-0.6976515707607811,-0.3559708535039169,-0.8612815465116247,0.4380245492105694,-0.47306821152236744,-0.4882787326170945,-0.430010707907587,-0.5094967141502483,undefined,1495111279301
903d185fccf839df,-0.5891375292695975,-0.6925681024688973,1.8294115782686244,1.8351642161254402,-0.7037383117677627,-1.962878913159029,1.842720084114371,-1.2852148010853093,-0.40447259335867586,-0.3910056752840001,0.026769913289255584,0.014262137974540585,-0.7042669340463459,-0.43455489096632427,-0.8097059799512855,0.20120378134825875,-0.7222585866651159,-0.3629560912825568,-0.8403121035312393,0.47414930280643697,-0.46017312065171484,-0.5086999633095234,-0.4606161558876879,-0.5422819567066308,undefined,1495111280805
903d185fccf839df,-0.48795848948902815,-0.6127339750404116,1.861312372981946,1.7399454139219992,-0.5999144776953339,-1.9224223569579888,1.8899250924263176,-0.8855508418080353,-0.45264097897075445,-0.19346642633920458,0.05286641643895085,0.018085571788357683,-0.8391753008021391,-0.4104832474633795,-0.8233902154350469,0.16079164564338178,-0.7330247414727614,-0.3740514079188008,-0.8342248778177306,0.4445534901336442,-0.4655888223407165,-0.5164463950544764,-0.44705335461667545,-0.5451479872350519,undefined,1495111282301
903d185fccf839df,-0.5780493883784618,-0.5399440275893825,2.180317524608719,2.1556269986122936,-0.7481416553500879,-1.9168717800898385,1.8701252953396357,-1.0343025207300482,-0.4601372288020269,-0.2262232578215719,0.04093046864435827,-0.05998277282786774,-0.8696384803921569,-0.3669690594100422,-0.8139165224411742,0.19918316467036237,-0.7453034759298749,-0.3588966742635419,-0.8337700841014315,0.4326966881092898,-0.4592230943164186,-0.5230728747127409,-0.44627791087991203,-0.568446386987298,undefined,1495111283792
903d185fccf839df,-0.5517151702177723,-0.5340739068361611,2.1139646543468142,2.273189500747363,-0.8315278024352638,-1.911738137609327,1.9205492019464767,-0.6846040391494714,-0.4659782953966512,-0.3723449961220433,-0.007155515337030603,-0.061666235068480346,-0.9001016599821747,-0.3438231890748195,-0.7739164534529207,0.3325434131759793,-0.7442184290840006,-0.34342529342441314,-0.8130105462303303,0.4166361108415816,-0.45306721009577455,-0.5396069814719294,-0.3562193838333661,-0.5741162335497418,undefined,1495111285287
903d185fccf839df,-0.5101347022604802,-0.5827961662942324,2.5376043414749367,2.731884555975099,-1.079083957988925,-1.9114399950981673,1.842393996995994,-1.2487968481126832,-0.39640937348199995,-0.6146588206869348,-0.02164446237643253,0.02261812770494768,-0.7129706996434938,-0.34289733820245016,-0.7739164681773882,0.38103793079827725,-0.710668241549595,-0.2536684849270866,-0.8204061755655434,0.4401957324417116,-0.40391052226848495,-0.5228004986990826,-0.2579826707818482,-0.5678654593976549,undefined,1495111286816
903d185fccf839df,-0.37291924771548174,-0.6861109521035582,2.617355819984342,2.8560790010962775,-0.8292443781448415,-1.928459745877317,1.7255280385768625,-1.9716224641200575,-0.4071575939325775,-0.21550429627133558,0.028495814268816297,0.0092637765689014,-0.7738970588235294,-0.2882731468930735,-0.7960217591919917,0.3628524654913744,-0.6248933725208897,-0.19417047802048593,-0.8315660896662421,0.44427631750980706,-0.37917331516306013,-0.5420487712350872,-0.19309255330125044,-0.5656759290345897,undefined,1495111288292
903d185fccf839df,-0.40063944466897733,-0.6720225336926603,2.496771395400231,2.6046563171763486,-0.45567814300155485,-1.9567995990409761,1.8266966778616527,-1.217398465329712,-0.49502910220522617,-0.209792293563698,0.03989243970688423,-0.008205367016741532,-0.7956564728163993,-0.2271681548864059,-0.7781270180295107,0.42751188827212183,-0.5994950481150455,-0.1767485487680607,-0.8147877368903512,0.5408707672079052,-0.34661676464114555,-0.5300221899100022,-0.1843420105548831,-0.5506805647914366,undefined,1495111289830
903d185fccf839df,-0.09155816861817696,-0.7389423019344831,1.8536559891066673,1.8737908608982974,-0.4173124891450505,-1.9630932036078665,1.9299454941740517,-0.5707558706137927,-0.3882844978982482,-0.3692761266458076,0.174790627895692,0.07406092978229398,-0.7173225824420678,-0.17254395062625463,-0.7770743658420125,0.512377364772947,-0.5836540601330644,-0.1683130694729212,-0.8190907759648826,0.6057290184718399,-0.3322877391049656,-0.5395293292533554,-0.08814133094756367,-0.5652563318512623,undefined,1495111291295
903d185fccf839df,-0.19550937301681678,-0.6820018325027124,1.857484053975832,2.0010334555501346,-0.6603120873663518,-1.954877976587483,1.9032766370844232,-0.8082088021198378,-0.3728332833424258,-0.7166522011430393,0.149577502711799,0.02601512186568994,-0.5998217468805704,-0.15124971728189793,-0.7907585939635401,0.45580035217434206,-0.5526164773794274,-0.13913086479156903,-0.8210009054076202,0.6305359175590833,-0.3196636390629321,-0.5294067173932242,-0.1141530382972919,-0.5443341653872862,undefined,1495111292793
903d185fccf839df,-0.49627453477291295,-0.7066564624238106,1.8957647026674787,1.950129697444245,-0.8314558046385367,-1.9568974271891508,1.8112386895669559,-1.4483180803629687,-0.3355951380473379,-0.5280230257940917,0.1607343394685218,0.0025455777186245442,-0.4692652629233512,-0.10403222934527959,-0.7907585866013063,0.3850792206835131,-0.5260373593808825,-0.1289158250619859,-0.8247651895369312,0.7063578632462314,-0.3015507439387565,-0.5171974652225203,-0.1339371291217507,-0.5662159923221671,undefined,1495111294289
903d185fccf839df,-0.5974536435643018,-0.6749576379112595,2.0220905892129633,2.112293535425467,-0.9862761188121779,-1.9654247719190685,1.889485934627042,-1.00073594954283,-0.41721905765065787,-0.708908009536203,0.05438611769231832,-0.04740634063602387,-0.7390819964349377,-0.21420647578717691,-0.814969152541971,0.4982332458807231,-0.5826486345566229,-0.1836324567293595,-0.8241564670762993,0.6516625841055846,-0.3421019612808843,-0.5152301024385987,-0.2455535796945242,-0.5687857175955268,undefined,1495111295796
903d185fccf839df,-0.4976605480711287,-0.6943291620772577,1.7305195212764461,1.6822816393381006,-0.8293472377459112,-1.9930495497794882,1.9303005252361765,-0.7078384958732497,-0.3721557872378124,-0.7495773227615761,-0.012574968487435133,-0.04109705425538097,-0.8609347147950089,-0.22161314030761164,-0.816021775280534,0.5992634862163901,-0.6231849049804288,-0.2492100892285197,-0.8463853359043794,0.6150450795823205,-0.38061961019100327,-0.5118348064866954,-0.2644061670069415,-0.5893163005924075,undefined,1495111297287
903d185fccf839df,-0.4380619762478513,-0.7066564478098144,1.7719903510942048,1.8724015718046658,-0.7817347461848483,-1.9764583789317087,1.8744460755244283,-1.0883078630014373,-0.37647451947543203,-0.8100803962176939,-0.015495061658802862,-0.05209563742146196,-0.9305648395721926,-0.22624230401403655,-0.8718113105052073,0.5265216249887786,-0.6098617051113637,-0.26075504502642205,-0.8511361703917703,0.5499558467498729,-0.4021712736721403,-0.5193197881757224,-0.21239770503440147,-0.5744125560775013,undefined,1495111298790
903d185fccf839df,-0.4380619762478513,-0.7048954320434426,1.3879075884177334,1.3593880872950959,-0.8220546767371659,-1.9794235008986492,1.957563722884317,-0.5717908627899162,-0.3454389173877962,-0.6533787499092093,-0.0505459514071772,-0.07024536042295788,-0.6607481060606061,-0.3067898535218712,-0.9181271600982417,0.3951822192788304,-0.6097074346055527,-0.3267189849306037,-0.8493309928613832,0.4573033986956173,-0.4493002755362929,-0.48383151309991135,-0.32981910231289363,-0.5389056448015999,undefined,1495111300299
903d185fccf839df,-0.3964814047743301,-0.6743705936851458,1.4887135507760192,1.4614143658799401,-0.7236719860225942,-1.9734047469717197,1.9107216127850488,-0.8875353577417521,-0.3212666926057643,-0.7292562876561658,-0.021876290317647436,0.022309524274533116,-0.678155637254902,-0.297531539059796,-0.9244429627897239,0.7407060883747065,-0.5743988227916101,-0.352601724571868,-0.8819291358919468,0.6819359221853515,-0.41938677342860675,-0.46238619981481144,-0.34461457518244315,-0.5383468017531717,undefined,1495111301829
903d185fccf839df,-0.2467918305453899,-0.5745779855485252,1.4261879829724307,1.3285268839981357,-0.8603894707138287,-1.9608734405540795,1.9903337274140493,-0.3659506717351026,-0.38592003291141064,-0.6844261562547254,-0.0669969770414912,-0.07248578893711473,-0.7651932932263815,-0.36604320853767286,-0.9486535360926224,0.572995723786231,-0.5817245416015462,-0.4179260391522961,-0.8935858227390864,0.6407142813428136,-0.4613814346123459,-0.45930881478629937,-0.3329437230150095,-0.5158708020227817,undefined,1495111303275
903d185fccf839df,-0.17194714694714902,-0.6508900083742865,1.3700430315580157,1.4467164912495218,-0.8991356951086906,-1.9363745016334202,1.935052572238571,-0.7256713617042557,-0.44171591016267014,-0.4331006717681124,-0.009013088605161576,0.05248419881359768,-0.7826008244206774,-0.491956634892809,-0.9444429936027338,0.3547700270445104,-0.6022937767859988,-0.5279609348548981,-0.8850147294946786,0.5326787907572047,-0.5270065799112474,-0.4828124031030216,-0.3246561958490417,-0.5115908468964034,undefined,1495111304788
903d185fccf839df,-0.17887717893281804,-0.5775130605391322,1.4064097748835547,1.4696224854043647,-0.9051219652536386,-1.9225667716242527,1.8948349533008149,-0.9555482064074288,-0.5052539483188214,-0.43671607019186076,0.16024014699620132,-0.01773566411920907,-0.7826008244206774,-0.45307159759512206,-0.8602323573097409,0.47802707910175923,-0.5839035648992883,-0.48516290177098986,-0.8654726358780818,0.5982607729419587,-0.485379399275938,-0.4824016986841681,-0.29678455265634524,-0.4772855325526425,undefined,1495111306293
903d185fccf839df,-0.20105335719886033,-0.6103859004339299,1.609935604966234,1.6572775258217896,-0.6525566751922302,-1.9143445561640917,1.9126413677422274,-0.7488547905125941,-0.40595682036561753,-0.08703856013317211,0.3306287365164597,-0.07668395905190514,-0.8087121212121212,-0.4262224144258438,-0.8212849257845181,0.5588514070409563,-0.6138567199526572,-0.4542518035155398,-0.8484004170576046,0.6317985893317896,-0.45364589260658694,-0.47169943536290426,-0.35369208843952943,-0.5074946007702906,undefined,1495111307779
903d185fccf839df,0.06783342968745402,-0.48476457392398364,1.6922388725847994,1.7262943291890207,-0.4358061817266411,-1.8925219150360029,1.8452578449805501,-1.0681241369886298,-0.22006382289326112,-0.1689566214333508,0.14201417300275412,-0.04648621055333502,-0.5475991532976827,-0.4289999281906282,-0.7991796715810835,0.6295727081201145,-0.5849215267684406,-0.43283378850243676,-0.8363239215884498,0.7589127556158347,-0.4215002526310874,-0.47630063161225766,-0.23745703935547793,-0.4684303119980165,undefined,1495111309281
903d185fccf839df,0.04288519031957048,-0.5786870613073827,1.8651401837141612,1.864843275285466,-0.4852083857387014,-1.8689034286040236,1.8816543636757164,-0.8266753043233072,-0.19577848329111788,-0.189568478380805,-0.12534844748395213,0.05789816576845274,-0.504080325311943,-0.4123349233065691,-0.8118112843262819,0.41134703964311536,-0.6441291816673026,-0.4585962040464671,-0.8259196629462081,0.6823824788130073,-0.44723048669596155,-0.5287797913391333,-0.21717054936062063,-0.5207751840051271,undefined,1495111310785
903d185fccf839df,0.0636754242982165,-0.5164634130505309,1.6603385861453768,1.7073328471992202,-0.47508726423799064,-1.86802530579445,1.912741305511455,-0.6298470817454938,-0.2601022452412047,-0.5262173326175864,-0.19665723127632917,0.000044845946266112635,-0.19509664661319073,-0.4215932507194189,-0.7686532955867028,0.6942322156950266,-0.6030764673954987,-0.42280873982936185,-0.8139551157047987,0.8790052290128108,-0.3835042744475354,-0.5219073383833377,-0.14418787799263916,-0.5559114603451374,undefined,1495111312282
903d185fccf839df,0.11079991094296181,-0.7512696461230246,1.6316279725581668,1.7014789740523328,-0.39342912213733056,-1.922536490317978,1.9099747543627428,-0.6836316622538323,-0.3938829841802404,-0.0016076447804819756,-0.06028412995351496,0.021313932402924056,-0.10370710784313725,-0.45770078720309604,-0.7444427443705057,0.7932419241469618,-0.6066360390431809,-0.398306580099279,-0.7963301489841077,0.9699484493802067,-0.3488519131238777,-0.5250996885031664,-0.13875384944118618,-0.6121878242779881,undefined,1495111313993
903d185fccf839df,-0.01394145842350457,-0.7565527664921209,1.6118495103323414,1.6237669190719441,-0.3771777182078707,-1.9247748873810964,1.9176669310651902,-0.6499806890839872,-0.4425712822109149,0.10211707625365113,-0.027569208037502818,-0.023321892168876087,-0.3996351381461676,-0.4928824469128547,-0.8076007050252243,0.8558807867792559,-0.5749329569686021,-0.46184500375432924,-0.7879339765070988,0.9853930871741996,-0.37409882513146553,-0.4995058084571403,-0.16868559369254688,-0.589540644932587,undefined,1495111315320
903d185fccf839df,0.33533409975932343,-0.725440942363695,2.0871682002626617,2.014807349113877,-0.0820399279802087,-1.9670948357523907,1.8868561264495476,-0.7222875184267223,-0.38837618639139254,0.04041766499589218,-0.10235930650230707,-0.17299223033399114,-0.42574643493761144,-0.45492326048753706,-0.7907585792390724,0.8518395534234632,-0.5448115694476963,-0.44517669571306373,-0.7864576496201,1.0528228810085583,-0.35342664818750064,-0.4779955299749979,-0.24128275435311552,-0.6096004093324718,undefined,1495111316791
903d185fccf839df,0.09971180455723579,-0.5933624508744135,2.251775243773692,2.123109333702399,-0.3818577033985606,-1.9631188252129874,1.8612312911216498,-0.9968818907978347,-0.38479546264320724,0.14898103744547614,-0.053544466835482286,-0.012645202299954916,-0.3822276069518717,-0.4975116106192796,-0.802337561883474,0.48813024728540577,-0.6046882224031634,-0.45522074421377073,-0.8197624700843114,0.9889193336046149,-0.38705974257118975,-0.48156506134429716,-0.23430596059698067,-0.6211024664401255,undefined,1495111318288
903d185fccf839df,0.21059286841449598,-0.6350405741970166,2.291970051968396,2.075578471133175,-0.3386269242012982,-1.976220796601253,1.915271173300917,-0.6415150270377938,-0.377229943951066,0.004193207297649647,0.0258155898172238,0.03262383341374073,-0.40398702094474154,-0.47806913082275976,-0.7644427530968142,0.5426865301472282,-0.5369900789380548,-0.4362979086219935,-0.8089523978181464,0.9176399287048553,-0.38878823240916877,-0.4871546970103787,-0.267284782526147,-0.5823539202855085,undefined,1495111319793
903d185fccf839df,-0.16363099814703502,-0.6585212033498645,1.877262262064708,2.007313009598925,-0.7102800138118971,-1.9782146244185723,1.8693494965089685,-1.1336492559006053,-0.36415944815918655,0.05584704964331229,0.10741995563622708,0.006350188745912997,-0.3778757241532977,-0.42992577906299756,-0.750758547061988,0.5083361879465973,-0.5120952027104068,-0.4105861571256822,-0.7958963481961995,0.9181326783802568,-0.3794707334797326,-0.4759916268711215,-0.3015666308791855,-0.5288977547519348,undefined,1495111321291
903d185fccf839df,-0.0028533175323688167,-0.5939494512585387,2.0693036434029435,2.088580525465032,-0.6260504409599292,-1.9560752040527405,1.8817411388098426,-0.9808377899377568,-0.3790431656524514,0.058837791373598555,0.1933818133972188,0.02693379904820038,-0.49537655971479505,-0.4067798698754512,-0.7549690601029414,0.46590343556382396,-0.46513837590511753,-0.3562051713292572,-0.8136472577022997,0.849717380792919,-0.37724136331568325,-0.5029143142444904,-0.1428294178021213,-0.49355912373935046,undefined,1495111322787
903d185fccf839df,-0.04443381999507059,-0.5035490977058565,1.9659458919354975,2.048303576407592,-0.725307413504141,-1.9577382803296866,1.8747458605490221,-1.0191369236340226,-0.36132604491244846,-0.22791187322004783,0.14405013114383647,-0.07871265649433297,-0.5258397393048129,-0.36974657317482656,-0.738126956403491,0.6699849003544345,-0.518995150355656,-0.2853521977212825,-0.8225192138021705,0.9248617978825255,-0.3387592547489035,-0.5179574188448489,-0.11562072826309248,-0.5118037155782731,undefined,1495111324315
903d185fccf839df,-0.08047020025408988,-0.5158764272804018,2.1165164434559744,2.036913946550502,-0.6558069585932031,-1.9351469905500946,1.9982231451376398,-0.1492149278214485,-0.44073138511692767,-0.16841031094246273,0.20659616388704571,0.04786608170117747,-0.5780623328877006,-0.3188256817487309,-0.7476006420351299,0.6012840463648434,-0.5374495562197164,-0.24752552419498708,-0.8373874372331966,0.8783430936238767,-0.33932404859535426,-0.516958954490546,-0.07944046423796301,-0.4974897710025235,undefined,1495111326054
903d185fccf839df,-0.21075551929719008,-0.48476457392398364,2.0961000974870965,2.0329602278540766,-0.7475039489094677,-1.9317486305742768,2.010309734426818,-0.09412185856204788,-0.40995071813608597,-0.24138644808524307,0.20610033563269956,0.07135507966855614,-0.4475058489304813,-0.2947539734919134,-0.7497059316856587,0.6174489797880146,-0.5141907568722527,-0.22691179206553305,-0.8347356460393943,0.8802063061286814,-0.3267156178006819,-0.5378884760616718,-0.06405500774655831,-0.5044638881808594,undefined,1495111327425
903d185fccf839df,-0.22600166557756335,-0.5522713425499317,2.041869305575738,2.0214356175933843,-0.7857564575398825,-1.9475501895478264,2.018243865618182,-0.09204303163368704,-0.35321025645616466,0.13747936886394319,0.15275149201726979,0.11470905023557308,0.5795384915329769,-0.2743856687245733,-0.7633901303582511,0.6517993785180886,-0.46550249094119056,-0.25169260024330786,-0.8397033816027915,0.8534900027004952,-0.34486581749266465,-0.5131611083601887,-0.048250949890971326,-0.4975769483990757,undefined,1495111328795
903d185fccf839df,-0.35628708813689275,-0.5869052858950783,2.1082224299745924,2.1800017670155105,-0.8700991717829412,-1.9530751457028646,2.0238321990259514,-0.08480601782687802,-0.39490123193021753,-0.009591890618866396,0.039084626541367615,0.023688180594484864,-0.042780748663101595,-0.2938281485210932,-0.7465480340210345,0.7184794745061754,-0.5249674613148968,-0.20946453219002475,-0.8298588688583504,0.7971316940768,-0.32957525610568833,-0.47162566952975293,-0.08158321218808573,-0.4736354342887221,undefined,1495111330275
903d185fccf839df,-0.3133205723759752,-0.5957105400948914,2.38448174670835,2.262909110093713,-0.77069819056987,-1.9761695533248695,1.961234931662132,-0.4792378379037713,-0.4032631685718233,0.14570971596780058,-0.010367142184071894,-0.044679373057850455,-0.35611631016042783,-0.26420149043935415,-0.7581269945787347,0.5851193390594447,-0.5685889342326927,-0.20483515007948133,-0.8355752638584287,0.7248667914821003,-0.34748046052289655,-0.41361499155993925,-0.3401846774189625,-0.44230453580010715,undefined,1495111331765
903d185fccf839df,-0.4283597451387021,-0.6062768246750725,2.3889476953205673,2.388240357680074,-0.9616521512197705,-1.967660842406311,1.8729865298882569,-1.0911318551780305,-0.4592565919412013,-0.37365431253275766,0.03116306975585603,-0.1415099846482828,-0.5301916221033868,-0.19846732177548715,-0.8076007050252243,0.449738615199539,-0.5619402753715966,-0.32453412162086315,-0.8870298102135924,0.4974009543937319,-0.4584789522117245,-0.42219832847970473,-0.2746845651198954,-0.4394138890396918,undefined,1495111333267
903d185fccf839df,-0.19135126411135006,-0.5822091805241033,2.166281540892065,2.13673640899776,-0.6773554844763432,-1.9340662246348355,1.8204692960580269,-1.3179016119846458,-0.4280257274855724,-0.18449045587524707,0.12972991199547035,-0.04624354059422263,-0.9740836675579323,-0.243833159770465,-0.7770743658420125,0.5083362162113189,-0.5566014467083116,-0.34457788901867176,-0.8519128164969544,0.5961819817162629,-0.43708527686672966,-0.4530240395108388,-0.28849460197593274,-0.4370010833870624,undefined,1495111334773
903d185fccf839df,-0.16501704595066052,-0.7007863270565929,1.9627557108093856,1.8773405778620915,-0.5647991051452572,-1.9869911966906082,1.8807575876005909,-1.0162577154027137,-0.27092216145137343,-0.03671308871155156,0.18053064666197652,-0.013323851772650885,-0.9740836675579323,-0.21698395069963766,-0.798127034118053,0.3810378177393911,-0.5950246100360432,-0.3676108060315296,-0.8703144288701671,0.5292603390183096,-0.4523225850852528,-0.5780329848191929,-0.18786501637719913,-0.5200874501864652,undefined,1495111336311
903d185fccf839df,-0.05552189187538687,-0.6591082183479859,1.5748446291268001,1.519920539061709,-0.5770699497682485,-1.9577941839659245,1.980456176176899,-0.3385616613269386,-0.34648530778141495,0.2973118245531491,0.15776409700112637,0.0010406014210816623,-0.9044535427807487,-0.22439060226929786,-0.8423376014227923,0.44973864346426057,-0.5347348525670953,-0.362151809124211,-0.8806697086801475,0.6920065086304786,-0.42647064859578615,-0.5900925834051414,-0.07764027574068032,-0.5367922299780281,undefined,1495111337796
903d185fccf839df,-0.06799597705391891,-0.652064023756533,1.8536559891066673,1.9362243754638755,-0.6038127639327523,-1.9284946841520905,1.9300980251318667,-0.6314191340463601,-0.47689044574978356,0.05048930015969552,0.10075868740829591,0.03221089490817265,-0.9218610739750446,-0.3262323851214893,-0.8633902402498976,0.27596631578320974,-0.6164604487241528,-0.3816889391841188,-0.8545506137203308,0.6383429255501302,-0.4335314838695662,-0.5555161571817926,-0.18977439970806617,-0.5271845925635965,undefined,1495111339287
903d185fccf839df,-0.24263379065074264,-0.6385626787997412,1.7649723592358777,1.8535056141583623,-0.6730560723706744,-1.9456844699296207,1.9006126482707935,-0.8507231378067726,-0.4520709010963225,-0.09928444432367285,0.03797252859470393,0.024920897720242818,-0.9523242535650625,-0.26142395077302066,-0.8065480601999598,0.3143580043985195,-0.6859143791435875,-0.3182518420354835,-0.8466861988577153,0.7427443851374604,-0.3798359687967243,-0.5959814692098917,-0.17313260963391022,-0.5956587563464355,undefined,1495111340793
903d185fccf839df,-0.32579465755450726,-0.6373886488034984,2.0999284164932104,2.240211945722133,-0.5921179189680779,-1.9490478905103306,1.8885050205539065,-0.9052603441154949,-0.45665207028637356,-0.13753312428092215,0.043437419443050726,0.0797447122177385,-0.6825075200534759,-0.2762373316169884,-0.8549691773568217,0.33052288129224755,-0.7310938996633096,-0.3312153790552947,-0.8732041117255324,0.6954403616419053,-0.40487553858189296,-0.5662090567096427,-0.1710605397257851,-0.5890916054528214,undefined,1495111342260
903d185fccf839df,-0.36044516253694975,-0.6620432933385928,1.4338443668477094,1.5306732960894782,-0.8011335664322624,-1.9635171243776373,1.9886743319037068,-0.3300393423962317,-0.4140991007658932,-0.5737518043512881,0.09914575934306089,-0.005262147149066454,-0.691211285650624,-0.3688207352532318,-0.8854955312645011,0.304254836214873,-0.7344432031375598,-0.41728641664670546,-0.8644371076358853,0.5304614179650544,-0.4699996443621467,-0.5501475562705033,-0.16953774695046336,-0.5654666662379552,undefined,1495111343794
903d185fccf839df,-0.5087486544568547,-0.4800684685530087,1.6010031994679002,1.6799866649078359,-0.9640075794985324,-1.9075990778525085,1.989003055241619,-0.3190284696154473,-0.459899070763523,-0.4103575601930057,0.15503039432972082,0.06310472753947685,-0.5563029188948306,-0.5113991146893289,-0.9033902945136835,0.4194294780899794,-0.7501393302494019,-0.540481167738515,-0.8814883355343675,0.3526863641837671,-0.568028280705077,-0.5058438830791062,-0.3534571228861725,-0.5499814388290497,undefined,1495111345293
903d185fccf839df,-0.6362620159143428,-0.4113876114748332,1.443414656089096,1.4804444246227735,-1.118467890090737,-1.814368950977972,1.8535811954647083,-1.1346461468112012,-0.42402611638192933,-0.4995485175769959,0.08358038953778392,-0.017480641445031395,-0.7260263480392157,-0.5225091438469174,-0.8739165854312685,0.4073058062873226,-0.7482554117496958,-0.5511141809147693,-0.8656895372721753,0.15181364325618543,-0.6026247080007063,-0.4970608736873235,-0.3590392156123718,-0.5771503610072098,undefined,1495111346762
903d185fccf839df,-0.5503291569195564,-0.24408824932626078,1.3509027072121922,1.4020226332633057,-1.0320577484763558,-1.6707993042515532,1.9436967571740114,-0.29873783143922356,-0.37029159275296175,-0.4156841219241469,0.05383832088562991,0.0891452994877344,-0.8391753008021391,-0.5641716560570651,-0.9097060972051657,-0.03520728177383935,-0.7996311817695063,-0.6143106254008471,-0.8978748674945193,-0.09913481922023795,-0.6793398221750316,-0.5224740415018015,-0.4742582114442148,-0.5589971911562853,undefined,1495111348321
903d185fccf839df,-0.5156787209479334,-0.23469592167234155,1.447242466821311,1.4748622147157542,-0.9413276161983627,-1.5816802832080104,1.9684064167064734,0.04899304897933188,-0.46701053462217845,-0.20623765289764118,0.0017239929543171396,0.0033911400843549835,-0.9871393159536542,-0.5289899963473064,-0.9591798665495257,-0.05137217279992814,-0.7537660136688858,-0.5630454467088525,-0.9058792187581801,-0.12395711500282745,-0.666453122089397,-0.49757860024353157,-0.47166340666985385,-0.5419869055667013,undefined,1495111349766
903d185fccf839df,-0.46994031661222335,-0.23117383168361322,1.429378418235492,1.4763406277055482,-0.7351508196924247,-1.5374317267798439,1.9065980772877258,-0.20980840169158754,-0.66550143440924,0.15345466345837983,-0.04834479226271012,-0.021545251564705,-0.9175091911764707,-0.5734300093714639,-0.9591798297383568,-0.15644375955027412,-0.7749654394009793,-0.5712086101290209,-0.9235951438428733,-0.24338745766882877,-0.6934540646866535,-0.49501382829300716,-0.5902262225028135,-0.5169479791238493,undefined,1495111351294
903d185fccf839df,-0.2828281762989995,-0.29339753839644966,1.7598680186067086,1.7275751637724337,-0.5745705124465299,-1.6011201123566459,1.8733967708484114,-0.44916231623053166,-0.7084745211328181,0.3092592725155345,-0.09869775727087977,0.020822624485111286,-0.8739903631907309,-0.3910407547160851,-0.9212850798495673,-0.04328970608834259,-0.6566326844249296,-0.45249758157178177,-0.916290473244803,-0.12719078636565345,-0.6119295627126953,-0.4890310572197803,-0.5844876264251722,-0.5144466335300671,undefined,1495111352804
903d185fccf839df,-0.2703540566150577,-0.3086599283476057,2.1567112516506786,2.108476695581421,-0.4207376277552504,-1.6745610254384424,1.8817253586796583,-0.3690490009986626,-0.620341022262407,0.06824653023086284,-0.25858924453636817,-0.10813952225906168,-0.7651932932263815,-0.3558590173016792,-0.9044429246144803,0.11229707149164078,-0.6293804894245739,-0.3751913375869481,-0.8978748670540909,-0.012318385853807788,-0.5423607266227967,-0.45701504514282587,-0.6343922681392793,-0.4843610533349057,undefined,1495111354274
903d185fccf839df,-0.2689681123276614,-0.3391847374779102,2.293245565317552,2.446407303863354,-0.5439705657476044,-1.7201931499719834,2.0077745831993075,0.3557903897566585,-0.5029075660490235,-0.39188505775325516,-0.24951458661600512,-0.11415821245748746,-0.40398702094474154,-0.3216032084642898,-0.9307587654812062,0.05572005889303579,-0.6324104697113722,-0.3453061760688188,-0.9176828381504821,0.03469306841680034,-0.5232375953619268,-0.48512899899854206,-0.6673268925984401,-0.45261137364322135,undefined,1495111355809
903d185fccf839df,-0.11789252480050547,-0.4190188649063959,2.6951931389906907,2.500991617548297,-0.4924700853712152,-1.7725963740974084,2.0140861193684714,0.3462322754028498,-0.527999876571221,-0.690424049946935,-0.21399962220371793,-0.09417801136814136,-0.4779690285204991,-0.14847225532021172,-0.8781271352833909,0.23151300325198304,-0.5810249666929913,-0.2428074844717929,-0.8838392637381315,0.25185734325339754,-0.4283599020759721,-0.49042266748899255,-0.556849027205921,-0.455180034127193,undefined,1495111357282
903d185fccf839df,-0.10680434940395997,-0.4642190489897351,1.8708821539494336,1.8912019437134655,-0.6313064289697592,-1.830023768407666,1.9712702428240125,-0.1595551123187587,-0.600175864394763,-0.2978673935797821,-0.03922622713005524,-0.09144395514349585,-0.9088054255793226,-0.15495310782060076,-0.8233902154350469,0.2537396453852356,-0.6002335401130945,-0.24122424959887478,-0.8526824649960439,0.2968516016147984,-0.40647138548783823,-0.4881167510934941,-0.6173581171262726,-0.4837751209499557,undefined,1495111358788
903d185fccf839df,0.02070894304270871,-0.6561731287433828,2.08652980824571,2.027229217164604,-0.5199328988685525,-1.9036160801010296,1.8841211067543548,-0.8260498372831244,-0.4002579143062182,-0.6459169955324712,0.11894805207757583,0.03467107611059956,-0.7521376448306596,-0.08181223578397535,-0.85391657670496,0.16685349567707095,-0.5815400767880196,-0.20558244173540305,-0.8573073576217018,0.3312055318169112,-0.391662372753955,-0.463610823929941,-0.5218371455331717,-0.5168999037153038,undefined,1495111360333
903d185fccf839df,-0.32718073986354246,-0.6191911546337431,1.8479135105974962,1.9351342844715576,-0.5240780406985983,-1.9155417846935079,1.784722341437186,-1.4997872675749273,-0.44273556905401906,-0.487201419534508,0.19009051142439162,-0.048656684722985996,-0.6650999888591801,-0.16791478691982975,-0.852863917155228,0.2456572069383716,-0.5779119367824456,-0.2601660834846277,-0.8625339752181215,0.3814660560304149,-0.41079586095221965,-0.4789057979275196,-0.5000799163102354,-0.5234971806736763,undefined,1495111361855
903d185fccf839df,-0.2065974794025428,-0.7043084170453212,1.9704120946846644,1.8783679880349755,-0.592200204380343,-1.9129493404641356,1.7640362916793204,-1.697572270581143,-0.386483184906566,-0.11108196614252179,0.22272517431423075,0.0018435936325455842,-0.7042669340463459,-0.151249743183447,-0.8497060489395389,0.05167882553724301,-0.5767017927938929,-0.1796363721867481,-0.8884781505177272,0.28975291681013093,-0.39579346193453474,-0.437868298204533,-0.5053619854111446,-0.4999659643460353,undefined,1495111363283
903d185fccf839df,-0.35490104033326725,-0.5469882221808354,1.5786726939959648,1.7304636813900591,-0.8183621124966152,-1.9044499469518508,1.819864452260367,-1.3604538745600778,-0.476485831669375,-0.24900531667426823,0.11403693363393717,-0.06608845525980066,-0.8348234180035651,-0.19013476753035943,-0.8791797653841877,0.03551397690823652,-0.5622597149728286,-0.20869191700348916,-0.8863371269399994,0.24389634550373807,-0.4203195964896916,-0.42927320984645817,-0.45313362918829214,-0.5256786968731697,undefined,1495111364800
903d185fccf839df,-0.2828282108044092,-0.39788623729004896,1.383441639805516,1.257206211172392,-0.8884077067639182,-1.8224956636168403,1.8745381244070258,-0.9206043527445658,-0.46785547575831815,0.12176824584315753,0.007295779662900991,0.08008470455178138,-0.8043602384135473,-0.3299356591032212,-0.9339166631458304,-0.08976372009163026,-0.6759503606585249,-0.33439451437843243,-0.9191591664015855,0.05663585105071383,-0.5225436098320099,-0.4316438990934608,-0.5275650156272962,-0.5210827466266315,undefined,1495111366295
903d185fccf839df,-0.37291924771548174,-0.44836958558447293,1.3413326721077552,1.1277808887321568,-0.8780500087518953,-1.804034114289159,1.8327031700539964,-1.1552569370935304,-0.389090740569384,-0.7630708543595899,-0.031566208194918406,0.044842126421167416,-0.8348234180035651,-0.29105063475630877,-0.9591798518250582,-0.07359884319790225,-0.4685663522105009,-0.283851289682174,-0.9170181420653422,0.1730634976220408,-0.47170873537539987,-0.4354142029336103,-0.41048153285370864,-0.4945269008939943,undefined,1495111367781
903d185fccf839df,0.11772994292863084,-0.4606969005450221,1.2902918071855596,1.2478870384629415,-0.5624231073849166,-1.80281825198372,1.872539463299437,-0.7979520683729657,-0.43863761875267054,-0.5767360975727637,0.17694778536575725,0.05235833135517598,-0.8304715352049912,-0.2688306670965536,-0.9697061822819615,0.0536994422151394,-0.3971638392337326,-0.2423515114418343,-0.9182495811833635,0.28576472423212496,-0.42475552529369753,-0.4351864344079151,-0.2901807643503412,-0.4352477153003699,undefined,1495111369276
903d185fccf839df,0.25078742658980147,-0.6086248262115734,1.477867239911578,1.4247975473833767,-0.43740046672811417,-1.8716053449877308,2.0057470290837185,0.02626287035680996,-0.38782891120758034,-1.1741624654564424,0.3688814848291284,-0.0067057465726247205,-0.8913978943850268,-0.3151223041608026,-0.9528640638580435,0.055720030628314245,-0.38202175988435216,-0.2683672432602071,-0.9150030605512104,0.2655157667605449,-0.4399089201290229,-0.4370415765856324,-0.26177992395740085,-0.40600576442218134,undefined,1495111370839
903d185fccf839df,0.09139575927335102,-0.5933624654884097,1.8160132241580733,1.783651409611179,-0.4650792775406545,-1.8206346042918942,2.025531064633728,0.2846013587718348,-0.446012996028635,-1.3509110984195822,0.26648049413449953,-0.028305159936704676,-0.8913978943850268,-0.2799406185494948,-0.9486535213681548,0.12240018314584426,-0.39215519794644665,-0.2982650711086246,-0.9156327728939369,0.3090163743520281,-0.4524399948331862,-0.46951731421420656,-0.283930005090031,-0.41445733120450157,undefined,1495111372280
903d185fccf839df,-0.14145481988099273,-0.607450825443323,1.522527996718499,1.6775017650685256,-0.5466551395864451,-1.8233109008051183,2.0216810208402105,0.19546812255726628,-0.36520205298552283,-0.7907738270364978,0.022293688679188954,-0.029790858227886706,-0.865286597593583,-0.1780989134019507,-0.9276008899032834,0.3588113169297462,-0.4760176316259983,-0.2636302024747045,-0.8988964010322427,0.42552101438911916,-0.4019550473919998,-0.4568344055309177,-0.3984901241609522,-0.4165550112738718,undefined,1495111373798
903d185fccf839df,-0.09848833862548494,-0.5510973271676851,1.586329332008193,1.788623501457809,-0.5852573610419398,-1.8359633281241736,1.9260796796780462,-0.45617223051175765,-0.3383520664262231,-0.7650060491989276,0.06134217878469364,0.05712317890873257,-0.8565828319964349,-0.17902477722509458,-0.9149692697958512,0.25373967364995714,-0.46529464216495503,-0.26292091233990333,-0.8930190796939708,0.4695913651890797,-0.392038041882634,-0.4704828271495592,-0.4066778030434261,-0.41965707671444136,undefined,1495111375273
903d185fccf839df,-0.20243937049707608,-0.5634247005842189,1.6941527779509071,1.6337697237338618,-0.5457397082228941,-1.8268303806385786,1.8611734323028841,-0.8719702600422624,-0.3255236915319949,-0.3044206320312557,0.14074333171423462,-0.008267145844832548,-0.5737104500891266,-0.18735727966712412,-0.9033902871514496,0.28000743608011636,-0.5055172230976944,-0.23978667056468037,-0.893305949190714,0.48923978035347093,-0.38485823839591254,-0.5000404221771984,-0.3259249379179217,-0.3938993486498382,undefined,1495111376798
903d185fccf839df,-0.11927857260413095,-0.6808277586644811,1.3100700152744358,1.3820552504030998,-0.5600574009970927,-1.9126442106652444,1.9060300318831644,-0.7412897778026489,-0.24869347076188264,-0.09742098054158613,0.25896229288627415,0.013774021908278178,-0.7913045900178254,-0.3058640026495019,-0.8865481613652979,0.029452211668711974,-0.6784957400305152,-0.38108097609278924,-0.9053264705215279,0.19700807968521242,-0.511925958459195,-0.47963065221919254,-0.6196538286470884,-0.4561906908760981,undefined,1495111378284
903d185fccf839df,-0.31193455907775947,-0.7219188669889629,1.155671398884794,1.1384617179213317,-0.7045303028077369,-1.9152156903051094,1.9423581725457102,-0.5795962266710436,-0.3617784962813455,-0.11233771238121883,0.26881756388774247,0.029353772708974147,-0.8043602384135473,-0.3188256817487309,-0.8612849947727715,0.029452126874547364,-0.6875934077822887,-0.3986675592176902,-0.9102102450211648,0.14322130838164046,-0.5311807065520878,-0.4784565699740412,-0.6141310215971045,-0.47595042431524004,undefined,1495111379801
903d185fccf839df,-0.17749113112919254,-0.7031343870490785,1.2315950666619842,1.3368429582686199,-0.6588309499995956,-1.9169975588861916,1.9169069136741095,-0.7219739171450333,-0.37124775870180077,-0.24258119418370355,0.24988033336306809,-0.027132972902686497,-0.8957497771836007,-0.40122490709975517,-0.8581270971081473,-0.010960037095051153,-0.6812141859843228,-0.4277231051639111,-0.9128620361843818,0.06525898121413654,-0.5601523219148743,-0.4707045819914175,-0.5799980297300723,-0.48136254206784745,undefined,1495111381282
903d185fccf839df,-0.20243937049707608,-0.7483345419044253,1.3840797776855183,1.4891601137191852,-0.5723179513908233,-1.9306888268887108,1.9097301836881462,-0.8091501101861128,-0.234918268669714,0.055418433012468904,0.22506980718382072,-0.0362933671428673,-0.7869527072192514,-0.5363966479169666,-0.8560218074576185,-0.004898187061361993,-0.7002112277543658,-0.5004759632039032,-0.9202016915525317,0.04263866247071293,-0.606859628932219,-0.488522750300476,-0.5140628677276103,-0.461058789277362,undefined,1495111382786
903d185fccf839df,-0.37430519200287804,-0.7542047064996353,0.9444894390637856,0.9116157661056729,-0.3963810989766278,-1.96406682485525,1.9367566964057534,-0.6180537456145584,-0.25223878151723755,-0.18256003952844257,0.23566369675615126,-0.19351953211186598,-0.45620961452762926,-0.6132408716399712,-0.8760218750817973,0.3628524654913744,-0.6788872819733749,-0.569182068921852,-0.9433121581718155,0.2754323642547977,-0.6042744221371666,-0.4627215493534262,-0.5029383488164703,-0.47653108348640216,undefined,1495111384312
903d185fccf839df,-0.4533080190119954,-0.7101785670265351,0.9917024932537659,0.9112039811474854,-0.39831480725914076,-1.9713969413891788,1.8439350658848372,-1.2585309215505929,-0.29290973961931116,-0.27005514759540317,0.23919492932480518,-0.17244178220425696,0.0007380793226381577,-0.6252766998668308,-0.8886534546969436,0.38507916415407,-0.6992769505461927,-0.6024173568480417,-0.9545350425672061,0.3286647903510827,-0.6087020289401514,-0.45380327590170105,-0.5566102530119246,-0.5117931038031039,undefined,1495111385784
903d185fccf839df,-0.5059765933550134,-0.6233002450065966,0.8774984309218785,0.7792108383907972,-0.6606103686834522,-1.9115354931296125,1.8489132812227143,-1.2180020290369185,-0.48706440791310507,-0.5311722820969339,0.1334187743233003,-0.13020127593227376,-0.669451871657754,-0.5697266835866338,-0.9486535213681548,0.3446670001844715,-0.7024435805240522,-0.5711452807586869,-0.9528278199792496,0.38292891323463046,-0.584851499903424,-0.42480248137558707,-0.5459020766730529,-0.5172611758127948,undefined,1495111387284
903d185fccf839df,-0.41865768655660157,-0.6866979378736873,0.8953624795076975,0.8603678247124288,-0.702864021503926,-1.886687169559412,1.8270254013305056,-1.3582289925251452,-0.4294154737465848,-0.46446642879229166,0.10233942545160085,-0.11032381599050546,-0.9523242535650625,-0.5623199543123264,-0.9423377113144388,0.4699446689196168,-0.68003295100682,-0.5794794338740749,-0.9377287020400925,0.5358816718660567,-0.5482842599885372,-0.41287013869116784,-0.5772704231268462,-0.5290642058058795,undefined,1495111389642
903d185fccf839df,-0.36183114132975575,-0.7148746870115062,0.890258393015478,0.8446192938064986,-0.6549635303737723,-1.8817095849870689,1.8467121320573163,-1.1873294688964682,-0.4637795093427531,-0.6192050291762238,0.11388830533773162,-0.05880671971551563,-0.9523242535650625,-0.5697266706358592,-0.945495608979063,0.5952222811253189,-0.648550668314438,-0.5759076545425023,-0.9356646428070046,0.5594104967772288,-0.5405705683236087,-0.40409962574411107,-0.5448448815467316,-0.5359646999716391,undefined,1495111390290
903d185fccf839df,-0.17194711244173927,-0.7107656112526488,1.015309020348756,0.9182729725793145,-0.5810916495182602,-1.8691083995137396,1.798586681534115,-1.4500670687252708,-0.4099769981362734,-0.4224296073303133,0.2031174731821523,-0.037757026324824944,-0.8826941287878788,-0.49010494609884486,-0.92654820826685,0.5245010648403253,-0.6451209783277845,-0.5327233123759632,-0.9118544946168052,0.799918814075733,-0.4669056568536052,-0.38773317521830963,-0.5772278871728845,-0.548077928687122,undefined,1495111391786
903d185fccf839df,-0.05690787066819289,-0.7348332261756257,1.3394187667416477,1.2673537763540517,-0.4159136344538464,-1.9478250399436063,1.833465790536735,-1.2559553983880556,-0.3610606889696391,-0.15810336948318127,0.23141103308105093,-0.01894032612421016,-0.7956564728163993,-0.3540074191631368,-0.8633902844233003,0.6154285044337259,-0.6552091849896854,-0.4863028345230601,-0.8727843026814397,0.8299149840011498,-0.4282475032720275,-0.37315255410485915,-0.6202360926538792,-0.5629423279699999,undefined,1495111393317
903d185fccf839df,-0.1553149183577405,-0.7072434920359282,1.4600029371888095,1.5333317863852571,-0.5110871887006789,-1.9695917801531624,1.9109740660611452,-0.7944612678117072,-0.2685327574362586,-0.13528743429688084,0.2467117658983647,0.053861532629408605,-0.7608414104278075,-0.320677370542695,-0.7528638072635816,0.43761494339688223,-0.630328086778545,-0.4521302700799698,-0.8144518918095062,0.7013995596661357,-0.42579432375211806,-0.40169973389716435,-0.6310205124313409,-0.48092157283005615,undefined,1495111394784
903d185fccf839df,-0.1650169424344313,-0.6673264429356816,1.5978132724787377,1.6260596377842782,-0.603792178539029,-1.9702183451253954,1.80952141323989,-1.482866179320403,-0.3756011248808114,0.03584294800282243,0.16022471767901872,0.12494451656124612,-0.5867660984848485,-0.28549565902983814,-0.722337460718136,0.5628926121320275,-0.6247707114577766,-0.4371718574793899,-0.7866885462936705,0.7632089208452884,-0.3987198557619362,-0.4085799785776817,-0.6033864571794642,-0.49453142522100935,undefined,1495111397167
903d185fccf839df,-0.22877365766858512,-0.6661524129394387,1.5078538751218427,1.625614191257496,-0.48648380682607945,-1.9730227494825605,1.816311566830546,-1.4043099723766077,-0.4039111421295456,-0.029263831662398158,0.09126823840874311,0.10948122534306139,-0.08194769385026737,-0.29845735107984167,-0.6854953041189743,0.6073460377221404,-0.6453001083447033,-0.43624091515191654,-0.7698962004098595,0.8428650792197027,-0.377404702096585,-0.4154455056907089,-0.6224406517372935,-0.5013841919093415,undefined,1495111397828
903d185fccf839df,-0.2703541256258772,-0.5781000609232574,1.297947936923889,1.399499203558385,-0.40467138146841486,-1.929519548817202,1.8414157010726422,-1.1759672630970506,-0.4546575485638468,-0.1531422801406122,0.10390888335060762,0.04920415900201064,-0.3735238413547237,-0.3206773834934696,-0.6486531769687479,0.32648153487756865,-0.6966604886351097,-0.4600654489008452,-0.7545102137018894,0.7838582366464775,-0.4026184965926404,-0.47299033250242917,-0.5504299894062488,-0.45619260455037497,undefined,1495111399323
903d185fccf839df,-0.3188645910634285,-0.5863182708969569,1.2603051719752951,1.429334178412266,-0.438315898075661,-1.9321772107896944,1.8096029366235027,-1.4044812054603932,-0.44383779741907436,-0.14167881892630346,0.07976090365654645,0.018645787395941468,-0.39528325534759357,-0.3030864888847175,-0.6486531769687479,0.27394578389947793,-0.7042928159406949,-0.44613297267770285,-0.7563643682233022,0.766350205076024,-0.40194735067530274,-0.46895806103211674,-0.5532992238836892,-0.4651315028954853,undefined,1495111400980
903d185fccf839df,-0.27312622123312813,-0.5698818363355619,1.0618836825217848,1.0894228060040687,-0.2882681514629463,-1.916489784122395,1.8957185646457955,-0.784619385934581,-0.47726377923012814,-0.4731182183427804,0.06254323081122179,-0.051556214501044785,-0.39528325534759357,-0.3382681874467998,-0.6423373301038628,0.43357373830581103,-0.6875857032524821,-0.44104761804103726,-0.705266657320443,0.7061268849759844,-0.39952588235678654,-0.4707540403196433,-0.5540327348092404,-0.4441166036529341,undefined,1495111402282
903d185fccf839df,-0.25094993945085664,-0.5781000609232574,1.0421057285698583,1.0841934422703756,-0.013238895388563838,-1.9178174510165815,1.8519559633063918,-0.9787162998213262,-0.5029464234802142,-0.727653574519675,0.07968927534428714,-0.20184781306395203,-0.35611631016042783,-0.35585904320322825,-0.6433899970158287,0.4537797354964457,-0.6926254916489116,-0.4000544708821661,-0.6409309825633938,0.8230626831145111,-0.3493591017168401,-0.46243667293174007,-0.4781149035864243,-0.39943710346779804,undefined,1495111403791
903d185fccf839df,0.10664176753208535,-0.6092118850516833,1.3993917830252274,1.4858134243760226,0.3631147599411811,-1.9416991405863575,1.8289057134258164,-0.9474919781303703,-0.5731008021805408,0.03348030289358451,0.07072382531502108,-0.06104688904449232,-0.5998217468805704,-0.36789488438086243,-0.6254952484911138,0.35679064372240676,-0.6137200689235286,-0.38032101822838615,-0.6319330824608188,0.828205764687847,-0.33686416089801235,-0.44579407378876307,-0.4495368539174811,-0.4155431607536446,undefined,1495111405281
903d185fccf839df,0.1371340600928319,-0.6115599304301726,1.4083236802496624,1.6851157650694342,0.4167649569101501,-1.9602305684052568,1.8375367341548723,-0.8952071799802579,-0.5292872190099251,0.5931301322079725,0.10436373558526713,0.016006546457337994,-0.6955631684491979,-0.36604322148844737,-0.6391794471637062,0.257780963535193,-0.6840546134327458,-0.3704036290220135,-0.6219976092358723,0.7767903508462848,-0.34254680194896514,-0.4292348189324659,-0.44976631071097967,-0.47909921118752313,undefined,1495111406793
903d185fccf839df,0.06921961551271845,-0.6397366649539954,1.296033777420832,1.6569258030228007,0.45746545687253165,-1.9567064289734797,1.973537152265068,-0.00030909217424488015,-0.4624420971544459,0.5187608195753572,0.1823280419469917,0.09488098799165653,-0.5432472704991087,-0.37344986010733305,-0.7454953744713025,0.24363661852519675,-0.7199750146116269,-0.3264403333159387,-0.6265105515233989,0.8062013792524011,-0.32138466106164265,-0.41784371050979685,-0.4303578818632364,-0.49110468555254355,undefined,1495111408282
903d185fccf839df,-0.051363817475329886,-0.5270297122447082,1.479781399414635,1.6468392710495952,0.32712510363296227,-1.9021416707125378,1.9245964679057455,-0.32003376505453796,-0.42362187440232085,0.5070855493503579,0.15863687717540279,0.1187641936513348,-0.3430606617647059,-0.354007328507715,-0.7465480266588007,0.1385650035101292,-0.7232710786337171,-0.294357640596441,-0.6451920366252976,0.8163027595728634,-0.3082176356496759,-0.44180603017792464,-0.4348684813840819,-0.501851842434773,undefined,1495111409792
903d185fccf839df,0.08446562377145278,-0.546401207182714,1.6201437779506729,1.6584278407695818,0.4539168914042628,-1.904224010688372,1.9507288484932355,-0.09682666805627656,-0.4995347872446481,0.47029464999525,0.10414220170820787,0.08251667737733655,-0.5214878565062389,-0.3225290204843355,-0.7760217431034495,0.009246101419191178,-0.7497330694116687,-0.2582091969121145,-0.6645242259033599,0.8197828087283674,-0.29724738236105763,-0.4443632925443317,-0.5061966119096876,-0.4866369255810107,undefined,1495111411843
903d185fccf839df,-0.025029702830869527,-0.5381829972090145,1.4721252696763056,1.607493897451127,0.38483815539928967,-1.9029755383624978,1.9454823837743698,-0.1703933469514878,-0.48360736930617365,0.20718400393372724,0.12171778993722816,0.15439494067759105,-0.6215811608734403,-0.367894897331637,-0.7907585792390724,-0.025104184251996644,-0.7619076609819102,-0.2458916231261236,-0.7101924109419774,0.7637170679564635,-0.3162431187900856,-0.46956637329966583,-0.529012385611509,-0.5164755004945276,undefined,1495111412800
903d185fccf839df,-0.04997794219875307,-0.5152893830542882,1.475315196665468,1.6490461023903071,0.08868208464572586,-1.8762894453162398,1.9529326279858576,-0.16983680496279416,-0.5301639700356802,0.02937755351272708,0.0054303491589468775,-0.013962671796805727,-0.5432472704991087,-0.3280839832600316,-0.8476007813757116,0.05167885380196455,-0.7623666433606869,-0.21834331814607852,-0.7701690745170187,0.6444253137900058,-0.34158529418370104,-0.45078128726392874,-0.5442511442633583,-0.49223071270228863,undefined,1495111414279
903d185fccf839df,0.080307652887625,-0.5475752664069491,1.5244421562215562,1.631685457966408,0.039290166638784166,-1.8864193066017683,2.0011501148213946,0.08767113840807592,-0.5447452480216544,0.0495007284200065,-0.02273012612893768,-0.07975081498780924,-0.7390819964349377,-0.2984573769813908,-0.8370744509188083,0.021369688427683355,-0.7524238751125872,-0.17128321337486213,-0.7755916031421894,0.6612404176443557,-0.31924289135337425,-0.4502792521061821,-0.4780925645629243,-0.4781307658214284,undefined,1495111415797
903d185fccf839df,-0.10403246082916741,-0.4336942398594306,1.8964025864105314,1.871159489847461,-0.13813810491818496,-1.8680322925557649,1.89561337250725,-0.6095902483374122,-0.674635997608473,-0.43176988120769505,-0.01763375090031097,-0.04799877506115263,-0.7826008244206774,-0.3336390107896004,-0.8486534041142746,0.0840086075894206,-0.7698157130634413,-0.1232415007058704,-0.8184540672211223,0.6492604280025817,-0.30840950223803315,-0.4241217275583096,-0.517175991868134,-0.5191086244427142,undefined,1495111417276
903d185fccf839df,0.020708874031889236,-0.6432587549427238,1.769438307848095,1.7464851225206155,-0.07253592929085419,-1.930556059935268,1.8444846885236081,-1.0153744404409133,-0.5245640106604375,-0.41542561969022385,-0.043733922417145396,-0.04428149215198346,-0.9001016599821747,-0.2873473219222532,-0.8265480910129698,0.2517190287073392,-0.7226723553097588,-0.1506821480241661,-0.8091972856054752,0.6228828864701439,-0.3219362958744201,-0.44499246124366765,-0.469752064532178,-0.5529897439114022,undefined,1495111418779
903d185fccf839df,0.13990615570008288,-0.658521159507876,1.9506338865957884,2.062736277960951,0.2067927478695363,-1.934646204891571,1.8440981136995829,-0.8717575567164947,-0.2936740456777443,-0.20499639587503643,0.15931967161021474,-0.017001985782257784,-0.9566761363636364,-0.21420644988562781,-0.8054954595480982,0.26788384907162416,-0.7229214777324511,-0.18725490052390092,-0.8073361330925929,0.6805192691487498,-0.3242774244841628,-0.44162858393827326,-0.4772919180778779,-0.595411660954836,undefined,1495111420274
903d185fccf839df,0.1412922380091181,-0.7101785377985428,1.9136290053902472,2.2537357073773863,0.13629457908353823,-1.9453537175429945,1.9076868232543278,-0.4996235780556397,-0.24538984283363383,0.10482410077225161,0.21117081750229555,-0.024916723065164462,-0.8870460115864528,-0.2503139863693049,-0.7802322340577016,0.1284619483853688,-0.7318167851493563,-0.1968366445569449,-0.7863387033274803,0.7228803910367808,-0.31951426287061757,-0.46454887490170543,-0.5041189207039478,-0.5905745082270195,undefined,1495111421448
903d185fccf839df,0.23554114228778925,-0.6473678891575658,1.9506338865957884,2.1676149143268475,0.1566808322982217,-1.9408676040697188,1.931057902872337,-0.3411782830418478,-0.23081032547772867,0.03881016859511551,0.242990016396946,-0.0704500671936161,-0.7695451760249554,-0.23364898148524585,-0.7770743363930773,0.1749358775944919,-0.6964978385326309,-0.22054718490443068,-0.792866728052815,0.6696941585940462,-0.34173082531541127,-0.44423020078172915,-0.5095147901838026,-0.5908251693485012,undefined,1495111424608
903d185fccf839df,0.26187539495388856,-0.6632172941068433,1.967222167695502,2.2663967135513747,0.15398597782966236,-1.941014346139085,1.8146626873914924,-1.092306035892706,-0.2555276256294841,0.3559401020638231,0.26955972087538677,-0.09208497637654595,-0.847879066399287,-0.2623497886946155,-0.7981270488425205,0.15472982387441417,-0.6955484907599604,-0.25581534880302964,-0.8097780200518508,0.6475665915857577,-0.3674183620903282,-0.45145755020685574,-0.5329612533162831,-0.5871098426800944,undefined,1495111425005
903d185fccf839df,0.19950476202876996,-0.5939494951005272,2.2683632707364563,2.585773122959167,-0.1865837434788066,-1.9331764560264766,1.8888284858561737,-0.73216769846168,-0.2828386579001338,0.786984005155809,0.18182450301305134,-0.12794867145840158,-0.499728442513369,-0.2392039442609419,-0.8054954742725658,0.19514195957929115,-0.6420086051781628,-0.29673883186508304,-0.7807902333911123,0.5047306121644961,-0.3996346881211491,-0.4640044884430395,-0.5341078356076446,-0.5419345863584215,undefined,1495111426531
903d185fccf839df,0.19257476454851066,-0.5076581734647139,1.891936637798314,1.8232731526662975,-0.43733875441437003,-1.8874534901971338,1.9208174413760077,-0.5608269096659754,-0.42814145328237785,0.20268873513861918,0.12791615019181246,-0.05357125466746327,-0.1863928810160428,-0.2817922684911353,-0.7718112227002621,0.18503893271925229,-0.5956371163253117,-0.2586525103166876,-0.7394810620302638,0.5131997593677725,-0.3715804592319485,-0.41932270518524556,-0.514684047259564,-0.5120328394211123,undefined,1495111427995
903d185fccf839df,0.21059297193072518,-0.4560008244020395,1.831325483634732,1.8350253992680738,-0.5284391732501295,-1.8696976988561178,1.9038367815558537,-0.65225133721712,-0.40646423266695564,-0.1837098825442816,0.07170106987058743,-0.130328448762177,-0.3996351381461676,-0.327158197141535,-0.7476006493973637,0.11229709975636232,-0.6458594049155613,-0.31240020200559676,-0.7080234007569173,0.3658212399264743,-0.4087740600726569,-0.3828419658773036,-0.6040801817618144,-0.5147146127240315,undefined,1495111429483
903d185fccf839df,0.037341102621297736,-0.4653930497579855,1.8721584297094378,1.855126227347898,-0.2860464331726237,-1.8800837762898028,1.8414840780577402,-0.9926950201282017,-0.5334392725511055,-0.12680033562991855,0.001983419988707295,-0.0850073908983091,-0.8043602384135473,-0.3373423236236559,-0.7454953891957701,-0.02510421251671818,-0.6750615345833348,-0.33919488662159203,-0.7017122774134422,0.31035603696534764,-0.4307433255607069,-0.4016667253260318,-0.5908158122954112,-0.4615382262510629,undefined,1495111430987
903d185fccf839df,0.23138324041478095,-0.5305518168474327,1.73689988352867,1.9413658284322586,-0.07512793257053468,-1.925040421472816,1.861641542557022,-0.8922415220791042,-0.579802368902976,0.44726000190063586,-0.05334218287912833,-0.046495627688512245,-0.8826941287878788,-0.3216032084642898,-0.7633901524449525,-0.07561945987579863,-0.680195681161502,-0.3697576735727455,-0.7087580676178626,0.2734305660236852,-0.44543458129109004,-0.4430616944520241,-0.5584431726185272,-0.48893771438687383,undefined,1495111432474
903d185fccf839df,0.11357197204480306,-0.6291704096018066,1.864502045834159,2.0289364146936926,0.020169051889240987,-1.940157184012119,1.8789930051893116,-0.8193052688818063,-0.5027025908854391,0.8944213612155294,0.01800105737598552,0.0364891897117129,-0.9218610739750446,-0.24846228462456624,-0.6833900291929131,0.1304824802691006,-0.6717370531500411,-0.33435018592645366,-0.6592556300353142,0.2984684395713417,-0.4024199236148943,-0.42894614289768224,-0.6137532784452492,-0.5178355197947792,undefined,1495111433978
903d185fccf839df,0.2078208763234742,-0.6356276038091342,1.7413658321408876,1.8546017627955882,0.025877611346966197,-1.9351446602874902,1.8665014266904922,-0.8991089524997566,-0.46036338812071653,1.1410777280371773,0.0070517978767206824,-0.015847070299270405,-0.9044535427807487,-0.19661560707997391,-0.7318111610742425,0.013287306510262416,-0.6967059848515786,-0.30229915488017667,-0.6715000493875865,0.2503328977061699,-0.40034061938340015,-0.4590822138453676,-0.6032071309859652,-0.5664818767643138,undefined,1495111435490
903d185fccf839df,0.25633134176102557,-0.582209151296111,1.6941530320878566,1.9472404090685742,0.1307711557348285,-1.9115285043917432,1.810731133308385,-1.195043846406575,-0.43842294557561967,1.3830182411982386,0.040968072103469595,-0.004430495556467984,-0.9392686051693405,-0.200318932864804,-0.7465480266588007,-0.14027891092126765,-0.6953126261826238,-0.317409558012744,-0.6860744059726913,0.12263358667186991,-0.43708385231983327,-0.43625180529157753,-0.5831581798937957,-0.5462604084057597,undefined,1495111437029
903d185fccf839df,0.4670056391330978,-0.582209151296111,1.6756505914850859,1.9285080651445852,0.2575835098228836,-1.9086681987753698,1.8657177484008916,-0.769377835693681,-0.4638392260421662,1.0761434603948092,0.06411696584442371,0.007901229201037715,-0.9088054255793226,-0.18365392798074492,-0.692863751635721,0.01732853986605519,-0.614543283095194,-0.2772586953195457,-0.6411688742861275,0.1905099368646382,-0.38895732293001195,-0.3690785189635268,-0.5113699835614668,-0.6071971226697574,undefined,1495111438477
903d185fccf839df,0.5349203597564891,-0.5610765967497449,1.8134609267750141,1.8592622262069425,0.20343960294099142,-1.902358292148369,1.9181797458831662,-0.43257369998207523,-0.44265353121721307,0.6610537263332092,0.04198392930830786,0.08493217246509523,-0.5606548016934046,-0.20865142235605902,-0.6918110847237553,0.09815289606997377,-0.5962221006228843,-0.2814511028380593,-0.6403782339352496,0.19676170440998655,-0.39441593272973813,-0.3157575526128953,-0.508242175557743,-0.6041993231893422,undefined,1495111439992
903d185fccf839df,0.45453145043833654,-0.6039287062266023,1.9302172864899607,2.094282167581521,-0.13383868688497205,-1.8993349396680526,1.8317590638016559,-1.1357963529702988,-0.43565426921348316,0.8180768162843378,0.06159046972114888,0.0668713514810178,-0.4213945521390374,-0.24568484856442913,-0.6507584150836401,0.0395552102640293,-0.6107297473375859,-0.27603010345992507,-0.631107459077107,0.05546556782364051,-0.4151140510269664,-0.28462499656236134,-0.4823740871810779,-0.5918292249793249,undefined,1495111441479
903d185fccf839df,0.03456907602486623,-0.5916014497220379,1.9774298324060422,2.1000076649428654,-0.4812175315187941,-1.8777964639011113,1.8221471227143335,-1.2692084631578122,-0.46764265197015975,0.9524842977379546,0.011210068907011973,0.10914771372516738,-0.8957497771836007,-0.3475265407611987,-0.6654952953926658,0.0718848509925992,-0.6481045557192302,-0.3350341409811557,-0.6446532838394,0.10470979687243243,-0.4429373322691533,-0.289833382839691,-0.508428923874202,-0.5852578811360396,undefined,1495111442992
903d185fccf839df,0.16485453308960535,-0.6356276038091342,2.3793774060791812,2.468735457435063,-0.5140906174212622,-1.865321057590181,1.8418627802317233,-1.0987849060643264,-0.5187555097466022,0.39006020935636687,0.011693458622659308,-0.02951099051319681,-0.9523242535650625,-0.3780790626660816,-0.6212846691900562,0.11835892152532995,-0.5910581893091988,-0.27468118684974385,-0.623487931591977,0.2162099439299675,-0.39153926106813053,-0.2888488544723419,-0.47687436778144954,-0.582951725452416,undefined,1495111444489
903d185fccf839df,0.05813137110535349,-0.5516843713937988,2.120344762462089,2.149295773419273,-0.5598516871503479,-1.8607860298872032,1.873189021612392,-0.8844834021162612,-0.5825407739674298,0.23639867787812882,-0.0008660308409781597,-0.06197046961469197,-0.8348234180035651,-0.3947440805009152,-0.5939162423959362,0.06178182413256034,-0.6296080151570421,-0.28845533885530816,-0.615336647006287,0.26314440622912816,-0.3841421951174177,-0.32305342753947747,-0.5103908266460058,-0.5865210762521965,undefined,1495111445986
903d185fccf839df,-0.19412325620237184,-0.5487492817891957,2.253051265396747,2.1080475658255873,-0.521331753817824,-1.89651190073029,1.8384045776780498,-1.1450597918736083,-0.517554052573855,-0.2052381292006161,-0.027916727801542873,-0.07434726587709975,-0.5563029188948306,-0.41418656029743506,-0.6370741427887098,0.055720143687200394,-0.7688761347009778,-0.31788452858369176,-0.6329266292933368,0.21610215393679344,-0.41699461881054106,-0.39572481567309076,-0.5700812862932862,-0.5424945947168774,undefined,1495111447498
903d185fccf839df,-0.14699887307385573,-0.5675337763430763,2.0603717461785087,2.0690137627867102,-0.26514589640635544,-1.8978349085734154,1.8412579133885838,-1.049830149161589,-0.5435823341355261,0.016238845807539096,-0.03955144863372459,-0.07919272117123446,-0.7826008244206774,-0.37993072555849666,-0.6549689354868274,0.05369938568569633,-0.7872370302004517,-0.34508452030499703,-0.6196606763299365,0.2395847842789782,-0.41596678067882287,-0.41757710633322837,-0.5945766395087096,-0.5351091776854127,undefined,1495111448990
903d185fccf839df,-0.3354967506420175,-0.5728168820981764,1.8976788621705356,1.9091745196842298,-0.521084890855277,-1.9214953190851447,1.8082827810461217,-1.3813434716097934,-0.5000835432988056,-0.21306820212969338,-0.03252689504505912,0.0016783446414444067,-0.8565828319964349,-0.3456748908195582,-0.654968950211295,0.20928630458928738,-0.7770817860961576,-0.3669648388002366,-0.6332414872080625,0.34133771190920037,-0.4072170645263748,-0.46188861595223174,-0.5954308900476855,-0.5534700122444094,undefined,1495111450534
903d185fccf839df,-0.24263392867238157,-0.5651856871225984,1.1352550529159158,1.3105508744095937,-0.3450760376595773,-1.949266838338109,1.9624393779821556,-0.3554488311150952,-0.5287348122416088,0.040012370668535475,-0.04748127118409448,0.03553331100671125,-0.7738970588235294,-0.3864115521573366,-0.6549689354868274,0.13250318174116157,-0.7768178162455355,-0.39200529862109107,-0.6331365350449124,0.31060241382912623,-0.425301626574876,-0.4727507923029293,-0.6013044947388644,-0.5384852797995889,undefined,1495111451976
903d185fccf839df,-0.3022325004956589,-0.6338665442007739,0.8979147768907568,1.0992766895368693,-0.5227717466459703,-1.9689885077819533,1.9687193497008642,-0.3959323889726334,-0.511130652099984,-0.29180770523785654,0.0010108821843285462,0.0807441029673082,-0.5650066844919787,-0.38270821342173195,-0.6465478799559853,0.0920910460362846,-0.8426929751078825,-0.4311175591879137,-0.6596054700775491,0.26117340576395837,-0.4594956323059141,-0.5247644240536388,-0.5603643406028348,-0.5253378307163524,undefined,1495111453483
903d185fccf839df,-0.31886466007424796,-0.6872849236438163,1.6609767240253788,1.8819684905474228,-0.4992277922245045,-1.9885354831749966,1.8931019122945114,-0.9096888375380555,-0.43408100295170055,-0.14647047939862867,0.08120651951783917,0.05070868460939506,-0.865286597593583,-0.37252404808728734,-0.7486532868603943,0.2355541518136112,-0.8415372902641833,-0.4736939405719131,-0.7044200430086192,0.3011785696450986,-0.4825578926119966,-0.5593747622571222,-0.563746077280903,-0.5344479648684055,undefined,1495111454984
903d185fccf839df,-0.17333312573995502,-0.6908070574745332,1.387907334280784,1.5217363352373836,-0.6653006614768862,-1.9604541760596776,1.9111450184753482,-0.8182047923287543,-0.44804243319942916,-0.23671498459161847,0.22051719455134455,0.034694658606790885,-0.8000083556149733,-0.4854757564908709,-0.72760061122212,0.31031660145439754,-0.803617397814589,-0.49782879007254366,-0.6963177360745976,0.293263768618396,-0.49127030998023713,-0.5589304587514399,-0.5158965035113413,-0.5336458319709028,undefined,1495111456487
903d185fccf839df,-0.08047016574868016,-0.7506826457388993,1.650130159023988,1.7514993613606828,-0.584815078419898,-1.969824704738632,1.8687656984716703,-1.0890598321814133,-0.4136134368301812,-0.10563527665040581,0.23780027306189683,-0.059110504421516975,-0.865286597593583,-0.5197316430329075,-0.6676005482320257,0.3305227682333614,-0.7903059458626674,-0.5398732061642318,-0.7083942308892268,0.29796029457374934,-0.5147694009663595,-0.5194202426322932,-0.5618156228965544,-0.5064542687805106,undefined,1495111457991
903d185fccf839df,-0.027801522394842623,-0.7448124957576855,1.3611108801966314,1.4558791806457994,-0.48416953141209584,-1.9518266747424118,1.9529431634363001,-0.5056131900621199,-0.44060492660391304,-0.08767519597896219,0.48208927627374815,0.039873708605729634,-0.9349167223707665,-0.543803351289725,-0.7012847850798618,0.35072882195343913,-0.8168914135329856,-0.5378973292982254,-0.7199039849587555,0.3930149006695803,-0.49792409431471873,-0.5428453726877235,-0.48226681960787526,-0.538906758839743,undefined,1495111459484
903d185fccf839df,-0.3216367556814989,-0.7407033761568396,1.0006343904782007,1.06766954993796,-0.5896287792164903,-1.962727513274458,1.964614231207961,-0.49368289838105844,-0.3939926145832347,-0.3350129824419993,0.429616902572785,0.01123007430774404,-0.8870460115864528,-0.6086116820319971,-0.7339164212758361,0.33860523494494693,-0.8168914135329856,-0.6226574474875127,-0.7541743641127702,0.6043739634172639,-0.5006095327428686,-0.471727643819217,-0.5380867696065792,-0.6468264144350759,undefined,1495111461022
903d185fccf839df,-0.36044512803154,-0.725440942363695,0.9368333093254563,0.9031987768719465,-0.6656092211611162,-1.9516612977735177,1.9207122476661793,-0.8127942739971659,-0.40121421636781096,-0.4848299673154574,0.4101317902559952,0.04326353551758116,-0.8000083556149733,-0.6280542136316152,-0.7697059330497334,0.20322448282031977,-0.8067890425879125,-0.6535938772408392,-0.7823925025741553,0.5652927065052222,-0.5339880927866072,-0.44192269526422384,-0.5056491610835354,-0.5927052272015195,undefined,1495111462487
903d185fccf839df,-0.49350254268189114,-0.5827961955222247,0.6069815926972923,0.5647004003390541,-0.8818248606212885,-1.925722889159378,1.918550532458714,-0.8531997623045681,-0.45498660581830314,-0.5575425585295067,0.1334292051356379,0.036599163384854985,-0.6433405748663101,-0.6761975653913774,-0.8528639392419294,0.20322436976143363,-0.7767331506538792,-0.6706611596043006,-0.8443912440398937,0.5467529773263055,-0.5673968122766213,-0.44406361512891096,-0.4840150327850594,-0.565431754286716,undefined,1495111463983
903d185fccf839df,-0.5115206120424667,-0.49415681389392585,0.5980494413359082,0.6534996107208574,-0.9935378193549288,-1.8432538450671356,1.9033476328740069,-0.8830455315780937,-0.4654348060696232,-0.5125556076015091,0.033333303387273035,-0.04881027562564312,-0.7129706996434938,-0.6974917275064741,-0.8981271660964008,0.17695655080183134,-0.7706501225701317,-0.7039154464777925,-0.9096155151485026,0.5010041955822927,-0.616862370427383,-0.4446743565976848,-0.4821035349949372,-0.5073100740721646,undefined,1495111465478
903d185fccf839df,-0.6515081967001258,-0.45600075133205864,0.4532211141876528,0.4319465928705007,-1.1149810446462203,-1.7550502145265565,1.872584169958319,-0.9979641549931662,-0.4122177676846533,-0.5878266890075405,0.05783173434409112,-0.13252086682327596,-0.5084322081105169,-0.7437834357999831,-0.9223377173125978,0.22747176989619025,-0.790163650239148,-0.7538823716771652,-0.9131838881817748,0.3814198677348637,-0.6660083071024182,-0.4276199097701263,-0.4990494826197577,-0.5209926072962636,undefined,1495111466980
903d185fccf839df,-0.6154718164411066,-0.5786870613073827,0.5259540925648322,0.5225381591850924,-1.1955900507902957,-1.7069747166640503,1.865157608119548,-1.0067219076012517,-0.28726926488809895,-0.5873902255785021,-0.003660051938868013,-0.02889456735982284,-0.6346368092691622,-0.7697067810476665,-0.9444429862404999,0.32850217982018654,-0.815624900984328,-0.7682708180954932,-0.9410451897105266,0.30093219512376207,-0.6961462441838756,-0.4245229741955502,-0.5193091786261224,-0.5286582362634171,undefined,1495111468487
903d185fccf839df,-0.5184507475443649,-0.5205725764933653,0.2752154624291221,0.24975361805693289,-1.110887335340419,-1.632150237100073,1.8688445915280578,-0.835707840842184,-0.2074860666435516,-0.5217897007106023,0.003360368730104972,-0.051366309628320624,-0.6650999888591801,-0.7604484342086549,-0.8939166088820446,0.6578612568164992,-0.6195466019132277,-0.7560229042261373,-0.8782907933368667,0.4758585296720954,-0.643358304318874,-0.4267651736753485,-0.4379424568655439,-0.3209620908349519,undefined,1495111469990
903d185fccf839df,-0.5503291224141468,-0.3867330400097196,0.020011137818144037,-0.12727112429614312,-1.0866645191529136,-1.5812377263458932,1.8618177441029344,-0.7785002026147624,-0.1940607187471827,-0.6334717633792373,-0.07396201455266653,-0.00034328469188215597,-0.7738970588235294,-0.7419317729075681,-0.8802323954849846,0.7710151972195447,-0.5950623759857887,-0.7421980877686775,-0.891843616561643,0.6042815665384617,-0.617256548124493,-0.4011379329707106,-0.4171311031216233,-0.3485064313341702,undefined,1495111471483
903d185fccf839df,-0.5226087874390122,-0.4178448349101531,-0.17075473017093562,-0.287111849449832,-1.151073556980578,-1.6389562746881194,1.8465885381034168,-0.9824424830833335,-0.1358422146348195,-0.6060344125909073,-0.022679277940624343,0.08311815416711485,-0.5432472704991087,-0.7558192705022301,-0.8854955533512024,0.7609122268889489,-0.6151450580365554,-0.7659656252736595,-0.8835523959602825,0.6134128449035064,-0.6204042134010468,-0.4155518295130243,-0.410507314649378,-0.3919204093776009,undefined,1495111473029
903d185fccf839df,-0.6057697233535962,-0.38731999655185634,-0.14204335417287758,-0.27539547040424256,-1.2569442346190196,-1.6763335767147292,1.863277289739106,-0.9371136714048554,-0.13335626918136465,-0.761384706280477,-0.07183241640975373,-0.025885655302577276,-0.5258397393048129,-0.714156751816695,-0.8697060503036137,0.6396757349801533,-0.5926278183024617,-0.7613869066737784,-0.8748623563743185,0.6248076920566934,-0.61449909200701,-0.40421791010704333,-0.4080876581870876,-0.400795895044842,undefined,1495111474504
903d185fccf839df,-0.5406270293266364,-0.6233002596205928,0.27521597070302095,0.2462276787981115,-1.2161408777862792,-1.877353908682121,1.895424043941977,-1.0332610671772395,-0.40082529329953565,-0.6861626516457652,0.024313225720821147,0.12338358198440974,-0.5563029188948306,-0.6604583984289131,-0.8981271440096994,0.5507689968588138,-0.6083231513997,-0.738822627587171,-0.8799630322007612,0.5718832350443444,-0.6147766644405448,-0.4134941272579637,-0.42341439590014085,-0.3938399941292941,undefined,1495111475986
903d185fccf839df,-0.510134719513185,-0.6397366795679916,0.5087276735851164,0.4632237013833065,-1.232495135777366,-1.9108413806214428,1.887326859698258,-1.1152498599213656,-0.410472105567842,-0.6573260156839266,-0.0029205169571424995,0.03846278650175094,-0.8696384803921569,-0.7002692542220331,-0.9076008296413384,0.45175923187743544,-0.6938456755192115,-0.7641860667216824,-0.9113087440290669,0.4049178895624809,-0.6693211344417571,-0.42674376273998915,-0.4099518752050807,-0.35805192528643925,undefined,1495111477485
903d185fccf839df,-0.5239948697480474,-0.6385626349577527,0.31222034363466333,0.2629445432305291,-1.2092700277634358,-1.9337354719976856,1.9537452419699723,-0.708830503260856,-0.3839565140990306,-0.6150517491953574,0.01962153500209089,-0.05224875075052957,-0.8304715352049912,-0.7465609236632185,-0.988653568269707,-0.08370187005794111,-0.8316915774596897,-0.8098465912170285,-0.978219246045122,-0.10389294150175302,-0.8125348745303292,-0.42027934281391377,-0.5381394825302367,-0.5085506940850276,undefined,1495111478977
903d185fccf839df,-0.7914956260834412,-0.6638043091049647,0.689285368589757,0.6977046714030424,-1.4249096618317978,-1.9509974637945713,1.9384976268224483,-0.879679469130524,-0.3231422005747471,-0.5086755521048364,0.028166376954568344,-0.21929752846124886,-0.4866727941176471,-0.7863718118332748,-0.9886535535452393,-0.40093730351631857,-0.927651229984075,-0.8283071229446393,-0.992387787733955,-0.3633259529790143,-0.8768162947156726,-0.4411046827995083,-0.5779992177957578,-0.47531876676807033,undefined,1495111480484
903d185fccf839df,-0.6598242419840107,-0.6866979524876835,1.018499201474868,0.9803827098739915,-1.3183909799485443,-1.9547871363902705,1.9341400398643822,-0.9006040357971073,-0.32178961918433685,-0.505856708980263,0.028210831069158875,-0.16013732888686313,0.37500000000000006,-0.8280343240434225,-0.9928641181218294,-0.40901978436026487,-0.9873599735732546,-0.848148235524665,-0.9938011436227996,-0.5039753518275967,-0.9140239222747242,-0.43494297454157754,-0.6006252079356887,-0.47539796834444065,undefined,1495111481992
903d185fccf839df,-0.6515081967001258,-0.6720225629206525,0.9406616283315703,0.9159800533166093,-1.3552549202909774,-1.9425958991643644,1.914227140802089,-1.020471696315172,-0.33113454230383343,-0.563295203856904,0.058452842687588526,-0.19380717705558595,-0.08194769385026737,-0.8687709983319754,-1.0191799221773863,-0.5039882594564074,-1.0263504473674825,-0.8624480221876527,-1.0209697605138537,-0.5448120286530431,-0.9364435054662417,-0.4558903214150733,-0.6055935441006342,-0.48043976905184616,undefined,1495111483480
903d185fccf839df,-0.6265598883214228,-0.5540324021582921,0.5112799709681756,0.5334764495352654,-1.3397338039300508,-1.8924846466358918,1.918858230462939,-0.9448436000964163,-0.3544103959061558,-0.526847231297187,0.040787699834838514,-0.11401453981585459,-0.5737104500891266,-0.8622901782085227,-1.0065483241566555,-0.5807713823045332,-1.0278556890160815,-0.8656461589606655,-1.0202420916994317,-0.5686334232064937,-0.9384132454190998,-0.4557527465100557,-0.6131606824354193,-0.4872728184044524,undefined,1495111484990
903d185fccf839df,-0.7069487631341657,-0.48241654315949045,0.6318641414153374,0.6059776560429289,-1.3022732966963078,-1.8902462479772144,1.9717988589844895,-0.5627355468797547,-0.3744634688570662,-0.5051038034025381,0.04619505749735602,-0.04969812950166542,-0.5998217468805704,-0.857660995075936,-1.0276009850704622,-0.5585446695094768,-1.0344025867624993,-0.8476542658070951,-1.0151064331888273,-0.4827870895203509,-0.9141363124331532,-0.4517024073526005,-0.611035055219308,-0.46475208211907415,undefined,1495111486525
903d185fccf839df,-0.5697333258418721,-0.4530657494114326,1.22776674765587,1.2081231399682841,-1.1723443752873055,-1.9063995207484645,1.9597622385799252,-0.6193842595024144,-0.42933287821198907,-0.45185817074474294,0.09595183122108039,-0.0885263952360749,-0.8130640040106952,-0.8382184699517052,-1.0318115128358833,-0.3787105765889014,-1.0133318070283777,-0.8145773012015435,-0.9994545678571722,-0.3994661019509215,-0.8776524191200581,-0.44569431026716166,-0.5851280194861304,-0.47253684550332115,undefined,1495111487989
903d185fccf839df,-0.5614172460525776,-0.41608374607380044,1.5837770346251339,1.457667977999392,-1.0485868686404831,-1.8860629315032778,1.943107669675415,-0.6556753653167994,-0.4890126526364693,-0.5154515079656665,0.12267733945233666,-0.04604871330500799,-0.8087121212121212,-0.8067401230760021,-1.031811523879234,-0.3463808651985276,-0.9924038537466593,-0.7984282942040873,-0.9957602519528521,-0.3000845347444173,-0.8473252570054852,-0.45730754618712816,-0.5956487284248257,-0.4874724507462883,undefined,1495111489485
903d185fccf839df,-0.5780494228838715,-0.4413254494490048,1.4536225749365856,1.4122374401172064,-1.090079370841756,-1.8939217845242127,1.9389183828063699,-0.7042659623740892,-0.47186985900429906,-0.6501431718672895,0.10865667747898246,-0.04652182364977033,-0.678155637254902,-0.7474867745355878,-1.0191799221773863,-0.36254571382753414,-0.9315614183044301,-0.7464981554847333,-0.9759452836724436,-0.2891208422463146,-0.8120012911184262,-0.4600561795284239,-0.5584305528956585,-0.4770404131657824,undefined,1495111490977
903d185fccf839df,-0.5558731756070098,-0.41608374607380044,1.2545629476030733,1.1722628891181566,-1.1504358410794937,-1.8912874154041732,1.8662594711540537,-1.1908718100614057,-0.48302705817680014,-0.6523727009916687,0.12782124347326518,0.001667320566797977,-0.8174158868092692,-0.7400800970643785,-1.0191799221773863,-0.3544633319101132,-0.910618748727185,-0.7299881715337024,-0.9720760471108316,-0.22012040521287193,-0.7923108062760229,-0.4609874991228636,-0.535154292596559,-0.4741707446544145,undefined,1495111492479
903d185fccf839df,-0.6279459016196386,-0.48300354354361563,1.5212522292323936,1.4892358152355663,-1.2067088881465826,-1.8936306318368266,1.9759407957734054,-0.4788780652792761,-0.4313286264655042,-0.8983526736886555,0.09500460967728667,-0.020264655693268414,-0.8174158868092692,-0.7261925865189419,-1.036022047963538,-0.3888136599783833,-0.9388317109202806,-0.6972088545612217,-0.9680948617158852,-0.17820583692347697,-0.770132812331946,-0.477487999584068,-0.5049411245351167,-0.4794687421227333,undefined,1495111493980
903d185fccf839df,-0.6958606222430299,-0.4501306598068294,1.4785053777915802,1.4820644215344918,-1.166759242105498,-1.8782110679482251,1.8957632733997214,-0.9765223981577824,-0.40398058083631433,-0.8654258039043577,0.09978675882884062,-0.25050579655151317,-0.5345435049019608,-0.7160084211844974,-1.028653615171259,-0.35244270109985604,-0.8957795134355355,-0.6937320687979235,-0.9680738712649041,-0.14936455129504422,-0.761659035768187,-0.4800078967853866,-0.5085571423139753,-0.4811001339746498,undefined,1495111495507
903d185fccf839df,-0.6944746434502239,-0.4043434899533612,1.5442206184473817,1.543750031448843,-1.0178429238674578,-1.8545064006695446,1.9324464338635328,-0.6712936075829602,-0.37792975652539346,-0.7774997286377834,0.13279527115448592,-0.29754775918957044,1.071301247771836,-0.7197117599201021,-0.9960220121053367,-0.2978862769144259,-0.9231238500876338,-0.6855879030571608,-0.9677170335859893,-0.19217222923185154,-0.7656193315784631,-0.4788840456477457,-0.5125895205298736,-0.46487306109332,undefined,1495111496981
903d185fccf839df,-0.6043837100553805,-0.3673614281597445,1.562722804913203,1.555130494545653,-0.9425927652942719,-1.8394711609470034,1.940217506764933,-0.5947933855108096,-0.32741422220795974,-0.8299619182226147,0.0685759847175564,-0.16869017550812151,0.38370376559714797,-0.7400800905889912,-0.97602197761121,-0.23322684000131763,-0.9264085454516245,-0.7050363742033013,-0.9600135448597041,-0.18182447405349453,-0.7696404640613776,-0.47802945536236463,-0.5186499910711723,-0.47308021052463217,undefined,1495111498489
903d185fccf839df,-0.6154718164411066,-0.44191247906112235,1.4670209290471368,1.4999121124753436,-0.9645115873936939,-1.8361566528599984,1.9175380565539273,-0.7522912639176826,-0.3449061306446132,-0.7816656145862885,0.05583754384041891,-0.042069289964477403,-0.45620961452762926,-0.7419317599567935,-0.9728640799465857,-0.2332268117365961,-0.9671419665724794,-0.720203774825565,-0.9618257191092119,-0.1490873759787453,-0.7693010972488105,-0.47479386153803915,-0.5247317213809035,-0.4987695390340789,undefined,1495111500038
903d185fccf839df,-0.39648147378514953,-0.3068988687392454,1.3138980801436004,1.3857310526023952,-0.8276398187732801,-1.8323413591869542,1.9037736516074208,-0.785953483641547,-0.4000475391291395,-0.8765644436858455,0.01841540656259105,0.09195380466068188,-0.4083389037433155,-0.7234150857049321,-0.9791798752758342,-0.23726805922474964,-0.9157869980926787,-0.7326606740479318,-0.9617277635917777,-0.15771050670758494,-0.7759651699103731,-0.4686515019237803,-0.5391512226526788,-0.4945097074444733,undefined,1495111501491
903d185fccf839df,-0.4699402476014039,-0.293984465710594,1.0810242610045577,1.169759396855953,-0.8073564178837712,-1.8025410735546785,1.8910979884374302,-0.8460656692930542,-0.35019878396734844,-0.8066738320674647,0.022398233455609706,0.06335480991498431,-0.9436204879679144,-0.6863817372012093,-0.9686535300944633,-0.24130926431582086,-0.941651622719137,-0.7033898088028862,-0.949161491801684,-0.1292233851628693,-0.7526885842863988,-0.4682397150326328,-0.5787507664455744,-0.49456363596947933,undefined,1495111502977
903d185fccf839df,-0.37014729012986974,-0.30161571914215674,1.383441639805516,1.3344277593778455,-0.5635236866665587,-1.8355021390009538,1.895584443621628,-0.7831754503352145,-0.47399322697988827,-0.6666620979406344,-0.0034914031354846263,0.014598536185242296,-1.013250612745098,-0.6558292347224882,-0.9160218925344142,-0.0796606084374268,-0.8950355540771024,-0.6700278621747852,-0.9204115960990462,0.007761187142772879,-0.7034978765723029,-0.4760249786665079,-0.5454768472391662,-0.42632517379748097,undefined,1495111504480
903d185fccf839df,-0.25094993945085664,-0.46480603475986415,1.522527996718499,1.4381084854679156,-0.4787386855923619,-1.8082779923291545,1.900431177166497,-0.6810367088491427,-0.3584869302108522,-0.6020357936788842,-0.03636439272294122,0.12215651347007797,-0.847879066399287,-0.594724203863497,-0.9128640022320238,-0.06955763810683101,-0.8202000152571967,-0.6126513932272105,-0.9094056128591838,0.0872941598248777,-0.6653338121583559,-0.46493356651654194,-0.40310193331243227,-0.4376443512129201,undefined,1495111505977
903d185fccf839df,0.06783339518204429,-0.5464012364107064,1.4127901371357785,1.3857947407341795,-0.2710190334823805,-1.8295346286639023,1.8672851028850501,-0.8146735161434749,-0.47586955959007066,-0.8839319885140556,-0.0069244675998573965,0.17434036514874326,0.2574991644385027,-0.5715783076267252,-0.9528640564958096,0.15675044055231055,-0.7346596798906677,-0.5411017946464863,-0.9338664631273946,0.26967334911770025,-0.6069832732263928,-0.4778644199666702,-0.35971288577768096,-0.44926639243214284,undefined,1495111507493
903d185fccf839df,0.3131580940203298,-0.6262353053832074,1.3177263991497146,1.3371823868550279,-0.08665819346722961,-1.829793173400278,1.8603766029009212,-0.7837428560184446,-0.4512336560172227,-1.2020842642785443,0.060915453973852,0.08003882885901925,0.031201258912655985,-0.5021408131780282,-0.9276008604543482,0.13856503177485074,-0.6576119109298065,-0.47378260266372646,-0.9303050865196242,0.3175779108682888,-0.5724505611332337,-0.47041836940698367,-0.28930142049352775,-0.4071751087844168,undefined,1495111508990
903d185fccf839df,0.12743203601614111,-0.6808277878924734,1.3221926018988814,1.1767728413399654,0.062319850624081116,-1.8923611959683888,1.8560321644364128,-0.8409375462803987,-0.46208774478512865,-1.5383634842737386,0.18828768580767555,-0.058602416724334715,-0.17333723262032086,-0.41140909833574885,-0.9360219012607227,0.19514195957929115,-0.6289631626363946,-0.4209278542394499,-0.9148981094952484,0.416559117079647,-0.5186318580469558,-0.478542989704464,-0.29954655535417074,-0.43786716047670005,undefined,1495111510477
903d185fccf839df,-0.09987428291288121,-0.6080378696694367,1.446604328941309,1.211358189637468,-0.010163457744355345,-1.9124462251808687,1.8972517468739927,-0.6524622380358115,-0.3617656736715349,-1.45293249309361,0.14681433573328073,-0.12893579128733146,0.057312555704099835,-0.36789492323318607,-0.9549693314218709,0.33658461826705055,-0.5942331618677444,-0.41540552640599426,-0.9333417021954197,0.5050077890693477,-0.5049044165997219,-0.4702815846150605,-0.28274480393345075,-0.44671096543100836,undefined,1495111511980
903d185fccf839df,-0.00839740523064156,-0.6033417350704694,1.3349528181294303,1.1690962210386022,0.14887398564334622,-1.9260233600992913,1.8685290030659198,-0.7790174832930438,-0.4177465346070259,-1.6971029855447624,0.133909908711525,-0.16369842458092454,-0.36482007575757575,-0.3604882457619768,-0.9812851281151941,0.32850217982018654,-0.6268865513064793,-0.41952193985720226,-0.9306899107875202,0.509350148612005,-0.5042219607046025,-0.47247752017535416,-0.2854653771521002,-0.45625313729203065,undefined,1495111514693
903d185fccf839df,0.013778807540810477,-0.5722298817140512,1.3324002666094217,1.1138211686241521,0.12092774759203599,-1.9111371924695226,1.91586288065152,-0.4750890349998712,-0.42061223490495975,-1.5424449497086943,0.14285226242255594,-0.15443824278264376,-0.36482007575757575,-0.3901149038437158,-0.9823377582159909,0.31233733119118007,-0.6587854817542433,-0.43316310046079126,-0.9409332418131026,0.4864218647829514,-0.5167832682109261,-0.4683238592442548,-0.313575184320041,-0.48175074588916006,undefined,1495111515036
903d185fccf839df,0.05397333121070623,-0.5698818655635541,1.0842139338567707,0.8878319035062472,-0.013825169114889978,-1.9292400392448723,1.8810126937256302,-0.8017295830276453,-0.4273765018746834,-1.0554672421597815,0.12152047774278049,-0.023189454210791324,-0.2516711229946524,-0.43177742900463806,-0.9823377655782247,0.2678839338657888,-0.7087399713886425,-0.44537301659056955,-0.9453272387072175,0.38051135767650796,-0.533305968975171,-0.4728112810445024,-0.4428485847875245,-0.5172754070266318,undefined,1495111516488
903d185fccf839df,0.019322929744492956,-0.6015806608481129,1.019775223097923,0.8878319035062472,-0.2440293565933916,-1.941633921415751,1.8687840960969373,-1.0034315081821021,-0.4590754652488876,-0.49160214102335875,0.0753866059218466,-0.07096618176044628,-0.6563962232620321,-0.4873274582356096,-0.9854956706050827,0.14664744195699322,-0.6993333556069331,-0.4852452300830894,-0.951057626913089,0.31937952700654487,-0.5669322073696035,-0.48676953761511077,-0.4190557067830259,-0.506753187737889,undefined,1495111517991
903d185fccf839df,0.05258731791249048,-0.5710558809458007,1.2577533828661347,1.278937148553061,-0.30475611155641824,-1.9334862437696851,1.8582753867909028,-1.1038584121021164,-0.419073680250597,0.15110799283720555,0.08225118090122599,-0.06782317187870318,-0.7956564728163993,-0.48454995742159973,-0.9876009455311439,0.10623522145795163,-0.7200686714759021,-0.5304751160749092,-0.9541712068845878,0.17109249420862516,-0.6124726217600286,-0.4957067261313879,-0.4970252947234526,-0.5106270584233331,undefined,1495111519499
903d185fccf839df,-0.004239365335994304,-0.5945364808706562,1.8153753404150206,1.7581465972997463,-0.3690417179468209,-1.9335561214400196,1.934092690831775,-0.6019112751152011,-0.4245158720748462,0.3248894854984075,-0.009122140775073105,-0.017180543060906037,-0.8130640040106952,-0.4678849395867661,-0.9739166916417981,0.08804981268049182,-0.6978906463430753,-0.5230149098569379,-0.9418988006864177,0.11219344005348382,-0.6182031307285929,-0.4973860001547206,-0.49288351257567425,-0.4989062131102296,undefined,1495111520992
903d185fccf839df,0.3297901155772799,-0.551684386007795,2.064837694790726,2.0992562377684267,-0.35703830989503,-1.9430873686243826,1.8342310607258518,-1.2474323490741577,-0.4173458427341676,1.1078524151077789,0.010401070902826095,-0.055196918462125405,-0.7564895276292335,-0.4678849913898643,-0.9791798605513666,0.043596387090378996,-0.7301460053859623,-0.5228122575417278,-0.9442357354335891,0.11073058501669993,-0.6204073658167318,-0.5013381990885093,-0.5188329746443231,-0.5202566427753398,undefined,1495111522478
