UUID,iqrAccX,iqrAccY,iqrAccZ,iqrAccXYZ,meanAccX,meanAccY,meanAccZ,meanAccXYZ, covarianceAccXY, covarianceAccXZ, covarianceAccYZ,pressureDerivative, pressureIQR, iqrGyroX, iqrGyroY, iqrGyroZ, iqrGyroMagnitude, meanGyroX, meanGyroY, meanGyroZ, meanGyroMagnitude, covarianceGyroXY, covarianceGyroXZ, covarianceGyroYZ, class, timestamp 
903d185fccf839df,-0.5239947662318183,-0.3808627731165364,2.3787395223361285,2.262099122288156,-0.8223541068350364,-1.7953124049480198,2.021953656485928,0.06681703126356181,-0.42906608452039946,-1.2312722089634558,-0.11786921254658217,1.1440584435618018,-0.10588304924242424,0.050582056022324386,-0.9076008517280397,-0.400937275251597,-0.5304227560417616,-0.26548458789786744,-0.8612414747572671,-0.23298650208541766,-0.5285586113360587,-0.3636917579732734,-0.6072476146910937,-0.46065018547348974,undefined,1495509337858
903d185fccf839df,-0.38262134080299204,-0.44543459827784304,2.610975711869068,2.547698374162117,-0.7659378746422252,-1.8422280904246868,1.9639100669307024,-0.35064785873179216,-0.46224374728576667,-1.11876937977377,-0.053118549139405453,-1.4207260903571146,2.446496212121212,-0.12902974962214278,-0.8854955533512024,-0.3221336205197394,-0.6218336074942746,-0.3078193643700764,-0.8860577733542937,-0.15754967198782147,-0.5406959090493141,-0.39866392774631176,-0.6146734268793979,-0.47179908919680924,undefined,1495509339279
903d185fccf839df,-0.18719325872211254,-0.451011138462023,2.4824159615381514,2.449447667222579,-0.626944734385268,-1.8274918395327653,1.9239248890011644,-0.5235386699371161,-0.3623313053320609,-0.9791036476797352,0.04462441450874484,-0.8595201385088981,2.7163129456327986,-0.12995557459296303,-0.9402324658373127,-0.3322366473797783,-0.6049704624119122,-0.2877905453317314,-0.9295489615169829,-0.15630149553103131,-0.5380366902400907,-0.42803093095527567,-0.6384622893391021,-0.514005053007158,undefined,1495509340799
903d185fccf839df,-0.16085893704519377,-0.430759106412839,2.8330034742806185,2.8302006727358235,-0.5518596955941666,-1.8245384073155955,1.9163493984823816,-0.5061289924566954,-0.40973583832915655,-0.9000690705711529,0.053614389059779555,-0.7369100120382035,1.071301247771836,-0.15310143197741116,-0.9423377334011401,-0.22716500409998924,-0.6281449936892923,-0.3080274358309122,-0.9242060768009033,-0.06899674718362882,-0.530149722322072,-0.43902336458188146,-0.6358612925602479,-0.527214376299992,undefined,1495509342312
903d185fccf839df,-0.07908415245046439,-0.4389773748425231,3.0767238584210523,2.969737791491753,-0.5440734250505966,-1.7876851850358184,1.851069725824274,-0.8457287445550705,-0.36903469327658456,-0.8679947414657923,0.05414103149845577,-0.21908280406034286,-0.852230949197861,-0.19476397008910798,-0.9728640946710533,-0.18473225171721586,-0.6581242642716819,-0.30364315786488444,-0.9325644442697475,0.0031920044182204743,-0.5217198677930203,-0.4530689615040951,-0.6232550374675984,-0.5537419868660964,undefined,1495509343784
903d185fccf839df,0.05951741890897898,-0.3685355166119719,2.459128630451637,2.4201068981219067,-0.4833055330289084,-1.7914725293694775,1.86128125791122,-0.7313731566850302,-0.5105413219443216,-0.6120553453297659,-0.04162628270588387,0.03592637321023644,-0.8696384803921569,-0.2836439961374231,-0.9023376791373543,0.06582302922363158,-0.6694023926993659,-0.34348228572625367,-0.8576641958756204,0.24035470500312694,-0.4631790554494623,-0.5333571202675512,-0.7059207624008331,-0.3799098145539016,undefined,1495509345338
903d185fccf839df,0.2840517457469795,-0.32509631906701225,2.5790751712926956,2.5058335540400827,-0.3837605566865044,-1.7768775158006709,1.8972438496071884,-0.42559951081938774,-0.5091075310289115,-0.5868735780310798,-0.0027267313703498463,0.07778302739256404,-0.4475058489304813,-0.31141905608061976,-0.8907587259418879,0.13452385494850105,-0.6515685160322945,-0.3002472811176284,-0.8493589805881377,0.37475233434086386,-0.41925725935989605,-0.5227093787792524,-0.6863025678384015,-0.40279255688435184,undefined,1495509346785
903d185fccf839df,0.426811115463202,-0.35914321818604505,2.5899212280201875,2.402799073802616,-0.24386478644303708,-1.77069105675697,1.8438509011750215,-0.7231237101553779,-0.43078284803467304,-0.7254143631160643,-0.006202070881656044,0.08987254195769738,-0.38657948975044565,-0.2984572992767435,-0.8739165927935023,0.20524501470405154,-0.6862580741387379,-0.2866504516789845,-0.8123388531997383,0.5289985638302456,-0.3787212374673593,-0.4883513344415507,-0.634384643554545,-0.3991854298092232,undefined,1495509348305
903d185fccf839df,0.3131580940203298,-0.405517432265627,2.9612440286030592,2.633797426668391,-0.39682338214281143,-1.7568367408779941,1.8030073829896673,-0.9713148117799106,-0.4289187118735693,-0.9536141763674901,-0.04853316968634456,-0.02759004599353579,-0.691211285650624,-0.3077156784926915,-0.824442867622545,0.18301831604135588,-0.6347148936581658,-0.2853711950297315,-0.7928247479399534,0.6272560442364622,-0.3599459979112221,-0.5058076823892298,-0.5958889205745386,-0.4270762547935808,undefined,1495509349784
903d185fccf839df,0.31315795599869084,-0.505897143084346,2.9210489662714063,2.7956902981101837,-0.29768983334585863,-1.7858101483955058,1.803554385776432,-0.9921618605934718,-0.4122857852535504,-0.9135063997897689,-0.10825959693128072,-0.09688856096614329,0.005089962121212133,-0.25679482591891944,-0.750758547061988,0.09411160618473792,-0.5726274952432336,-0.27756267466161744,-0.7882068524738446,0.5729611270467854,-0.3636787138878868,-0.4292973461777589,-0.603505227957177,-0.37944791362119035,undefined,1495509351277
903d185fccf839df,0.2771217137613105,-0.427824031422232,3.0180268637605274,2.9188880698084527,-0.47462439499790643,-1.7346740301762704,1.8254317396458948,-0.8463866411168062,-0.44938995988699654,-0.3147371196791225,0.05207702673679811,-0.0951551721548806,0.10083138368983958,-0.2614239637237952,-0.7676006728481398,-0.012980568978782931,-0.5827804205035109,-0.2564106441356115,-0.8031730295688355,0.35764466357708447,-0.40558093438527043,-0.3752206957758009,-0.51720315974857,-0.5349608934300736,undefined,1495509352786
903d185fccf839df,0.29652583092551155,-0.28870133072750154,3.2630230153870663,3.023265936405042,-0.4488278639206707,-1.7246699483675412,1.8701673782183041,-0.5502990942602063,-0.3677676432598948,-0.07448541976111439,0.2011403998011755,-0.13938924595218044,-0.9610280191622104,-0.22531646609244174,-0.8212849552334532,0.0779468140851745,-0.6500786065586343,-0.2866694489376036,-0.8139970964048981,0.3865783434322446,-0.4169236384899657,-0.3840466078409566,-0.541693919979485,-0.5683415958471428,undefined,1495509354338
903d185fccf839df,0.3519665353811903,-0.13020713509476523,3.1622170530287805,3.0017897254471286,-0.2222442459587933,-1.6444579374298578,1.8846497153202983,-0.20724503832025515,-0.33781856481607236,0.12753657490972192,0.16304937383360107,-0.05037869984689917,-0.9523242535650625,-0.314196518042306,-0.8244428381736099,0.04157585520664722,-0.6130555257790516,-0.30152020130742113,-0.8259896313547109,0.3072609507230259,-0.4368813074255508,-0.41665749282154435,-0.602436709023891,-0.5964071781078684,undefined,1495509355815
903d185fccf839df,0.26326154627374326,-0.05859121763997896,3.180719493631551,3.1602335318164316,-0.0660765070135143,-1.6519580886047294,1.8867009612363013,-0.12045018290472272,-0.3552243944524413,0.08267067684913189,0.12641689472003084,-0.016225194870635413,-0.8609347147950089,-0.2984573769813908,-0.8276007579249355,0.06380258213406441,-0.6231500650769871,-0.31825817175128457,-0.8325316495733406,0.34152249495080683,-0.4404906962429457,-0.3713308855431485,-0.5996946474042756,-0.5792021801582449,undefined,1495509357285
903d185fccf839df,0.27989370585233225,-0.15955800191280398,3.277697136983723,3.192258873439074,-0.04418854464389475,-1.6471575259900542,1.9283360450266038,0.1646576271820209,-0.5006007041841126,-0.15345652667104062,0.056798939648412566,-0.021874692822299417,-0.9001016599821747,-0.3623398957036173,-0.8402323338589649,0.21130683647301915,-0.6993784011138621,-0.31996173304129993,-0.8534241275362096,0.45502443742583204,-0.4277265273435455,-0.43707075491738134,-0.6207127060161671,-0.615190674342,undefined,1495509358783
903d185fccf839df,0.23969932020407544,-0.18538666183014502,3.291733628974276,3.260924725773695,-0.13025925871012484,-1.6503066559955322,1.9186531005551657,0.08587345863928611,-0.4654204117862526,0.36445286990686077,0.05655859763161032,-0.030237695872045067,-0.6520443404634582,-0.2567948518204685,-0.8391797037581681,0.3547699987797888,-0.7112701255114742,-0.2760934306986426,-0.8777240518577188,0.5183428436335704,-0.3966030777618976,-0.4380046845398748,-0.6987275006842363,-0.5991704109001852,undefined,1495509360291
903d185fccf839df,0.36444044803267367,-0.22471672516026264,3.626689940368558,3.4724283053763614,0.03858045773822226,-1.618170142753641,1.9184032744637285,0.22961800838018806,-0.4884589819792462,-0.07718292499253011,0.19715230590388524,0.07979681590472491,-0.8304715352049912,-0.2743856687245733,-0.8412849565975279,0.3143578913396334,-0.6606172301184531,-0.2697414873320352,-0.8818661642943207,0.47983132834145364,-0.4024610669003719,-0.4217263761784599,-0.7014097176991905,-0.5582530414756408,undefined,1495509361794
903d185fccf839df,0.06228927297836181,-0.17540734840609676,3.174977269259329,2.974036680124606,-0.01586174940770508,-1.5816919251596955,1.8488527946955287,-0.2527018933509176,-0.37530472531601655,0.5726970587325431,0.16975836166567748,0.10155155373274315,-0.2647267713903743,-0.32345483250438123,-0.8402323264967311,0.23353361992987942,-0.7371638544733985,-0.32959413896829975,-0.888988916953209,0.4844046646331166,-0.4342828086237724,-0.4207285002751169,-0.7092407011417899,-0.5364391145525755,undefined,1495509363294
903d185fccf839df,-0.025029633820050058,-0.16836322688462477,3.134144831458522,3.0247179810120848,-0.005493762795887635,-1.6207649149116257,1.8882025774427602,0.013624729278219137,-0.5242808619321869,-0.0498003128236931,-0.14964444537089738,0.1957090414455001,-0.029725100267379668,-0.2901248356870376,-0.8339165311674827,0.09411160618473792,-0.760636682401747,-0.2873724035431044,-0.8856514373025283,0.43748560180253754,-0.4246390293106993,-0.42971967285526086,-0.7041840986717525,-0.5544804458655591,undefined,1495509364813
903d185fccf839df,-0.001467200717923861,-0.23939210011329734,2.9880402285502625,2.8344926259307113,-0.25932419157850317,-1.625877594966284,1.8987717685621321,-0.005885679749005548,-0.5851682190953876,-0.4153206965185908,-0.20921925299575692,0.010704507109471538,-0.5911179812834225,-0.2771631565878086,-0.8128638702536759,0.10219401636688039,-0.7968828577209943,-0.26471313096573595,-0.8490021413554895,0.48676062448434354,-0.394849143908203,-0.4445878098033913,-0.7210516017648146,-0.5601135033701248,undefined,1495509366292
903d185fccf839df,-0.4047975535744441,-0.07972378680034124,3.2483488937904097,3.230454098300601,-0.46585069778270705,-1.6441947343174301,1.9609719448996965,0.41099272471133075,-0.6664475434662599,-0.6404692859794435,-0.35093281788647984,-0.22184836694775775,0.17046150846702318,-0.2234647772984776,-0.8286533806634986,0.21938927491988316,-0.7807816949316229,-0.2760807649330945,-0.8640662762128758,0.5595798746018473,-0.3954074177454981,-0.4260303791483072,-0.7076424706862823,-0.5541591595846791,undefined,1495509367784
903d185fccf839df,-0.36737519452261874,-0.21708547172869994,3.4442185941347594,3.25376024494879,-0.4125193640376538,-1.5981619801582096,1.9035711707513243,0.08384763289909766,-0.6494721343750697,-0.6342624708592451,-0.06663300887753329,-0.19286247069685877,0.6317610851158646,-0.230871480671236,-0.8202323104081888,0.2456572069383716,-0.8416389367783161,-0.25933012822538287,-0.8626039420790078,0.6327378917038525,-0.37456161756400325,-0.4665955821274566,-0.7212309591185584,-0.5654257690325809,undefined,1495509369287
903d185fccf839df,-0.1941232907077816,-0.23821801166106987,3.227932293684582,3.1254428649997545,-0.46755813618239844,-1.6034656584874327,1.8284297288194136,-0.4328414537824336,-0.6064668068222958,0.12864021215009366,-0.19943712739568462,-0.1689211006428915,-0.7042669340463459,-0.21235474814088912,-0.8044428515340027,0.2375747967562291,-0.8489938443833136,-0.17360106794816133,-0.8452588486497723,0.6559741495171226,-0.32431132973141835,-0.456894277548243,-0.7283590508605284,-0.5812624230786236,undefined,1495509370826
903d185fccf839df,-0.059679897264624394,-0.232347861679856,3.0173889800174747,3.0437002189942817,-0.3136943932136947,-1.5787803797117508,1.8294500963605747,-0.3632612172879221,-0.6704056662511001,0.3901356505483938,-0.1511759392215019,-0.06435039240957963,-0.843527183600713,-0.27623729276466474,-0.8349691686305132,0.3002136028590802,-0.8141470186230331,-0.21486653004077058,-0.8677955768566903,0.7496736878903443,-0.3345023900758968,-0.44851815938891343,-0.745240471382907,-0.5565621716298358,undefined,1495509372281
903d185fccf839df,0.261875463964708,-0.1994750217850583,2.7570800606403782,2.695955275007208,-0.2978338458317123,-1.550724695014735,1.8421678379572672,-0.2011281304564324,-0.48141338132335987,-0.08889815362262968,-0.136326174020971,0.13207211806581168,-0.8130640040106952,-0.30771570439424056,-0.8739165780690347,0.21938933144932624,-0.771377423882498,-0.25313650828461026,-0.8763456800966624,0.6160767768138395,-0.3850136129419888,-0.4174866002279051,-0.6523501483985882,-0.5476981595627864,undefined,1495509373783
903d185fccf839df,0.25078721955734307,-0.1489916734906343,2.9261527986266764,2.5689827044258573,-0.1264124163679125,-1.6068616881607793,1.8330371498562705,-0.270887389019034,-0.5168956833806511,-0.5092345870794427,-0.21861296056480653,0.1523852886515222,0.10083138368983958,-0.34474903994718886,-0.8707586877666442,0.07390560899410327,-0.7430977590049984,-0.28347130937964765,-0.8472669339647336,0.5952272798756181,-0.40237778839201194,-0.42910504400624117,-0.6097289565978425,-0.4902052860426712,undefined,1495509375318
903d185fccf839df,0.16624040836618217,-0.08324593524505425,2.661378438911261,2.648108017864774,-0.24350479146184087,-1.605268487446689,1.8546068211724545,-0.23788977014546667,-0.5822621660826369,-0.5703853852005684,-0.11459796317553937,0.13981695449926806,0.30536987522281644,-0.37993069965694753,-0.8918113192315158,0.09007048588783129,-0.7197081558797692,-0.315199359661661,-0.853794959154965,0.5704819794704404,-0.423327252866811,-0.40441202041343605,-0.5953534276682476,-0.4895416515512196,undefined,1495509376787
903d185fccf839df,0.08862366366610004,-0.16484104921191944,2.867456058103101,2.6122897545099897,-0.18509232658261834,-1.652873477871837,1.9216326801878578,0.08467901531138453,-0.7391257722493327,0.2737512118591318,-0.21871528596061549,0.14316458106895733,-0.7695451760249554,-0.37067239814564684,-0.8981271440096994,0.10017348448314861,-0.7106801498284548,-0.3634690569133358,-0.8686911686794903,0.6457187853480012,-0.4374310434679493,-0.40569922207762704,-0.5908005294919342,-0.496921258048592,undefined,1495509378284
903d185fccf839df,-0.12205049568433325,-0.18245152838355339,2.9369991094911176,2.806279675999094,-0.2986875615546523,-1.5722282268929997,1.8733310312613094,-0.10191334549106502,-0.7306290055474857,0.4580151171203322,-0.14230546738751923,-0.058315604551482665,-0.7564895276292335,-0.39381821667777134,-0.8823376409621106,0.1102764548137444,-0.7423222642767073,-0.39317056369046405,-0.8558450236835797,0.5842943841472469,-0.4548737170590115,-0.43302065777176957,-0.6023208483215363,-0.5168561391705395,undefined,1495509379789
903d185fccf839df,-0.170561168154343,-0.18245152838355339,2.9861260690472053,2.8401661058081844,-0.2447390767248786,-1.569917623640188,1.8792060085327684,-0.011492089937847194,-0.6070823410045499,0.13279793128423442,-0.20224087338579508,0.04725595090646124,-0.7564895276292335,-0.3697465990763757,-0.8107586247765499,0.26788401865995337,-0.7263283432586746,-0.3725505000790123,-0.8349035686501631,0.7384174253864804,-0.4103028564900438,-0.4285667157709749,-0.5962718946583863,-0.49092415633406467,undefined,1495509381286
903d185fccf839df,0.22999722711656517,-0.1918437683534956,2.819605120170068,2.8010326798739174,-0.10427758949934629,-1.5699968188527036,1.8944194336164604,0.11053340174857935,-0.6881386073271604,0.16926284443693335,-0.1943825808125225,0.06487496306925074,-0.9131573083778967,-0.3873373641773823,-0.7981270267558191,0.32041965657915794,-0.8142132793770753,-0.3878762240606709,-0.8447480812967313,0.8299611821780359,-0.3999843090392973,-0.4688438987594882,-0.5957311606498509,-0.5600556995477062,undefined,1495509382786
903d185fccf839df,0.008234823358766937,-0.22295562170991381,2.3768256169700206,2.540316664658224,-0.33502691736848245,-1.6146832744337904,1.8907508541183482,-0.10852630999692561,-0.4467787254469736,-0.2824212346155305,-0.29374402614905515,0.018205358230885215,-0.8870460115864528,-0.3845598504125979,-0.8339165679786515,0.2739456708405918,-0.8021718030414818,-0.3911946850804078,-0.8469030983432859,0.9057369312633881,-0.38864039535943395,-0.45544953526440873,-0.5563411051647483,-0.58023380997489,undefined,1495509384289
903d185fccf839df,0.7220323620480741,-0.23234792013584069,2.788342971610647,2.572997262523933,-0.10005017006306871,-1.6036543266117436,1.8722817412505972,-0.047485340131502705,-0.4219329203871026,-0.016452405716435477,-0.3381991768656433,-0.016156765434555315,-0.9392686051693405,-0.3614140189296989,-0.8633902696988328,0.41740891794152607,-0.7163854660180419,-0.34861830411719497,-0.8415365456793402,1.0663581136942564,-0.331939857695374,-0.4371551082999834,-0.546842572792336,-0.6401665764173344,undefined,1495509385831
903d185fccf839df,0.49611191839562857,-0.25700255005693895,3.2904573532142716,2.9317643042920163,-0.188322025956224,-1.6292293724681792,1.842470264046184,-0.28523190469594156,-0.2441566797357293,0.21107814545326115,-0.24722578850972862,0.08222843911459266,-0.9218610739750446,-0.3067898535218712,-0.8486534041142746,0.46590343556382396,-0.6768850863533965,-0.28296467715762597,-0.8207700120372627,1.2336776259119115,-0.27290782682002923,-0.4043810406839046,-0.48224170833216823,-0.5885478404248197,undefined,1495509387282
903d185fccf839df,0.4836377297008673,-0.2523063716159832,3.488240958924729,3.4976349763647034,0.0344455939132117,-1.6516785800743605,1.8810442673419012,0.053887064329289115,-0.4255741773487398,0.6963965576108816,-0.2548698278089171,0.028829913051771572,-0.7651932932263815,-0.32993571090631935,-0.8107586026898486,0.5447072316192892,-0.7255866958089242,-0.26627103685996084,-0.8160121795645194,1.1987231564720169,-0.2631061325897031,-0.4185780260185885,-0.5467571018240036,-0.631686968181234,undefined,1495509388787
903d185fccf839df,0.3838449102509721,-0.18656072105438012,3.7172874756054552,3.825327721931041,-0.13887868741216017,-1.6919045408675373,1.9524040416797521,0.3302456051073133,-0.3340537440964333,0.821389445409912,-0.28458502856656787,-0.018587845164998777,-0.8261196524064172,-0.26975649206737384,-0.7823375531571656,0.54470706203096,-0.6586358783195839,-0.20129503492923914,-0.7828892769538515,1.265829583207788,-0.21843343819129046,-0.38932413108331715,-0.5227262898963076,-0.6232735232302686,undefined,1495509390292
903d185fccf839df,0.19257473004310094,-0.2370439816648271,3.982700227337822,3.825327721931041,-0.06329938241266993,-1.6437847861909651,1.9393496830137296,0.38097477047395767,-0.37758063734655223,1.0332214811503249,-0.27228055008414465,-0.015202760315115625,-0.8304715352049912,-0.25957231378215473,-0.7528637778146464,0.6275521479716611,-0.7341945929438224,-0.06127365075362274,-0.7734365860711666,1.337971300554434,-0.1439018523705892,-0.39312887678813796,-0.568190955753094,-0.6021762936131618,undefined,1495509391781
903d185fccf839df,0.5307622508510224,-0.24995831162349763,3.2457968505443,3.4779968907089733,0.03176103486222294,-1.6200242172960915,1.9574401109916064,0.5688622191665788,-0.3248305478742791,1.0909149512168017,-0.2622913793318766,0.04275009791647233,-0.9262129567736186,-0.2438331338689159,-0.7876007183856172,0.5709751071083345,-0.7789527876160605,-0.08438889669868667,-0.7745070977315722,1.267585006325222,-0.17228038505175752,-0.4126965490631964,-0.5047864806136986,-0.5470706065338348,undefined,1495509393283
903d185fccf839df,0.41710922940815015,-0.26169867004191005,2.758356082263433,2.93251714288556,-0.22937223795748118,-1.5376250499785502,1.886758809710789,0.05049254487409354,-0.29504263803137737,1.0153718004786054,0.18612602531765998,0.015410362500915722,-0.865286597593583,-0.25401728625258596,-0.8033901993465046,0.6093666826647582,-0.7807229699777656,-0.13284224794944938,-0.8017806659660903,1.2484755351898227,-0.20026353979528924,-0.41681001816773633,-0.5962279450832729,-0.6297303886786996,undefined,1495509394782
903d185fccf839df,0.3353341687701429,-0.2775480749911875,2.6103375739890655,2.2340557018994014,-0.28832985503841446,-1.544745535743956,1.7962882285930406,-0.6368879337026347,-0.3754513146315941,0.4795978475789783,0.20657942078192199,-0.010786581076555404,-0.8217677696078431,-0.27160816791056347,-0.8644429071618633,0.370934988732403,-0.705564591750416,-0.15987758498992555,-0.8610226644724852,1.2143833741581218,-0.23961652768448524,-0.399204848786214,-0.5614434324368714,-0.5753827239785279,undefined,1495509396285
903d185fccf839df,0.3519663628541417,-0.19008272335913143,2.2919697978314466,2.121026829862262,-0.43648503704500125,-1.5265075932398449,1.809576638065105,-0.6355747309807152,-0.25197664799533825,0.10036115615433813,0.36191523671869824,-0.039871182218998505,-0.6650999888591801,-0.3012348000907534,-0.9160218998966481,0.4962126574675482,-0.6967991812865778,-0.20006011316003405,-0.8874706095312714,1.1400396781164455,-0.27290478302580473,-0.40811741731909496,-0.5684164754028725,-0.574625520748951,undefined,1495509397810
903d185fccf839df,0.037341171632117205,-0.2317608466817346,1.8849186459399867,1.9224850560763243,-0.6167213071323155,-1.4812388279494293,1.73956331655363,-1.0235150477008816,-0.5132127009297344,0.3329428896184285,0.10535089707620872,-0.0780444270353667,-0.7303782308377896,-0.4252965894550236,-1.008653591720483,0.5851194521183308,-0.642425765895102,-0.38577368688712,-0.9459359609231671,0.7930357115325443,-0.4321183864537273,-0.42024690274687715,-0.5791029193924895,-0.5685348995678553,undefined,1495509399288
903d185fccf839df,0.18010057585374942,-0.32685733483338403,1.992104716413547,2.1348593284900623,-0.5907910652444267,-1.4640583573474706,1.7958464271106374,-0.6073079549193334,-0.44039733005077875,0.4884592273027733,0.04583107217266829,-0.009545728160385705,-0.8087121212121212,-0.35215571741839813,-1.0097062439079811,0.3446669436550284,-0.7682636614936562,-0.3519747655784026,-0.9415349660865192,0.7444690142987856,-0.43210718439538726,-0.40125765094379345,-0.605613249489191,-0.5591873647676135,undefined,1495509400781
903d185fccf839df,0.3907748387204119,-0.33918470824991787,2.061647767801564,2.3102385911412537,-0.30796526483053527,-1.5158070637110286,1.8217947185749874,-0.38036042752850924,-0.5570872027368405,0.4596671057617789,-0.08015058795819936,0.0044765184315314005,-0.8043602384135473,-0.32623235921994015,-0.9991798987266103,0.33052271170391834,-0.742643607310001,-0.3403221477724682,-0.9296963614225388,0.7181068745773713,-0.4239546247615675,-0.395770685232727,-0.6483864425615762,-0.5445451496749754,undefined,1495509402293
903d185fccf839df,0.5224461020509084,-0.18832173682075196,2.30855807893116,2.471147394470336,-0.22638940096827187,-1.4977671066958234,1.8876792512673428,0.12229001495098935,-0.3292841228661098,0.06360690732379284,-0.021224039758640297,-0.031570558273667865,-0.8783422459893049,-0.35122985359525427,-0.9507587815697485,0.39316154607149095,-0.6079268181977737,-0.37491901793043403,-0.9158636668760006,0.583324279741689,-0.45506775660611865,-0.37767637226416545,-0.6627997721951402,-0.5463959162548903,undefined,1495509403795
903d185fccf839df,0.012392863253414193,-0.1583839719165612,1.9595657838202232,2.1918506762859686,-0.27101903696328694,-1.549005711362724,1.8386070678309028,-0.27784194389353534,-0.37405671321326683,-0.11264795756056498,-0.16674244587657258,-0.06818277185131784,-0.7826008244206774,-0.2364264563977066,-0.9560219541604339,0.3163784514880867,-0.6518259353887614,-0.3458698044240538,-0.9097134690632668,0.6149834868909823,-0.43474917286515363,-0.38336409632429186,-0.6803222735429326,-0.5498780272270343,undefined,1495509405287
903d185fccf839df,-0.004239296325174835,-0.13959943352069212,2.0680278759168385,2.1560103334474556,-0.27277788864621116,-1.5888916041443013,1.8509592628179417,-0.341210193923808,-0.46056530111660254,-0.24953506002711628,-0.14690650512062609,0.028326717653216378,-0.691211285650624,-0.279940670352593,-0.9297061206559418,0.577036815818416,-0.7288217447982018,-0.2963335185919273,-0.8945653738822844,0.8042149773262276,-0.3674845888468649,-0.4032057471272901,-0.7520511102182439,-0.593286210852782,undefined,1495509406799
903d185fccf839df,-0.27867023992058143,-0.2581765800531817,2.371721276340852,2.3489590946105228,-0.5927659179555206,-1.645687773749007,1.8032098789038895,-0.8731716855400002,-0.4525729000805613,-0.4160688400653231,-0.08940211167759719,-0.013959687532808145,-0.3778757241532977,-0.31512235596390076,-0.9391798357365159,0.5729956389920664,-0.6854838702067497,-0.35222807896260544,-0.9182215915113835,0.8049233069475908,-0.39660926378474887,-0.41530373672634036,-0.722100734141147,-0.6151803325458939,undefined,1495509408315
903d185fccf839df,-0.10126036522191643,-0.2511323416197404,2.35577113312114,2.255157979769317,-0.4675889894905287,-1.728520179067271,1.7888563969340054,-1.0521857026112236,-0.562435260285413,-0.3517793325927521,-0.27859945041927736,0.11076903834735852,-0.6389886920677362,-0.41788991198381426,-0.9360219307096579,0.5669338737525418,-0.6732951145733048,-0.3828985263715246,-0.9407723138049514,0.6545882824130935,-0.44533384900473066,-0.4359419137393118,-0.6914382523834298,-0.6307740737368179,undefined,1495509409794
903d185fccf839df,-0.10957644501121094,-0.19125684103935123,2.205200327463714,2.001155628398853,-0.5403602957196109,-1.6817653599087916,1.804269696770511,-0.8854646798124984,-0.4919208830230855,-0.3617739203134167,-0.2718043205528641,-0.007529104402582021,-0.7173225824420678,-0.42807407731825886,-0.9339166852325318,0.3507288784828822,-0.7548832157374151,-0.41546252385693394,-0.9237700630320703,0.7817024547686403,-0.4367040927366638,-0.43694754615406756,-0.6503900468835219,-0.6579511118599204,undefined,1495509411279
903d185fccf839df,-0.12066462040775644,-0.29691954070120097,1.9908284406535426,1.9435562126592434,-0.43366675893521067,-1.701899303583829,1.7879859338207011,-0.9623805918721936,-0.6369563589937763,-0.015299560426272538,-0.36633602073116717,-0.029462806250978687,-0.852230949197861,-0.48454995742159973,-0.9086534965533041,0.5063156560628655,-0.7044967695968763,-0.4614586942896684,-0.9219019146992754,0.7634244950697683,-0.4548052399527126,-0.45455802030294,-0.6023827093664843,-0.6801061071362616,undefined,1495509412789
903d185fccf839df,0.027638975028377734,-0.25524147583458245,1.8491897863575004,1.9283997638931234,-0.4534975807608403,-1.6981142904840631,1.9082732620940677,-0.24194968084364732,-0.45388913967661615,0.264882004231473,-0.2943427890745821,-0.06134113484733438,-0.8609347147950089,-0.43362910484782763,-0.9086534744666027,0.3850792206835131,-0.7608443949862735,-0.4462152990519692,-0.9110008838672453,0.7189999834708943,-0.45874620383869136,-0.44566354301610617,-0.5887558801673012,-0.686917298029288,undefined,1495509414275
903d185fccf839df,0.29513985213270555,-0.20064902255330874,2.212856203065094,2.366604225001034,-0.19557343594267085,-1.7188305448895511,1.95975960222945,0.1978131717113466,-0.7122440212275293,0.5717673825175656,-0.3722351637025271,-0.0030277499074906496,-0.7826008244206774,-0.33919399946684553,-0.9086534744666027,0.3325434131759793,-0.7043815908091658,-0.374165398219711,-0.9041370124522786,0.8112982662567497,-0.40648889606766087,-0.4598192008213939,-0.610989961763306,-0.6624647324644181,undefined,1495509415780
903d185fccf839df,0.17594253595910217,-0.18245155761154574,2.6817947848801396,2.5699735508812154,-0.26540303719789154,-1.7284060496889309,2.038146232110718,0.6607409839557841,-0.6543465027248527,0.13988168574656407,-0.27087652941771656,-0.034982075847098296,-0.7608414104278075,-0.32252899458278644,-0.9644430244157436,0.3143578913396334,-0.7176550716162361,-0.3569524571273862,-0.8871977327937759,0.9200574868612033,-0.37854098037116224,-0.46515409036258626,-0.6180259017503507,-0.635990698533342,undefined,1495509417284
903d185fccf839df,-0.018099429307332358,-0.25465451929244576,2.6096994361090635,2.5200917835973238,-0.35032175011501065,-1.74418897407101,1.9730138226852045,0.2025225041936809,-0.6771473969446051,-0.18277818855742745,-0.2007608124023759,-0.009478408261187244,-0.852230949197861,-0.3225290334351101,-0.9623377494896824,0.33456400158915417,-0.7395752682212215,-0.30910706846411656,-0.873057177981426,0.9470817540287885,-0.35494262758579087,-0.4728190495912413,-0.6168992129194781,-0.604304621219275,undefined,1495509418786
903d185fccf839df,-0.12482252228076475,-0.1871476483685245,2.5478122603224267,2.478435741047485,-0.3537777511477146,-1.7406322260847908,1.960627432396725,0.10138728109265105,-0.7306309228791301,-0.2305686722810682,-0.1413682615865007,0.06442811171903047,-0.8913978943850268,-0.3058640026495019,-0.9360219454341254,0.26182214036154267,-0.7557291774814696,-0.31090562550938916,-0.8653257027640326,0.9167930132360228,-0.3628011371537572,-0.42305153243187943,-0.6158175487894105,-0.5973923813712354,undefined,1495509420341
903d185fccf839df,-0.06522395045748741,-0.2112153509754784,2.3787395223361285,2.4706422307680516,-0.49493865156616257,-1.702712211685559,1.8101893752013622,-0.8837718482611675,-0.525189159306559,0.1879805906879344,-0.07730766471025775,-0.028058179215131183,-0.9610280191622104,-0.31604815503317196,-0.9528640564958096,0.3810378742688342,-0.7169125610526896,-0.3338752124321463,-0.8717907557449317,0.9353789329183093,-0.3693636532103076,-0.41823770453203774,-0.605024371057089,-0.5864455008479078,undefined,1495509421797
903d185fccf839df,0.1302041316233921,-0.24584923586464025,2.115240675969869,2.2512140266788148,-0.3052189738346892,-1.6955591174255111,1.7394265638928357,-1.2904566189845756,-0.5420276671321448,0.014856427328620391,-0.10060812487052967,0.021774009723897425,-0.8000083556149733,-0.3077156655419169,-0.9402324805617803,0.4962125444086621,-0.7309948834110597,-0.41650746244276987,-0.9023598225691244,0.8857343473842451,-0.4208757547451186,-0.40994273113408264,-0.5677686525728753,-0.5732479895111199,undefined,1495509423289
903d185fccf839df,0.11634386061959562,-0.26639479002688116,1.901506672902751,1.9145436507602862,-0.3597537358056788,-1.6964372423597787,1.83698447726067,-0.6782463692414903,-0.37258099775301745,-0.4265576974749498,-0.1662754781129373,-0.048630887769065344,-0.7738970588235294,-0.31234482924834184,-0.9423377113144388,0.39518207795522275,-0.6882684779029283,-0.4469815889907931,-0.9188722960362196,0.7626853696479595,-0.4620893172683926,-0.38744696220121844,-0.5343098258836502,-0.5996844453197906,undefined,1495509424788
903d185fccf839df,0.0733774483749073,-0.30278977836639187,2.020176683846856,2.0864865464955566,-0.4564392897077365,-1.7351165867756322,1.8473380242341424,-0.7236293755754608,-0.4859044557011415,-0.6619215471877875,-0.1875039210848938,-0.072635961488193,-0.5563029188948306,-0.34104570121158423,-0.9265482450780189,0.34466705671391457,-0.7034404627384288,-0.4573232853460376,-0.9454042031619643,0.7165054334373351,-0.48139492521315486,-0.3994279436450962,-0.5566623177102743,-0.6223455363305527,undefined,1495509426286
903d185fccf839df,-0.016713485019936074,-0.3462289174553669,1.78921702421087,1.765137821766659,-0.6623692249715761,-1.7931868486999183,1.9041391995264767,-0.5209975816157095,-0.4400762839118435,-0.5104120398818993,-0.18563898136052565,-0.08600324362416382,-0.13852217023172905,-0.376227386822892,-0.9581272217242613,0.4921713675823124,-0.6976755839444193,-0.4375138366428257,-0.9443966618880066,0.7884315758594614,-0.4601375633965511,-0.42056136485483436,-0.5438998412470923,-0.6400448601381584,undefined,1495509427780
903d185fccf839df,-0.02225750370738935,-0.3356626474891819,1.7209497403089586,1.821492916009867,-0.6562800972620886,-1.79917532250116,1.9765851041690097,-0.05508910165191342,-0.5444766026368089,-0.23466927949454813,-0.19499836591917294,-0.19049641628625663,-0.691211285650624,-0.4086315845709645,-0.9328640183205661,0.4578210819111246,-0.7592925417175144,-0.43616491939592794,-0.9384353794309207,0.749658293927847,-0.46692403851982867,-0.4189553571087494,-0.5571349664994201,-0.6393272720046199,undefined,1495509429312
903d185fccf839df,-0.054135844071761384,-0.2558284616047115,1.9519093999449444,1.9155690893488722,-0.7038514435543516,-1.7748627232905543,1.9287305239263253,-0.3493885377990625,-0.37741444431533433,0.031113411057491058,-0.2299845181668752,0.06880492811561861,-0.7826008244206774,-0.4919566089912599,-0.9349692932466273,0.3951822192788304,-0.8371672372158051,-0.4358989351358342,-0.9141354555253716,0.7223260493431565,-0.46434073263612996,-0.4243729347387399,-0.627188024619419,-0.6633489753178289,undefined,1495509430782
903d185fccf839df,-0.15392887055411503,-0.13020713509476523,2.0527156164401794,2.028965130112664,-0.7197017053613274,-1.7572909430224464,1.966610251251227,-0.024676840415698013,-0.4601386768159683,0.049158129611357605,-0.24781202348011888,0.05039308709785332,-0.4823209113190731,-0.5289899574949827,-0.9149692477091499,0.3769966974424845,-0.8323312231602615,-0.43960370571989205,-0.9138625808187404,0.6740365244505264,-0.47227628980194486,-0.439998355108054,-0.6348613856409769,-0.6314070315947645,undefined,1495509432320
903d185fccf839df,0.05258731791249048,-0.1026174886390447,2.165643403012063,2.1701909966927397,-0.5637191047576452,-1.6986267243469417,1.9929109384747485,0.26950962817748914,-0.4851916444389925,0.3289551522001978,-0.1665354744809073,0.06738397907468784,-0.6389886920677362,-0.5539874907226204,-0.9276008383676468,0.4477180267863642,-0.888675310487518,-0.4467156011374032,-0.9146812078197698,0.7358458861547091,-0.4600368970956361,-0.4437798640273713,-0.6776285081148765,-0.6471896371851602,undefined,1495509433780
903d185fccf839df,-0.15392887055411503,-0.11846689358832217,1.4829715805407468,1.4887722515637156,-0.6146950209127207,-1.6992416438918712,1.971598995492535,0.055850627330439856,-0.5170582900269471,0.1771378399133649,-0.03415711005393087,-0.059743277142447586,-0.6476924576648841,-0.46973661542995565,-0.9381272129979529,0.34466697191975,-0.8729093700820089,-0.4989687192479277,-0.9410451916006985,0.6336925996833107,-0.5066881392767695,-0.45619499925387896,-0.6513932814979597,-0.6045232854358663,undefined,1495509435293
903d185fccf839df,-0.18857923751491856,-0.17540740686208142,1.7860268430847581,1.9924867675039841,-0.44219359323787605,-1.695368118559294,1.9151160206579316,-0.2639614329273881,-0.628564909113253,-0.000916302568221422,0.027984592347978926,-0.027103978731163346,-0.7390819964349377,-0.4817724177552662,-0.9739167321340839,0.24767779535154644,-0.8905287602811389,-0.5380556473313476,-0.9734124384592907,0.577981020141114,-0.5407687051785965,-0.47912022110649666,-0.6910629963644112,-0.6288055019135517,undefined,1495509436797
903d185fccf839df,-0.3022325004956589,-0.31805219754554026,2.163091359765953,2.0847357305088807,-0.7392959547767133,-1.6947578577528375,1.8226073299402972,-0.9685496550229518,-0.5914875981749137,-0.2855094556992801,0.011839733932675891,0.0006133575818781977,-0.8217677696078431,-0.4641815749496123,-0.9528640417713421,0.22747182642563332,-0.8781402726442036,-0.5494296146354868,-0.9762461465523748,0.5024516466540833,-0.5654925380559057,-0.48767673319920013,-0.614920787483489,-0.6081803506950519,undefined,1495509438275
903d185fccf839df,-0.23570372415966387,-0.28224425343214327,2.4406266981227653,2.448230945786052,-0.708757720391532,-1.6740905175589305,1.822086627806974,-0.9226827193044578,-0.5710594620391231,0.09407190373876112,-0.052110369615487005,0.04462647226638093,-0.9653799019607844,-0.4826982297753119,-0.9865483080681133,0.3244609464643938,-0.8899232435132738,-0.5447749023780135,-0.9878748459541447,0.5107360093887483,-0.5649166498794316,-0.49923805648097325,-0.619930389476176,-0.631728040631957,undefined,1495509439792
903d185fccf839df,-0.23570372415966387,-0.25289344507008926,2.2728297276225726,2.189610609412794,-0.7912490093677182,-1.685776310658297,1.8771731759548593,-0.6047511395366774,-0.584603222124149,0.22225176646850942,-0.105142608426273,-0.01634284528099825,-1.021954378342246,-0.5252866446609272,-0.9886535756319408,0.2375747119620645,-0.9127487420059106,-0.5617598576806621,-0.9853280063607227,0.44387595574730954,-0.5871616253312733,-0.4970010507041622,-0.6004667976383454,-0.6168489047744329,undefined,1495509441277
903d185fccf839df,-0.24124781185793662,-0.2599375665915612,2.053353754320182,2.359273616205951,-0.6705155004269288,-1.711898727466815,1.899105769314842,-0.4858480254323528,-0.6167563803397607,0.36533375419792286,-0.042098568608283586,-0.059603911620427164,-0.9610280191622104,-0.5752816593131045,-0.9686535374566971,0.21332742488619402,-0.9073845044546038,-0.4980757763930085,-0.9758123433665787,0.45701082940335885,-0.5604880741429689,-0.4930334500650252,-0.5997304602115647,-0.6009295316314421,undefined,1495509442784
903d185fccf839df,-0.3147066546850104,-0.34388088669087363,1.8791761674308156,2.0220508796322916,-0.7476068021568828,-1.7252406101126188,1.879960778101542,-0.6859138469555076,-0.5328742681052495,0.15629525712873205,-0.02333436545096285,-0.044169037832382664,-0.7086188168449198,-0.5771333222055195,-0.9497061441067178,0.26990443748479903,-0.8941307986259296,-0.5158903467858754,-0.9738812235523817,0.4021307721752356,-0.5761685866693214,-0.48804335039995295,-0.5935069444809086,-0.6277233977110162,undefined,1495509444314
903d185fccf839df,-0.2786702744259911,-0.37616668235955764,1.7802846187125363,2.118108130733901,-0.5358140150359324,-1.747142447127327,2.0170236373348107,0.24722496279719758,-0.5327512035016778,0.3273301493103654,-0.1335875243125522,-0.034766215448123736,-0.8043602384135473,-0.5623200190661991,-0.9539166645099051,0.24969849682360742,-0.9285827927398872,-0.5020718635433895,-0.9641556566111952,0.5326018009935758,-0.5427940379833683,-0.4833310372330025,-0.5684112562295369,-0.6357466810411626,undefined,1495509445780
903d185fccf839df,-0.2315457532758361,-0.3051378675868697,2.092272286754881,2.1694521357708396,-0.4842929560795947,-1.7166876450347288,1.9852845063351316,0.14939594840298884,-0.4305974922094925,0.2454258558624284,-0.2680165355026129,-0.03948210164675086,-1.021954378342246,-0.5410258375249406,-0.9139166396950544,0.19918336252341312,-0.8390335427934985,-0.49146418220274807,-0.9396948056884588,0.6646742702249882,-0.5009743549280699,-0.45800010677936126,-0.6123305755885032,-0.6445135969101625,undefined,1495509447281
903d185fccf839df,-0.12482259129158423,-0.21943350249319313,2.187973908483998,2.0581380619869405,-0.48015810755456895,-1.7287484452581148,1.9837197743217845,0.1616470160241617,-0.504903206316944,0.3706837583805784,-0.3132785216435376,-0.02901565444633765,-0.9479723707664884,-0.5734299834699148,-0.9118113794934608,0.288090015850588,-0.8273982035916903,-0.4993740275657675,-0.9271075428968482,0.6868018416219894,-0.49484063491824526,-0.45471297533662114,-0.6192582167841771,-0.6634869632594291,undefined,1495509448789
903d185fccf839df,-0.19828143411865803,-0.16836313920064777,2.161177200262896,2.0074172644810444,-0.5413888651913973,-1.6792008677532715,1.891021741421094,-0.36817986892043675,-0.430427036092119,0.2969387497066117,-0.3362027413144839,0.04094855366522254,-0.852230949197861,-0.5299158083673521,-0.89917978147273,0.2981930709753484,-0.8322481475642953,-0.5145287623947997,-0.9069357374758261,0.7326738097314272,-0.48489692920600047,-0.43327110729902235,-0.6143309906742643,-0.6932682314742509,undefined,1495509450285
903d185fccf839df,-0.24263385966156212,-0.22236863593978476,1.6628906293914865,1.783274734233645,-0.7082948723809773,-1.7131262368630704,1.9126387405575684,-0.37833648933674924,-0.48320955184361347,-0.07915428135368213,-0.29188118558138354,-0.03207691607250366,-0.6999150512477719,-0.472514103293191,-0.834969175992747,0.393161602600934,-0.8213208223359724,-0.5245981416791531,-0.8341689052759427,0.621189062371333,-0.4859215437708368,-0.41913910602210047,-0.6360874823591884,-0.7144286033374312,undefined,1495509451770
903d185fccf839df,0.09416764784814358,-0.1583839719165612,1.7126557268275766,1.7033845001664711,-0.3990656660537072,-1.7119732646113373,1.8174160910941686,-0.9116831715290479,-0.48992054377604505,0.24715519526437182,-0.26485813351528753,-0.05269592624430768,-0.673803754456328,-0.4919566089912599,-0.8402323338589649,0.44973869999370364,-0.8014438215276238,-0.5332932735253855,-0.8161591138836296,0.6084237505174821,-0.4873684673196379,-0.43728684011876007,-0.6435477188140245,-0.6407266539885157,undefined,1495509453292
903d185fccf839df,0.14822230450019686,-0.19536591679820858,2.3538567194811337,2.129111725380207,-0.43623817295616113,-1.6962811802892037,1.7985945615168102,-1.0168031947680616,-0.5947200315722282,0.3334532545936179,-0.21304918487631982,0.07434737680218707,-0.7347301136363636,-0.4854757564908709,-0.8644428777129282,0.4073058628167657,-0.7739912899278123,-0.5201967454136525,-0.8433907013629947,0.4812325891118089,-0.5181232648393085,-0.4387093325885232,-0.5823088258700846,-0.5848937939512138,undefined,1495509454807
903d185fccf839df,0.3062280965400705,-0.14018650697479818,2.7653740741217603,2.5714197657922804,-0.1855963044819671,-1.7052534110873856,1.7160002481887524,-1.367779070780217,-0.5026598447117703,1.2364975133625074,-0.39759373929438113,0.07936741107085303,-0.5519510360962567,-0.4012248811982061,-0.8654955225381926,0.3446670001844715,-0.7610064212603551,-0.4554550631298342,-0.8577621511789574,0.5520346382852017,-0.4817528949967674,-0.44931329538205816,-0.5440789133013565,-0.5761360941129805,undefined,1495509456276
903d185fccf839df,0.471163817049384,-0.11435773014548778,2.8062072743334157,2.5714197657922804,-0.2535950558954427,-1.6809082012800955,1.7572014244899508,-0.9572334097778354,-0.5065495551097605,0.7318337810641866,-0.49184117273751043,0.04309187499212551,-0.7695451760249554,-0.3641915456452578,-0.8707587024911119,0.3103167145132837,-0.6822737786354603,-0.4043165426026942,-0.8774231892469383,0.506116473600893,-0.47625752514920994,-0.4409741961593419,-0.5046174093796044,-0.5146078251175437,undefined,1495509457785
903d185fccf839df,0.5557106972513643,-0.1548618526998405,2.9510353473447215,2.7926998806285295,-0.20025342835124074,-1.7061827756783556,1.8121196772626638,-0.6311505500011116,-0.49584013605438454,0.8700583633726966,-0.470316901892331,0.026984242319143963,-0.8261196524064172,-0.3697465213717284,-0.9097061119296334,0.370934988732403,-0.69101245304915,-0.35481192338249423,-0.9252883711941724,0.7216023184761865,-0.4277614420327403,-0.4302730802634725,-0.5099604807237561,-0.4765328150449813,undefined,1495509459285
903d185fccf839df,0.8786519682626833,-0.22002054671930688,2.8464015742542204,2.812192227914106,-0.15894606958889257,-1.7136200352565136,1.8734493817139297,-0.32911828079821026,-0.37379880793386194,0.9503276136802674,-0.30043551310004757,-0.046791341633131305,-0.8000083556149733,-0.3771531858921631,-0.9128640169564913,0.3163785362822513,-0.6449525773233152,-0.31046231925818835,-0.9402405569674248,0.8111134775340485,-0.3968057821486365,-0.41981267521662435,-0.47416546363417084,-0.5027942795291129,undefined,1495509460777
903d185fccf839df,0.5709566364992792,-0.34857694821986007,2.4961335116571783,2.3158793416628156,-0.18555516326822333,-1.755360002993701,1.933067072456682,-0.17039768507262842,-0.3162521106467266,1.3065354262783189,-0.13482009111657273,-0.06841468665174594,-0.8174158868092692,-0.2160580998272683,-0.8676007974642538,0.33658453347288597,-0.6078571838084073,-0.22881801074234423,-0.8963985388763921,0.9511931353954348,-0.32268327023452836,-0.40073922959800345,-0.4813725560757919,-0.5302090796763288,undefined,1495509462317
903d185fccf839df,0.13159014492160784,-0.3632523816288794,1.3981157614021726,1.3458784292614834,-0.34200062251722996,-1.5945074019611865,1.9387237749931363,0.017860583703143175,-0.4743366208696967,0.8573042782992809,-0.02486344562429065,-0.008019509332621211,-0.6172292780748664,-0.3993732312565656,-0.8897060737543897,0.5285422981961182,-0.5689476152989585,-0.365039629896372,-0.9377496907171259,0.5681568054575498,-0.4653275979160016,-0.37392208952693495,-0.36565685445370466,-0.42597761994351113,undefined,1495509463786
903d185fccf839df,-0.04859179087889838,-0.3198132133119121,1.5097677804879501,1.3973311426235648,-0.5408951482366399,-1.5882510655660818,1.9198759565469563,-0.12342323745602964,-0.39759199236778275,-0.2343521605029311,-0.10904154733287719,-0.03226115990567656,-0.6825075200534759,-0.2938281873734168,-0.9381271982734853,0.61138721454849,-0.5873244895038756,-0.35491958684113284,-0.9498331835293418,0.4791845910075592,-0.47878772788674845,-0.3684038202004758,-0.33646674663278436,-0.4178552137488358,undefined,1495509465284
903d185fccf839df,-0.0943302297200182,-0.2470232366328907,1.7566783457544957,1.6333322119670712,-0.669877784657879,-1.6309762996445285,1.876686659957161,-0.4760378645999715,-0.4999333896892805,-0.6354767802057261,-0.07477133802266765,0.0682666796333957,-0.5606548016934046,-0.301234838943077,-0.950758796294216,0.4093263947004974,-0.6314015609121214,-0.3608852195471594,-0.9626793290452026,0.34624981219673223,-0.5096131172885694,-0.3934324632933657,-0.312255782060589,-0.40571796312364616,undefined,1495509466825
903d185fccf839df,0.011006815449788706,-0.2452622500945112,2.486563476552741,2.559522495420276,-0.5374288591102735,-1.7315458607972252,1.8724316314059706,-0.5506282950750636,-0.46745072556555445,-0.3833281917003251,-0.190769578575173,-0.01949083807752013,-0.7738970588235294,-0.3530815682907675,-0.9770746150742405,0.21938933144932624,-0.7156263235562019,-0.38337350044164525,-0.959006003237074,0.20312126204274528,-0.5501246932237862,-0.38209425842658024,-0.39580295168749163,-0.42195272270946743,undefined,1495509468301
903d185fccf839df,-0.02364358601642457,-0.2892883457256229,2.4604049062116413,2.336523991047087,-0.47995238412732877,-1.7927582661342,1.8436904857825438,-0.79693603706466,-0.5827772389464843,0.013374469740809355,-0.19125008691713333,0.05682197431198619,-0.7608414104278075,-0.37437569802892784,-0.9539167160455416,0.12240018314584426,-0.7785673517256176,-0.41479123339400686,-0.9748677737147154,0.20309046884052545,-0.5659301746996136,-0.428640199114463,-0.4703342137114034,-0.42985444443003995,undefined,1495509469787
903d185fccf839df,-0.03611770570036634,-0.2928104649423436,2.210942297698986,2.1944260117706786,-0.48967237422434734,-1.7565944984554231,1.883311145357303,-0.486892369942607,-0.6349470897251311,-0.01036614915779692,-0.16499926783723234,-0.035495663426035315,-0.7913045900178254,-0.3123448551498909,-0.8991797888349639,0.05774067557093217,-0.7408475274885129,-0.34098710854174075,-0.9260720150828459,0.4470172404357638,-0.47368222577855135,-0.43319336588919544,-0.37881987556566643,-0.4944272575377148,undefined,1495509471296
903d185fccf839df,-0.16085900605601325,-0.22002054671930688,1.8243072376394553,1.8650144012212047,-0.6616286584617638,-1.7073147833283497,1.8657098566335764,-0.5282424713778121,-0.5134649582667646,-0.7302783522655462,-0.23178504128774666,-0.008446607347538725,-0.8609347147950089,-0.35678486817404853,-0.8865481981764668,0.03551400517295806,-0.7788590674157532,-0.3608408865883347,-0.8981547401559177,0.5400238507563243,-0.4635963288842408,-0.438854846226005,-0.4066753404578108,-0.5304660882344244,undefined,1495509472772
903d185fccf839df,-0.07631209134862316,-0.1988880652429216,1.920008859368572,2.0641380305762507,-0.7863015967642131,-1.6321479054326336,1.9049491926110629,-0.23476896367149921,-0.6015352444207557,-0.29757363349703564,-0.2466354239495883,-0.03363378899920659,-0.8130640040106952,-0.3391940253683946,-0.8707587098533457,-0.006918860268701452,-0.7637641649128488,-0.37747753058668654,-0.8990083511868623,0.4940902888920265,-0.4826769612626774,-0.43839547113046473,-0.38780520405388536,-0.5178856299038491,undefined,1495509474273
903d185fccf839df,-0.14006880658277696,-0.11846680590434515,1.7292437537903407,1.8091408240420137,-0.7144868582211517,-1.6190995081596058,1.9210462300872577,-0.09759446011611224,-0.5519936949509975,-0.3582136456976639,-0.2987529664152282,0.01630530120208856,-0.9566761363636364,-0.3308615617786887,-0.8718113325919087,0.05774076036509678,-0.7155509145561741,-0.378687123714935,-0.8930330736399283,0.5184660255833575,-0.47482140547957946,-0.4644098253070979,-0.36036802681353186,-0.5305975475366571,undefined,1495509475775
903d185fccf839df,-0.22738774788659857,-0.1536878519315901,1.82813530250862,1.7065003636925618,-0.6524743889257425,-1.679722619971061,1.8874373093486874,-0.4322339670760934,-0.46427939619606845,-0.2598984907217336,-0.2311463839026726,-0.0996047265769478,-0.9175091911764707,-0.3030865406878157,-0.8623376248735684,-0.008939363887711695,-0.6219802969836086,-0.35037253222326226,-0.8568035870489522,0.4305870963578779,-0.4678838885289951,-0.38181528840363,-0.2546457123306908,-0.23860170554286803,undefined,1495509477273
903d185fccf839df,-0.11927853809872122,-0.3515120816664517,1.4982835858804562,1.4116187542622447,-0.4915238040604099,-1.7544399569760005,1.957421709307193,-0.10711972882411312,-0.4315573892567289,0.04211305482731204,-0.19159798621711893,-0.01386318781830107,-0.8348234180035651,-0.3493782166043883,-0.8433902536102905,0.049658208859346624,-0.6676400509637708,-0.38405745928342677,-0.7637879833216933,0.2875201410761231,-0.46833130597218975,-0.36034541803988585,-0.3800090175003108,-0.3209291821870301,undefined,1495509478815
903d185fccf839df,-0.17194707793632955,-0.33801070748166745,1.3158124937836069,1.225076582493595,-0.7012491627497613,-1.7225992564773696,1.9039446076879503,-0.5488276923700653,-0.3495600505012255,0.31199279819581566,-0.1579571243409422,-0.07678690816549846,-0.7738970588235294,-0.508621613875319,-0.7791796407680737,0.19918322119980544,-0.5916676240598231,-0.408933262352739,-0.7007677080613149,0.506255057846347,-0.41295025816596875,-0.35544784268454344,-0.4563111018480775,-0.322404771958231,undefined,1495509480278
903d185fccf839df,0.3089999161040436,-0.18949576681699473,1.5327361697029382,1.519565760946452,-0.4075102304501463,-1.7024233848890729,1.9249725334673726,-0.202180100391463,-0.3446308879858924,1.0009262746602086,-0.31037385937639567,-0.08603503069393723,-0.6520443404634582,-0.3910407029129869,-0.7433901142697089,0.5588514635703994,-0.4534729337815985,-0.2802541788305786,-0.6757331187935004,0.778761348107425,-0.29898953909204745,-0.30505995403421,-0.35421440545141164,-0.3037225251184486,undefined,1495509481772
903d185fccf839df,0.5501665060368623,-0.07561468181349153,1.9965706650257644,1.926837665814123,-0.11542728906408144,-1.6392404422378373,1.899418710165646,0.011130023145534008,-0.33930969695309204,1.7132463043714585,-0.26372313566455063,0.025015142015209053,-0.6215811608734403,-0.1521756070065909,-0.7339164212758361,0.9750966620101552,-0.3596904720680786,-0.12165826979166838,-0.5904210048813636,0.9372267510971348,-0.17595669899040797,-0.27933561475326957,-0.26539178533217195,-0.2958895853450375,undefined,1495509483271
903d185fccf839df,0.6277834577694029,-0.24467526432438216,3.2107061288418155,3.0423128198328238,-0.06723880256993241,-1.7287065208050711,1.8754112071104556,-0.20944403143152268,-0.3415262916198738,1.9477623605117582,-0.43585465883938457,0.04663471635571542,-0.5388953877005348,-0.10218054055131545,-0.7170742954896844,0.9205401812952819,-0.4077887172064183,-0.08314130699356033,-0.6637056016183056,1.0156664299119256,-0.16726338404843671,-0.3774292773020519,-0.28437921673412964,-0.5616226736434157,undefined,1495509484772
903d185fccf839df,0.2743495836486498,-0.3515120816664517,2.427228089875265,2.3895907077761716,-0.24976877827356891,-1.754437625954124,1.9312156884613512,-0.07165919339116633,-0.48723749006591294,0.8022749696606616,0.07550003543258785,0.09338637933920158,-0.47361714572192515,-0.04848217421275899,-0.7328637838128056,1.1205803562006567,-0.23392831126552407,-0.023256990965572006,-0.7199739552880156,1.4969602375231785,-0.06600571021080658,-0.38722337985729943,-0.3836441757630913,-0.5115668979814342,undefined,1495509486267
903d185fccf839df,0.024866982937355963,-0.4442605390536079,2.155435230027624,2.141974908455452,-0.3476680451003416,-1.8112384522151934,2.021844053989651,0.3198011430414084,-0.3514505867150776,-0.9505371497821148,0.2505468245841432,0.0972150579491234,-0.7826008244206774,-0.10588389223769464,-0.8086533424882549,1.3428472297687268,-0.20027814183378606,0.0694129745190312,-0.7429514805431828,1.7667564038089256,0.035449754129348844,-0.42502544910291257,-0.5127384949764191,-0.5529983797304082,undefined,1495509487769
903d185fccf839df,0.07060549078929526,-0.441325464063001,1.8938505431644215,1.659544266093055,-0.32655151130694543,-1.8193511926433963,1.976966411791575,0.03722364644374451,-0.36795830809009444,-1.4779877509502088,0.30598898909048505,0.07116497883300207,-0.8565828319964349,-0.08551553566725635,-0.802337561883474,1.5428874612035446,-0.16474785181941864,-0.03920967554632903,-0.7481431144461256,1.9492895799255776,0.04717172611336101,-0.48901444771957836,-0.6539506152024933,-0.7701147829096324,undefined,1495509489315
903d185fccf839df,-0.21907156458107485,-0.6626302937227181,0.5100039493451207,0.39020449715393646,-0.5190071936650517,-1.8861957000790075,1.9273314645554587,-0.4986448300419877,-0.13050620720174538,-1.4562194221841154,0.2555034735720428,-0.2249276033418705,-0.7738970588235294,-0.15310143197741116,-0.789705971224977,1.7368658143399518,-0.03349855401639011,-0.29041221798100564,-0.8353093839073416,1.5170552146059129,-0.17338020983902508,-0.36776811189181013,-0.308979216363295,-0.5104931659690695,undefined,1495509490795
903d185fccf839df,-0.6473500532892494,-0.9332444709086087,-0.6760592929006721,-0.722670163594804,-1.0226360584893326,-1.9350468341185874,1.9656345975706595,-0.5308814359024961,-0.13025328792862867,-1.0350728258206496,0.06417846817426226,-0.11559647621427088,0.6056497883244207,-0.31049315340515227,-0.8549691920812893,1.8136489230557167,0.35917262844867764,-0.5460224910145632,-0.9847122865386785,1.1316321266604514,-0.40620352183434005,-0.36913280576223634,0.06436952251636202,-0.22531543037520196,undefined,1495509492270
903d185fccf839df,-0.9023768452150451,-0.8463661635026664,-0.8604447986375279,-0.9194162863611572,-1.197780906804152,-1.9310428706685923,1.9344345862324852,-0.9042708650385044,-0.23695140604820392,-0.6670133194860053,0.07187753566745637,-0.2033431924743686,-0.025373217468805696,-0.6965658895848793,-0.9044429430200648,0.423470690247231,-0.00755837202910521,-0.7912277378463893,-1.0079416985697247,0.7007836258600525,-0.6101138834749289,-0.3769654955241204,0.038822732756327284,-0.17858618775290683,undefined,1495509493765
903d185fccf839df,1.7837195836436324,-0.7841425152458146,-0.741136649813421,-0.933390355049075,0.23210584073924312,-1.9266965097018525,1.8413867899948901,-0.9087567323758651,-0.5130055240734916,-1.3390490530933619,0.1046974783836408,-0.02453634554569981,-0.8087121212121212,-0.9632060583852465,-0.9307587838867907,-0.6171423270506997,-0.6328616120512661,-0.9500579652476963,-0.9900158693911799,-0.3001307280748723,-0.881299384898566,-0.37571250462024636,-0.4056962656394769,-0.37051286903832364,undefined,1495509495269
903d185fccf839df,1.4912706396984696,-0.7330721519532692,-0.7730374445267426,-0.965524942570529,1.2857417948145518,-1.9476736381966437,1.7938661879831967,-0.8812750887747769,-0.7316552440115229,-1.2110277887518452,0.11868191182055962,0.0915377079750248,-0.5954698640819964,-1.077083630611974,-1.1581274709564895,-0.9323571579635416,-1.1717145837934797,-1.0990847963180905,-1.1032242692779437,-0.9829285990427421,-1.1415683151799039,-0.43030711810732375,-0.6569097657049773,-0.45692726718357296,undefined,1495509496768
903d185fccf839df,-0.7526870984590563,-1.01542665832958,-0.895535520340012,-1.0199553478422068,2.2229950853591878,-2.053153237021343,1.7515263040324949,-0.9022526245788665,-0.323186657330601,-0.9047689880922244,0.09390701946488457,0.10119318166824974,-0.6476924576648841,-1.1039328105435586,-1.167601171312596,-0.9990372186207266,-1.2200009238838183,-1.1362908404725984,-1.1105919111249678,-1.0556400588978256,-1.1770019139183894,-0.4197385496547954,-0.6539467937879391,-0.4454376743541282,undefined,1495509498275
903d185fccf839df,-0.842778238886358,-1.0371462424880635,-0.9370060960208213,-1.0506277419818189,1.818366046664118,-2.088187324544286,1.7913100022561845,-0.942063114396765,-0.3048281400634884,-0.7346223485769603,0.09213338823048799,0.10389890546855961,-0.5563029188948306,-1.1289303259638812,-1.1739169592796106,-1.019243300605526,-1.2648365399183834,-1.1589691120083423,-1.1167770923497935,-1.0906253268037032,-1.1927378071758457,-0.42700814816969473,-0.667904467564364,-0.4599603875204452,undefined,1495509499772
903d185fccf839df,-0.48518625586013825,-0.979618714216183,-0.9025532580613899,-1.0251631398221612,1.325424006895116,-2.0551726882989265,1.8324506895423334,-0.8794876193978464,-0.4154851544699303,-0.7814887021227735,0.10113997180559935,-0.015869442815671052,-0.6346368092691622,-1.1280044961365205,-1.1939169845709452,-1.00711964646832,-1.2349229197772424,-1.1400082786880608,-1.185030982298853,-1.0663881725538764,-1.2085722031382502,-0.4604378804151234,-0.6408062527695675,-0.4864124696905396,undefined,1495509501275
903d185fccf839df,-0.041661724387819614,-0.6849368636513308,-0.7532584740270183,-0.8666646207565396,0.7663346551912122,-1.9486658958041125,1.892733734571992,-0.5491964111108353,-0.6535479201284113,-1.0814605990062292,0.08531628507441671,-0.05411624471041924,-0.321301247771836,-0.9928327472250751,-1.1454958802979924,-0.8919449975270333,-1.069568058801037,-1.0269272367056765,-1.138845032900572,-0.6359708275124711,-1.052781036537703,-0.39724424086497856,-0.282037031094461,-0.3623948267692845,undefined,1495509502821
903d185fccf839df,0.3519663283487319,-0.5047231130881031,-0.38448847910110445,-0.3857200065283819,0.19594132546481877,-1.819796076540758,1.8622279808730016,-0.7317845357607162,-0.47647418919124485,-0.8538037670356599,-0.030725443095953132,0.001778574148161362,-0.24296735739750447,-0.6280541925866066,-1.05286417374969,0.029452190470170822,-0.3791409631019199,-0.8307326418901269,-1.059823050694219,-0.020556559821741042,-0.8148064973251705,-0.3454764066329598,-0.025747388970767636,-0.0994339463219646,undefined,1495509504272
903d185fccf839df,0.2466294557059737,-0.5053101573142169,0.04808361352535162,0.06534713309566108,0.01609592657679825,-1.7529329360956443,1.9031924770884558,-0.4447805125330989,-0.15036727832653007,-0.2699061622235009,0.05448933406769934,0.007773264036615354,-0.6259330436720143,-0.46788495253754064,-0.9128640095942576,0.7285824589691321,-0.11020952435673532,-0.6808635296594493,-0.9626373481493572,0.38914987935228773,-0.6335124399104272,-0.34530657991761665,-0.0311986076977716,-0.2137597982311352,undefined,1495509505769
903d185fccf839df,-0.04304773768603537,-0.36383933817101616,0.17377212460168245,0.17760103661366708,-0.303264684009456,-1.7247374936804771,1.930240028233773,-0.32604749954876716,-0.08084964555202033,-0.2732204148943236,0.08820971206707987,0.07143276971583866,-0.6955631684491979,-0.3753015359505226,-0.8381270810196051,2.4541817389326863,0.20923736328207776,-0.4404966505569376,-0.8446711171478375,1.6284937531269716,-0.23461424983153456,-0.38854808551801456,0.2179906906584356,-0.23165105429726773,undefined,1495509507270
903d185fccf839df,-0.12482262579699396,-0.5510973856236697,-0.06739621629264123,-0.09202544652307523,-0.5714333793569708,-1.8174388861732211,1.960853598113403,-0.3708050166806658,-0.07976258698339578,-0.2927870300532804,0.15763822779080977,-0.0721430632597036,-0.7869527072192514,-0.3623398698020682,-0.8297060034020616,2.8684062076356596,0.18491908856930592,-0.39385451991893927,-0.8333222898446966,2.093665388921379,-0.1159764196380672,-0.38160911374717976,0.26296430563578693,-0.23525954444654518,undefined,1495509508777
903d185fccf839df,-0.5766634440910655,-0.7260279719758126,-0.36534790061833167,-0.4907472173302082,-1.1343695823034052,-1.833433770954909,1.9450642392622801,-0.6498834742092767,-0.26914674726729787,-0.8015280884188761,0.06421720143914272,-0.028332168989874056,-0.5780623328877006,-0.41603821671446284,-0.84970601212837,2.5370265139614507,0.41695195958778514,-0.5652366413732473,-0.9025487372763639,1.7020367290226925,-0.30205492673375,-0.2897378264701116,0.6288939055932232,0.015632952919648644,undefined,1495509510278
903d185fccf839df,-0.9605894554982214,-0.9238522309386665,-0.7245481145767579,-0.7657662136687098,-1.5545094458588515,-1.9118382937744545,1.9745470041277604,-0.6561490720481554,-0.2649906701353957,-0.604120375530697,0.06511914291915687,-0.06366549922402963,-0.6650999888591801,-0.6993434065873574,-0.9549693314218709,1.3489090374053339,0.24669849090613583,-0.7440979695043385,-0.9936192277328328,1.0866378589292833,-0.5317493268349733,-0.26336600142231503,0.8210223925053992,0.06184621687795159,undefined,1495509511780
903d185fccf839df,-0.9689054835294013,-0.9115249159781174,-0.8355622499194828,-0.849490675082486,-1.5588808664660356,-1.9779094937190647,1.9432339023367133,-0.9333937254283601,-0.3096463684598625,-0.6578845903650178,0.06581716538604007,-0.04979213645039982,-1.0088987299465242,-0.9743160681166733,-1.0381273155273656,0.8680043737877482,-0.43135631262285073,-0.8745756078072752,-1.0512799454640678,0.8963130731997193,-0.6388962468245145,-0.3646459291147731,0.8228141935917992,0.09738125188233895,undefined,1495509513324
903d185fccf839df,-0.7415991300949692,-0.9291353513077628,-0.8425804959147595,-0.8775584681261397,-1.309411570441005,-2.053437404654418,1.9463212968406431,-0.9276831406536608,-0.34070343488048366,-0.6781435167045455,0.07803952400844708,0.03970354690113993,-0.9871393159536542,-1.0613444474610416,-1.1718116880346663,-0.12007277240702531,-0.9573561591131524,-1.0755515776295121,-1.1448063161651099,-0.05449473132368861,-0.9503707593723754,-0.44880479803033085,-0.2511387521526028,-0.36487153315351223,undefined,1495509514767
903d185fccf839df,-0.4380618727316221,-1.0107305310376107,-0.8661867688728002,-0.8991738485895241,-0.8239472425836168,-2.110808895712151,1.9383976869581767,-0.9260566755680604,-0.3393015336226959,-0.7007436562542207,0.08396782624860132,-0.030571344933497977,-0.8826941287878788,-1.1196719872191039,-1.2223380690742387,-0.5787508221560799,-1.1101809106495213,-1.148785738458826,-1.1883334766350357,-0.5210830267512297,-1.0962071114183205,-0.4788931277981113,-0.6366283487864435,-0.4894729476800301,undefined,1495509516272
903d185fccf839df,-0.7776354758485788,-1.037733250179187,-0.9325398932716545,-0.9717605435870011,-0.3440886167294435,-2.125382945597503,1.9237391572142057,-0.9417919152424333,-0.29576315083118243,-0.6999569330178341,0.08574409025472007,0.02919463000220964,-0.8565828319964349,-1.1437436663366785,-1.2476012577534663,-0.6514926409866091,-1.1324273413149135,-1.1686521827083647,-1.216488643535497,-0.6541717909858059,-1.142737516747831,-0.4768558773273642,-0.635655606495453,-0.469630591344183,undefined,1495509517783
903d185fccf839df,-0.8982187708149881,-1.0312760632788573,-0.8961734040830648,-0.9436887670180458,0.13939057304189584,-2.113564385763506,1.898629770697835,-0.9338235105265297,-0.29345701719777034,-0.711462535432569,0.08180829341437461,-0.051960855626936336,-0.865286597593583,-1.0854161314351567,-1.2012854118415488,0.32041968484387945,-0.7020255121032555,-1.111750683733778,-1.183365740814722,-0.20165767475001978,-1.0048423426171251,-0.47170641713324296,-0.552914729385728,-0.39509695136646866,undefined,1495509519274
903d185fccf839df,-0.42835971063329237,-0.9984032087700636,-0.7328426363320388,-0.7557605808283685,0.3368553871110207,-2.0819449631359928,1.898579801813221,-0.826878678847195,-0.37476317534534526,-0.7690491385092962,0.08661831105449273,0.02860666042484085,-0.9958430815508021,-0.9835744084802976,-1.2107591121976553,0.15068868237896638,-0.7305607194378123,-1.0596115581277568,-1.204265214921708,-0.17605006088828237,-0.9902164504356836,-0.45993695161913073,-0.5508779756398859,-0.39889043961300774,undefined,1495509520779
903d185fccf839df,-0.041661724387819614,-0.8751299130246105,-0.5593031873226749,-0.5817365743974504,0.5343921950998625,-2.032455617225447,1.871411272375924,-0.8966340015855195,-0.3946075515450734,-0.7746652737176069,0.07433333574138415,0.0031832796278085107,-0.9523242535650625,-1.0159785900399019,-1.1981275104958078,-0.1503819377813065,-0.8734992282340502,-1.05574212949104,-1.191873862816293,-0.30284085944101086,-1.0162915682678872,-0.4617523279074969,-0.5695877677605363,-0.38878256990293186,undefined,1495509522271
903d185fccf839df,-0.2620379768257632,-0.8475401934989091,-0.5535612170874027,-0.5508933125281289,0.2603606518522674,-2.0069690819564303,1.8972570049096373,-0.8237082394448233,-0.40133185059088405,-0.8486555482970243,0.0943775668826076,0.007103367400176095,-1.02630626114082,-0.915062700150097,-1.1381274511868302,0.19716260452190906,-0.7406496449162167,-0.9900125073568322,-1.1298541314011723,0.20752521377863478,-0.8576506846434567,-0.4632354947601787,-0.4908557471024761,-0.29189907989619956,undefined,1495509523787
903d185fccf839df,-0.47132626089961965,-0.8117322493855121,-0.43361467624634414,-0.4864133633903514,0.4238517983666644,-1.9574471271127125,1.9008177661320664,-0.6728289012581703,-0.2698092626027265,-0.9574961273435354,0.06687700396639719,0.07797854818007192,-0.9392686051693405,-0.8280343272811161,-1.0991800196616075,0.9488286734622237,-0.4959836437413715,-0.8992107618294729,-1.0611244584715425,0.8118064079560763,-0.6641303597163086,-0.44904042670530564,-0.4656092206409359,-0.2397983418884311,undefined,1495509525285
903d185fccf839df,-0.4533079500011759,-0.683175847884959,-0.21286268132089872,-0.2837728686324046,0.07946609019267777,-1.878176128820856,1.981537034304393,-0.1397320911151724,-0.34306389133695925,-1.0220795723874225,0.13473755498045792,0.01815963039790804,-0.6346368092691622,-0.8048884601835871,-0.9728640725843519,2.464284539674953,0.15464598355487663,-0.8221958333645324,-0.9193830635238359,2.0785749174996964,-0.3069464147753292,-0.3752979472523663,-0.1521771443988387,0.9652131657702108,undefined,1495509526809
903d185fccf839df,-0.16363103265244475,-0.5827961662942324,0.24076313274358946,0.15061529039788762,-0.19257002536881382,-1.8584334986074227,1.9760565144584585,-0.15686631852146618,-0.3941012853046597,-0.8956340090248429,0.03841420407412555,-0.02275330227648037,-0.5650066844919787,-0.7558192705022301,-0.7423374620822106,2.2480797705230655,0.20435333251091437,-0.7741351234590683,-0.842313191448086,2.277969391555042,-0.22595864147367392,-0.35607492109519595,-0.1777170141261214,0.8548522154379545,undefined,1495509528270
903d185fccf839df,-0.029187466682238906,-0.1525137342513703,0.5942213764667434,0.29749569449746976,-0.1538855129756148,-1.6749127406532094,1.8875530186060439,-0.3699645783485814,-0.35007931330546704,-1.017122118300937,-0.15571080811307128,-0.003664344885818894,-0.4779690285204991,-0.6937884146724186,-0.6433899970158287,2.1248226902010954,0.17458566952776844,-0.6452153897769233,-0.7130471113639806,2.387051980483154,-0.10082791304312118,-0.18541680439458058,-0.5146965657004438,0.42515873974186663,undefined,1495509529788
903d185fccf839df,-0.059679897264624394,-0.18245158683953808,0.5029857033498442,0.32367220416877546,-0.5660436740688028,-1.6344398798587358,1.9031924749934126,-0.3244626046591209,-0.2954819049883861,-0.8917889915128258,-0.33600164400927185,-0.04563202334638615,-0.7913045900178254,-0.5780591860286634,-0.5644425406757551,1.6782682981223365,-0.2506196220643986,-0.5602779495799189,-0.6450591000141377,2.6776206477508313,0.01782457020427914,-0.23052003987117806,-0.8120735732704766,0.11555488416618921,undefined,1495509531270
903d185fccf839df,0.2549454664844487,-0.1777554083985823,0.3638990922999117,0.1279972016705324,-0.3058772542140492,-1.6916902490038985,1.9154736686913785,-0.2947504730999589,-0.44314088989961303,-0.7416424354752584,-0.2417656060841172,-0.0006984831516413028,-0.8261196524064172,-0.6280542006808406,-0.46760029163756384,1.4762074217449008,-0.27493208491677884,-0.6005808028604714,-0.5503502672900902,2.6426507771326415,0.016673132593845015,-0.2490773833301131,-0.8354606499907363,0.44133809338374586,undefined,1495509532773
903d185fccf839df,0.029024953821183752,-0.3174650948634419,0.08891630546310811,0.008864152385385633,-0.39559939243137887,-1.72198666296559,1.91328041365022,-0.4465675876108557,-0.3888074427050495,-0.4917578010939597,-0.1083342090696562,0.016364260184481522,-0.9305648395721926,-0.6308317014948505,-0.5076003385391159,1.2903114787906362,-0.43382471049624394,-0.6056344917710769,-0.561552161362958,1.9981334512101778,-0.13271481918065595,-0.27245941920137756,-1.0028614911473828,-0.008322451718578188,undefined,1495509534297
903d185fccf839df,-0.051363817475329886,-0.5663597755748259,0.13740512713919395,-0.0629296459231878,-0.006738329886956301,-1.863725528537489,1.9618213705018726,-0.18393823118333483,-0.37463083773330585,-0.6848337725701578,-0.030431806796380318,0.05726148680273503,-0.9740836675579323,-0.4891791470295737,-0.4802318970205284,1.0862301270589119,-0.26303093278958883,-0.5730578293949126,-0.5843897525415632,1.6701927553500469,-0.19006603153618307,-0.2208270929292149,-0.8873301690548088,0.20471399870858056,undefined,1495509535780
903d185fccf839df,-0.04859165285725944,0.13629790787628335,0.35050099232631005,0.0813185631794986,0.2562052290204061,-1.5115538734582536,1.7147773925324958,-0.20258094186449108,0.16583627656875707,-0.6801558540081684,-0.8874339793142805,-0.007302036019989485,-0.7608414104278075,-0.4188157175284727,-0.4602318882942199,1.1286628229122422,-0.16204387703728332,-0.461743679357384,-0.5545903347302932,1.7471079876887103,-0.10377334693804893,-0.2657762747273169,-1.0196066985332641,0.36067330390546504,undefined,1495509537262
903d185fccf839df,0.4004770698295611,1.7999000493198662,1.6507682969039903,0.08984197684931353,0.6634056796198747,-1.0135997942606325,1.2672133417996787,-0.333515969748922,0.5141289873202661,-1.4437848704224887,-1.9886216587792123,0.031167886943820763,-0.6999150512477719,-0.3503040350998213,-0.3339159080869124,1.536825639434577,-0.1505195812697188,-0.4057541251194515,-0.38209095911977714,1.7616133225048363,-0.011851818133030956,-0.3346123587741359,-1.1279487666957062,0.2473111482765732,undefined,1495509538809
903d185fccf839df,0.8952840933358626,0.6035621971168158,1.207988539566994,0.05195659105526834,0.6779187976630294,-0.6899030885449652,1.1127727213757233,-0.48768375171948186,0.2142460370255098,-1.3502028160690562,-1.2206726168171496,0.03910852016488749,-0.9175091911764707,-0.31327069954687303,-0.35917914830177666,1.4357952012458592,-0.14060566308786437,-0.3705682897101252,-0.3496677374010308,1.704870051237205,0.005834696796990164,-0.3929865818290237,-1.1162896360333296,0.13451155532517545,undefined,1495509540283
903d185fccf839df,0.8883540958556033,1.1089826950591772,0.7958330470463656,0.07213706845822836,0.1697642238532266,-0.8243095101155039,1.166081516620814,-0.8159344042670144,1.2505563823874433,-1.8988490901746877,-1.4118451154210034,0.03964385121899553,-0.8609347147950089,-0.40677990872777486,-0.33602122718637634,1.324661820991267,-0.1640678895422425,-0.3801753643607156,-0.40750337681722365,1.4995625778191584,-0.057045868501156914,-0.33689685556045856,-0.996550860015496,0.008015744308551368,undefined,1495509541778
903d185fccf839df,-0.14145475087017326,0.8577401297232616,0.05510160538367881,-0.2787964782697122,-0.612658458082454,-1.3801754638694013,1.6746439238274766,-0.7755337261230819,0.9206887697459143,-1.1220722301347987,-0.5642520882021387,0.05825703321191203,-0.8174158868092692,-0.48269824272608647,-0.4444423999710987,1.3145587093370636,-0.17264416658398435,-0.4110737967177376,-0.46999189401666314,1.177812055736052,-0.15550867334823812,-0.2931296021529739,-0.830518968749196,-0.23775895655404983,undefined,1495509543272
903d185fccf839df,-0.7166508217162663,-0.614495034648772,-0.4718958332118897,-0.47095256216700765,-1.323348693172975,-1.8594676774840653,1.9103981438164546,-0.8611350367551553,-0.19305021766576855,-0.6337756477383458,-0.013134834214060833,0.10107448901954345,-0.9479723707664884,-0.5604683367476222,-0.5612845988377281,1.2074664776440998,-0.1701289404249303,-0.5357821237624301,-0.5500703961579573,0.8774191843931102,-0.2938323227431334,-0.3009796672408689,-0.7213327655247838,-0.18647276402943885,undefined,1495509544769
903d185fccf839df,-0.5323108460211128,-0.6902200278624157,-0.4610497764843978,-0.5107578847847692,-1.1738666567205487,-1.9328014463183945,1.9536111151844346,-0.7153804059830324,-0.25925188058152443,-0.660219424232967,0.08051435664017292,0.06475449841430586,-0.5911179812834225,-0.650274220143694,-0.6686531930572901,1.1468483588809488,-0.2713115818187187,-0.7086334875574698,-0.5998527044872639,0.766396394838967,-0.42539279603831653,-0.44199130060615893,-0.5871060549159782,-0.17203577721952992,undefined,1495509546280
903d185fccf839df,-0.8400061432791072,-0.5939494804865311,-0.778779414762015,-0.8505486793337879,-1.2911236017107652,-1.8631944614141314,1.943402209758387,-0.7424205206906465,-0.295936414792682,-0.727491528577206,0.03718328485377806,-0.015391720449853768,-0.6346368092691622,-0.7391542753312519,-0.8707586730421767,0.34466697191975,-0.4461935484731199,-0.8264959020550416,-0.7986251050253416,0.15390782678851445,-0.6667529540843475,-0.4492408475604892,-0.45010276767889873,-0.37326194385279093,undefined,1495509547769
903d185fccf839df,-0.8802005634327736,-0.9614211908184354,-0.86873881211891,-0.9351635225614299,-1.2821647587560419,-1.7619540793521946,1.9053699533088329,-0.9033513855499739,-0.3864564507676296,-0.70730728825281,0.05373017630258125,0.015426198459473493,-0.6041736296791445,-0.9113593711275734,-0.8791797580219539,-0.4959058634066257,-0.6104027058289776,-0.9767133267637889,-0.911077850102057,-0.39644801013018754,-0.8875393539435257,-0.4135284491530295,-0.4218170664395115,-0.3118597289159037,undefined,1495509549275
903d185fccf839df,-0.9993978623536721,-1.0236448975312717,-0.9580603257327523,-1.0174832073755973,-1.6923480717433355,-1.7305489474050155,1.9068768343598288,-0.9484343543001502,-0.27094128967735187,-0.6950323537705481,0.08331318469806814,-0.04609972522420355,-0.7042669340463459,-1.0604186224902212,-1.016022024512762,-1.0394493790572348,-0.9960648255004829,-1.0649692298131666,-1.001560608512173,-0.9096166005152936,-1.0691679776997418,-0.38297663305964114,-0.5638030301780792,-0.2693131618045119,undefined,1495509550787
903d185fccf839df,-1.1906678657213186,-1.0430163924692775,-0.9995314096874603,-1.0633253927525257,-1.899378581957689,-1.7583903440709958,1.918766187865472,-0.9245498555021602,-0.2689429840198455,-0.6822622230517658,0.08978254410013205,0.025859477783097985,-0.7129706996434938,-1.1530020026531858,-1.1718116917157833,-1.1283561277778449,-1.2653909241589536,-1.1422944721030492,-1.1362562133655663,-1.1196206000233169,-1.1991245417842364,-0.4130613369125773,-0.6086301818819492,-0.4497390017638814,undefined,1495509552311
903d185fccf839df,-1.3542175923417092,-1.1011309357392796,-1.0193098719132858,-1.0750603661372282,-2.021387521326289,-1.7766445916976745,1.9204466390876336,-0.9433478336170248,-0.2809583907217663,-0.6778854599378525,0.09052111078970243,0.0842263875272845,-0.9131573083778967,-1.1854061931164477,-1.285496040772308,-1.2031186127495332,-1.3505300182954794,-1.214205046646285,-1.2629264775013982,-1.2685081679126275,-1.3109531840001007,-0.4733180225331923,-0.6727517831832928,-0.528073496693064,undefined,1495509553786
903d185fccf839df,-1.36391969621216,-1.0964348157543085,-1.0301559286407778,-1.0841006753273374,-2.023753231201021,-1.779251009471422,1.9214301866305594,-0.940963100517389,-0.2844201632146361,-0.6771825777380459,0.09123481144811163,-0.018033683929847322,-0.9740836675579323,-1.1965161996101807,-1.3307592529023118,-1.2071598319729653,-1.3895172681730232,-1.224996382772221,-1.2942372063580405,-1.2775778516881486,-1.3306073904613716,-0.47454739230145276,-0.6733017310266044,-0.52947610247838,undefined,1495509555273
903d185fccf839df,-1.3264972940285724,-1.1005438622851735,-1.0244134501316067,-1.0815736307617267,-1.988977289964076,-1.7650263466438991,1.9156498754749,-0.9606700248856724,-0.28396487263237635,-0.6795650566799272,0.09124653369445898,-0.013376723762054841,-0.9392686051693405,-1.2020712028570473,-1.3328645223066975,-1.1950361743026692,-1.3888831121259404,-1.2326465787289738,-1.3051172470999959,-1.2660290176572828,-1.335918360018428,-0.4769251546349172,-0.6736564080992814,-0.5283382134788968,undefined,1495509556777
903d185fccf839df,-1.2807588120556905,-1.1011309357392796,-1.0250518421485582,-1.0853164586106956,-1.9193431203714768,-1.7580852135662894,1.9148293726041552,-0.9552797332807433,-0.2846926815962146,-0.6790523002788971,0.09136207995108701,0.000266499958890241,-0.8739903631907309,-1.2039228673683091,-1.3381276847743115,-1.1950361743026692,-1.3928188675212974,-1.2351797562165405,-1.3100010210674484,-1.2740054123715345,-1.3401655568664883,-0.47688933894388513,-0.6736822506995095,-0.528681721714026,undefined,1495509558267
903d185fccf839df,-1.146315392733476,-1.0758892323640752,-1.0008071771735658,-1.0633770209061248,-1.5371060496765978,-1.7006764548405362,1.9113264712480138,-0.8059803730215507,-0.1492863205468191,-0.7272846195123676,0.06108189568985342,0.06407176002718996,-0.852230949197861,-1.1844803584325465,-1.3002329026757493,-1.1364385520923481,-1.3469625763980682,-1.1095594853321338,-1.2102195010083454,-1.035945444116081,-1.2000841606689505,-0.36400104307222836,-0.4747809606774606,-0.4251629367734085,undefined,1495509559768
903d185fccf839df,-0.28837235026079655,-0.9391146208898226,-0.88724150685863,-0.9723236993510512,-1.0359560326612396,-1.7518614851511887,1.911197610354534,-0.732995706233756,-0.17176676366050384,-0.8623737526408858,0.02812333736848952,0.007707685530208706,-0.7956564728163993,-0.8826585104962588,-1.1665485301684484,-0.8353679707960674,-0.8187513030602803,-0.9929256613432359,-1.1305538125989474,-0.7830413769678588,-1.0677826663766807,-0.3050804785755901,-0.4538429559584863,-0.40339088517836474,undefined,1495509561276
903d185fccf839df,0.05258731791249048,-0.5405310572015001,-0.5350590306215814,-0.6277904889292577,-0.602599044652382,-1.8401093714149468,1.9119970622273081,-0.7235756239929481,-0.16874940746726144,-0.8597772651696286,0.012903720851944373,-0.06966245408750317,-0.8391753008021391,-0.7335992550864937,-0.9307587691623231,-0.04935149959258868,-0.5893756196299185,-0.9172089862214278,-1.043065689629424,-0.3144204834162174,-0.9114552261674801,-0.31374119639113135,-0.42771180333141245,-0.2398769326338363,undefined,1495509562768
903d185fccf839df,-0.30639054039030617,-0.6661523837114464,-0.6505388604395743,-0.6566883839506417,-0.34893318519790695,-1.8933138540777614,1.9202204571343677,-0.731751605204049,-0.11123831737160744,-0.7982159099505751,0.06104929323430993,0.006052222513121018,-0.7826008244206774,-0.7613742705114029,-0.9076008517280397,0.19716261158808945,-0.7125876442230232,-0.8969119018350464,-0.9886095102948605,0.12645241169699978,-0.7836542924833305,-0.34623475177441376,-0.5441784896222889,-0.287559174840686,undefined,1495509564267
903d185fccf839df,-0.17333312573995502,-0.791773739449385,-0.7149783336092704,-0.7723511120025148,0.02208219484725792,-1.9036114214314164,1.8841342615330428,-0.8947410995374027,-0.15265900916687933,-0.7373601154547786,0.05642721979907242,-0.08652600221676794,-0.9131573083778967,-0.7178600776015251,-0.9318113808575355,0.43761505645576837,-0.6741504094357189,-0.8034693176481247,-0.9451593146161199,0.5329405737937952,-0.6441206090272413,-0.3865865779686737,-0.6608050052292338,-0.3538461202902111,undefined,1495509565820
903d185fccf839df,-0.20382541830070158,-0.903306706004418,-0.7353946795781486,-0.7873053923096353,0.06781240177173974,-1.835488162183916,1.8304073233471454,-1.1874224620524847,-0.2619451738750756,-0.5961855853787968,0.06470879821726326,-0.0612892060150153,-0.8696384803921569,-0.8363668200100647,-0.985495692691784,0.18301837257079898,-0.7930160629567802,-0.867805692577483,-0.9659398431339483,0.4721013143546632,-0.6953561109304928,-0.41504377971690143,-0.6486782978816562,-0.29295169507226004,undefined,1495509567272
903d185fccf839df,-0.2869863542152857,-0.6638042944909684,-0.7022181173787215,-0.7237090914049776,0.05077928688388166,-1.9137901964791237,1.8705171318656315,-0.9857721356149437,-0.12227740610162216,-0.5654787631537179,0.05145245276451099,0.013412137476468673,-0.8913978943850268,-0.8826584926889437,-0.9939167555848599,0.06986434737358896,-0.8612877157041845,-0.9448902835114611,-0.9854469518336562,0.40205378655799795,-0.7544784437559426,-0.44377725418216557,-0.5395022603111536,-0.22409963192175492,undefined,1495509568783
903d185fccf839df,0.44621537064904204,-0.6203651554019934,-0.6243805442354238,-0.6423515437995022,0.32786567548416556,-1.9810399916663959,1.8407503639389047,-1.0471845527905494,-0.22993967007434887,-0.789053311394589,0.0603334418941127,0.07842184834939936,-0.5214878565062389,-0.9678352253293652,-0.965495669241008,-0.047330925311774595,-1.024705879961284,-0.9912537645944344,-0.9766799475971994,0.004989466545109721,-0.8490715484791758,-0.4506866924469431,-0.5754100944227122,-0.4345178637310837,undefined,1495509570269
903d185fccf839df,0.002690701155084458,-0.989010946879127,-0.5599415793396265,-0.6154491775724035,0.1649608006155531,-2.099540036480802,1.8942011722373586,-0.858066998821269,-0.2264095228541401,-0.8540994960241369,0.0788330891762833,0.10875747923238079,-0.4823209113190731,-0.941911876843988,-0.9370745608104547,-0.47772036983500127,-1.027581427323036,-0.9778975865504512,-0.981934552161858,-0.22865114820381746,-0.8999919153659026,-0.4388418211919628,-0.5625720704281109,-0.4243930077330891,undefined,1495509571776
903d185fccf839df,0.6596616946175458,-0.9162210067350961,-0.5197467711449228,-0.5682299294009382,0.5348138948888481,-2.0231037224199158,1.8760029144610588,-0.7430761457400832,-0.054920229958607805,-0.9220671305190291,0.13839792547550162,0.13042602737194217,-0.8348234180035651,-0.8252568232294126,-0.9412850959381095,0.2901106890579275,-0.7514599900215264,-0.9005026828711807,-0.949091521680404,0.8856265595585029,-0.6019456152652238,-0.41925612048690913,0.13415591114201358,-0.3828090578515996,undefined,1495509573279
903d185fccf839df,-0.3382689842709074,-0.7782723360366084,-0.3857642465872099,-0.4343114381736155,0.04906156809053312,-1.9903639362527643,1.908054989454107,-0.7291727457904045,-0.00003131581070553952,-0.6590712204265116,0.12469126328408661,0.1774459921282212,0.02684937611408201,-0.8030368037665593,-0.9507588183809175,0.4780271638959238,-0.6606056192625167,-0.891243918893707,-0.9718731380722597,1.0246899218243837,-0.5756789404120798,-0.4304826821940389,0.09297556025997152,-0.3724941844113925,undefined,1495509574771
903d185fccf839df,-0.22461561777393785,-0.6391497084118587,-0.11333350299651612,-0.1988141190517053,0.1003254880998154,-1.9182110933151162,1.9137906049498632,-0.6280942632145521,-0.01490124617027585,-0.6545213606789977,0.11325033027457193,0.16418326409839262,0.2226841020499109,-0.7891492964588164,-0.9728640725843519,1.2923320389390895,-0.40966408736136717,-0.8691799431438201,-0.9728666854736645,1.3945451814101875,-0.48598266125954626,-0.4291865876077678,0.05496585271459295,-0.3577615813249889,undefined,1495509576279
903d185fccf839df,-0.2953022959829412,-0.734246181949512,-0.21860515983006987,-0.24549224974306502,-0.045505123243261676,-1.9686833777520187,1.9384555520620737,-0.6097604986577788,-0.16701085000815707,-0.6497077659138715,0.10628190449060482,0.1694716792793947,-0.7608414104278075,-0.8178501522335906,-0.9970746679739518,1.2377756147536594,-0.3731958625386012,-0.8477872590084867,-0.9800524102378949,1.6119250358696502,-0.43807889811248724,-0.43976674246421155,0.04202012468580232,-0.3077448006145367,undefined,1495509577770
903d185fccf839df,-0.5087486199514449,-0.653825046829903,-0.40490431679608385,-0.5181409423793596,0.022370193043991154,-2.0417283190786097,1.9230238485770506,-0.7516371946622937,-0.22555651966831775,-0.789652969939795,0.09715018496302336,0.02125675456864794,-0.7826008244206774,-0.8243309723570432,-1.022337838247595,1.4277127345342737,-0.36916172623394533,-0.8871085059802868,-1.0101526907455844,1.2032656923725868,-0.5539147167198989,-0.4338211221684596,0.1117096534459388,-0.17451502819665013,undefined,1495509579318
903d185fccf839df,-0.4491500481281676,-0.8152543539882366,-0.4814661224532761,-0.5385771895312602,0.14281570807316343,-2.054853581890484,1.9146531679156775,-0.772369556226218,-0.21976678321124707,-0.6517405336701999,0.12313988552272302,0.07070470376526887,-0.6433405748663101,-0.8937685315596131,-1.0370746927888026,1.3933624629954466,-0.3570882485917991,-0.9654026881600469,-1.035208271069969,1.257776184648331,-0.5619747039108046,-0.41533688921432615,-0.12296768304110377,-0.16003874325834255,undefined,1495509580778
903d185fccf839df,-0.11650644249147024,-0.8598675230734545,-0.5280407846263049,-0.5543101008723295,-0.08728561448688336,-2.0590275785833825,1.91427973582384,-0.8387805149540196,-0.27224113473651046,-0.5679244867013552,0.13858444382340876,0.08091657247086281,-0.8826941287878788,-0.9317276985587689,-1.0160220355561127,1.3468885761834057,-0.329136147409896,-0.963813119191825,-1.0131053453943217,1.3511369568178653,-0.5352018448127994,-0.3819855337038885,-0.092047060259504,-0.16571892478398179,undefined,1495509582284
903d185fccf839df,-0.14145468185935378,-0.7172227762319842,-0.4272348222680191,-0.43675717799691566,-0.08931189534508174,-1.9682524666361354,1.9385370670655109,-0.6164809082311042,-0.26694085898902087,-0.3476795338183292,0.14714381101073257,0.03198593708169073,-0.9044535427807487,-0.9206177147288913,-1.0233904609861582,0.7851594574353763,-0.4526932382075112,-0.9345042556369251,-1.0240623516798608,1.1291375709054106,-0.5812737712900307,-0.37906011287163505,-0.12607299273629682,-0.1439558279844073,undefined,1495509583772
903d185fccf839df,-0.3257947265653267,-0.6778926836738741,0.222898830020821,0.17921340338070207,-0.4615615574504502,-1.9062271558055035,1.9204965985445517,-0.771847676520425,-0.2780439805221703,-0.2936056716136753,0.0868106337490792,-0.015318719899414414,-0.9436204879679144,-0.831737636877478,-0.9570745989856984,1.3327442594381311,-0.2020360913492952,-0.888964057924096,-1.0001682423647302,1.2903284957908667,-0.5190784185909723,-0.358814812570333,-0.13048799427543073,-0.09531660269236027,undefined,1495509585277
903d185fccf839df,-0.4671682210049724,-0.6796537578962306,0.26692144894774,0.26703539785937574,-0.26268761065907936,-1.8760169224766847,1.9414745591056861,-0.5489525596011815,-0.32399071974358196,-0.06451316202806776,0.09954556917116048,0.04303444812909424,-0.9305648395721926,-0.7669292931844313,-0.8623376580036204,1.2559611931194483,-0.31176918014216115,-0.8009234754248296,-0.9229164538974147,1.7765344113093184,-0.35275269485859223,-0.37563930784862076,-0.31461296790118093,-0.2690000411597364,undefined,1495509586768
903d185fccf839df,-0.3202506733724637,-0.6426717545585986,0.6235701279339554,0.5347320872990282,-0.3166463765746904,-1.8513852178542949,1.9222822356201281,-0.6533039046254417,-0.30240924094806865,-0.002946877054493405,0.11687122272039353,0.024710609860134982,-0.847879066399287,-0.7928526319567274,-0.8612849726860702,1.1650336969966049,-0.37791515875622395,-0.7878776117096254,-0.8961606495270783,1.3638406808402719,-0.448944065461573,-0.39821194462547593,-0.5210153985127124,-0.29466692354295054,undefined,1495509588283
903d185fccf839df,0.14545027790376536,-0.6080378404414444,-0.07186241904180805,-0.10756715525664996,-0.37255942830849126,-1.8675128703237807,1.9590074739868797,-0.4258364982537075,-0.4578194927556748,-0.2799121161199663,0.20114458510932548,0.05382370955979473,-0.8609347147950089,-0.7197117534447147,-0.9118114015801622,0.809406857570133,-0.4916654913179051,-0.7992325800055592,-0.895642884200919,0.6159227893572815,-0.6163659433056831,-0.4240161178288671,-0.5421586133038278,-0.36392924860253667,undefined,1495509589770
903d185fccf839df,0.08585167157507827,-0.5188115022710088,-0.05655066783904822,-0.18418288911179734,-0.6384549806594757,-1.8383624419390354,1.891437243035697,-0.8881427601189888,-0.4580820976131194,-0.7024439274314098,0.09911174423153422,0.060229539740926416,-0.8609347147950089,-0.7493384309526155,-0.8844428864392366,0.9286226480068674,-0.6096935315751758,-0.789017541721046,-0.8904162656074185,0.7385868041399982,-0.5831707227254529,-0.42434444017917017,-0.6159885291450026,-0.42732249573963504,undefined,1495509591309
903d185fccf839df,0.08585167157507827,-0.4906347823611822,-0.12098912446094662,-0.22567608608119177,-0.6418698318281828,-1.8346915610802834,1.904441632162405,-0.7991938016990944,-0.4453490728608697,-0.6853294421454236,0.09186133789732549,0.010921570483612881,-0.7956564728163993,-0.7548934390560225,-0.8865481613652979,0.9508493466695631,-0.5975218297282795,-0.784907461385152,-0.8908010901750504,0.745993456359275,-0.5793626290893559,-0.425082559144623,-0.6242797180769752,-0.4270707528788899,undefined,1495509593811
903d185fccf839df,0.1579243630822974,-0.46480606398785645,-0.207759103102578,-0.15431504471079688,-0.7315405389016277,-1.8517485802898968,1.8827404688398757,-0.9697767614884882,-0.4064242591510908,-0.7356028626737885,0.12084097068942128,-0.03295551404413205,-0.7826008244206774,-0.7086017437132881,-0.9012850563987912,0.9104371544352431,-0.6001328297253911,-0.7890112093476452,-0.8978048979910626,0.731534316906413,-0.5868546681785257,-0.4170359058589989,-0.6092162387428398,-0.4547857549209796,undefined,1495509594275
903d185fccf839df,-0.2745122345313439,-0.38614601039760205,-0.16884057066787855,-0.26684368928139823,-1.0184394866336932,-1.85448310769115,1.891929017854682,-0.9534571447008556,-0.42005862717580783,-0.8308676885524706,0.11412214187745998,-0.147353257747885,-0.6999150512477719,-0.6965659154864284,-0.9233903253266933,0.7528298167068064,-0.6258321361606152,-0.8055528580281364,-0.9358955362446496,0.5093501503082558,-0.6532117088742803,-0.4216018651930717,-0.6325690521922475,-0.46979609270684175,undefined,1495509595858
903d185fccf839df,-0.3798492797011508,-0.47772042317451935,0.21205277329332914,0.13053225857769327,-1.0842679475518588,-1.8546275205525569,1.922592563951578,-0.7808610767413836,-0.35299078897793823,-0.7206110384136551,0.11382009083657975,-0.21792144292629512,-0.05583639705882352,-0.7021209041636736,-0.9391798136498145,0.7407061449041495,-0.6631298773968293,-0.7928869696379959,-0.9519532166927905,0.531031157175226,-0.6439654772442728,-0.44078118277160677,-0.6651433540461273,-0.5239044971083893,undefined,1495509597278
903d185fccf839df,-0.42558778755309007,-0.529964772621319,0.5304197870401002,0.4970011439222405,-1.001169804833023,-1.8924380609368745,1.931541789328452,-0.7390200460840219,-0.31112446163427576,-0.5490493777061567,0.12502632632665653,-0.12427105843395479,-0.2168560606060606,-0.699343409825051,-0.9539166571476714,0.5830986375873837,-0.750320879281445,-0.7553769434505968,-0.947895066090699,0.3644661705210765,-0.6638906918888174,-0.4460479835392571,-0.5857952731543128,-0.6161878783813127,undefined,1495509598777
903d185fccf839df,-0.22461568678475732,-0.6268223642233173,1.375147626324134,1.3764906614367205,-0.6915497541774582,-1.9364397197434922,1.8945877543940364,-0.9637982952619516,-0.3254305455829594,-0.18996059410745983,0.047022899257683916,0.028650381333961757,-0.5780623328877006,-0.6410158797800697,-0.9791798973625356,0.7993037176512079,-0.7847944622050514,-0.6377045170197333,-0.9750496906812849,0.6770238178591268,-0.5636667060455655,-0.46972356381425173,-0.5561123835346768,-0.608757137739881,undefined,1495509600259
903d185fccf839df,-0.31886466007424796,-0.691394028630666,1.495731288497397,1.509140322938477,-0.6373338444295191,-1.9561683757511317,1.8745617858293069,-1.1218587345362854,-0.28976750183452527,-0.13896634832989954,0.11631452056984747,0.031299359459414776,-0.3909313725490196,-0.5743558408176714,-0.9518114116705453,0.5245010083108823,-0.7792128919107995,-0.6540625114519867,-0.9485457717043719,0.26451486465635576,-0.6508160134121809,-0.5201442823100828,-0.40922426725999844,-0.65614324837419,undefined,1495509601756
903d185fccf839df,0.0013047568676881746,-0.6943291474632615,0.8373036227271747,0.8259862932758721,-0.5681316756669402,-1.9500448049463128,1.9610350665988951,-0.5343234029385977,-0.26851841409640953,-0.07829195730294958,0.21633193961297115,0.033208500117705465,-0.5780623328877006,-0.6484225443005044,-0.9339166705080643,0.5224804198977074,-0.729984665014266,-0.7041244308563501,-0.9203136403797492,0.29809887352851594,-0.6491120022620913,-0.5188205096453952,-0.5159147966351948,-0.5626210551967795,undefined,1495509603253
903d185fccf839df,-0.027801591405662095,-0.7371812569401189,0.45003042478764205,0.40442418913403777,-0.46788726888512827,-1.9714155743955097,1.8347675699630455,-1.3417156578995462,-0.26831912420550225,-0.13999526101723844,0.15244310926414884,-0.023753095005502073,-0.5650066844919787,-0.6132408586891966,-0.9339166705080643,1.1266422344990672,-0.6179838213996751,-0.6454623719670353,-0.9305499748636055,0.8250952712495778,-0.5214060744225385,-0.5137092103065152,-0.47400227972614145,-0.5495029787780991,undefined,1495509604762
903d185fccf839df,-0.31886466007424796,-0.6884589828680514,-0.00933761364906786,-0.02799272672727978,-0.7898295869653966,-1.995900536578864,1.9345134656710892,-0.8105029252806568,-0.26042306904627543,-0.5437819891561538,0.18747473326757258,-0.050673261203264465,-0.8348234180035651,-0.7428575978783883,-0.9254955855282869,0.9225606566495707,-0.5890695221525388,-0.8312076104291182,-0.88397220441102,1.9041721381604602,-0.3318403680970809,-0.49207813635419023,-0.6550558179674996,-0.4073052001427766,undefined,1495509606252
903d185fccf839df,-0.39786741807254583,-0.5810351505278605,-0.26262777875698884,-0.33972183105356574,-0.9091333860003552,-1.9386222146576582,1.8876424266861993,-1.1076353239704133,-0.3708671069788717,-0.6899098627513166,0.1259604228828756,-0.016201200845840737,-0.9740836675579323,-0.6715684016849525,-0.9318114103064706,0.7770771037826769,-0.5245228612305658,-0.7748887426991747,-0.8912488870254193,2.23813362263604,-0.2560864155531399,-0.46713382324870184,-0.7001202921281442,-0.3033797883951025,undefined,1495509607769
903d185fccf839df,-0.6944746779556337,-0.524094608026109,-0.38448847910110445,-0.4381712844225781,-1.023932051506927,-1.8494216701431836,1.893322807405283,-0.9962090493634616,-0.4120371477116364,-0.6007284311702916,0.05145353131734604,-0.027244128346722407,-0.8087121212121212,-0.7289700873329518,-0.9097060972051657,0.627552091442218,-0.7235865973510203,-0.8075160689237381,-0.8789205060037976,2.0122076295403457,-0.3034032737386209,-0.43484105758718106,-0.8864677657987692,-0.27240057584558725,undefined,1495509609254
903d185fccf839df,-0.6071556331355829,-0.38321083310902193,-0.23008910030061444,-0.2460161702615795,-1.1855409222070408,-1.775696590264599,1.9001471615349887,-0.8777058122594313,-0.2895751033099547,-0.4859340179412168,0.3949952317316204,0.05887771235818177,-0.7695451760249554,-0.6363867031228702,-0.9633903795904792,2.0379363709046014,-0.23937199600370745,-0.613386014976158,-0.9009884471723991,2.698023579526293,-0.05454494278118969,-0.4450168520732234,-0.9134555145860922,-0.465083488657456,undefined,1495509610760
903d185fccf839df,-0.6653683296822834,-0.1683631684286401,-0.15480407867732535,-0.15092291217586087,-1.113201615079529,-1.818514994442707,1.9398861703839054,-0.6169576227681597,-0.2721993067731106,-0.5468041720449139,0.40680067976250844,0.019725554056745424,-0.6346368092691622,-0.626202524837651,-1.0297062452720558,1.1064361807789895,-0.5653499186585298,-0.5541983232177626,-0.9662407054633441,1.7723306345985732,-0.24746266762901864,-0.4402945442338214,-0.8095737084592763,-0.41769910125861043,undefined,1495509612289
903d185fccf839df,-0.7097207724778923,-0.18010352684705253,-0.8215262662028284,-0.8541067226448785,-1.376813746426947,-1.6664552732212388,1.9026349713244244,-0.7005373665655131,-0.512050456593347,-0.5941253086587917,0.015557260985256689,0.11068946839360307,-0.9523242535650625,-0.6947142461186261,-0.9949693599178385,1.379218188647254,-0.01855229988569339,-0.7788721660993541,-1.031311047417777,1.2546502951743692,-0.47758190015948565,-0.42125759331633494,-0.1725199476194422,-0.22032785720492273,undefined,1495509613755
903d185fccf839df,-1.1102790124744566,-1.0653229623978901,-0.960612368978862,-0.9965732183716308,-1.7832324928017715,-1.469816239560767,1.8318063945026315,-1.0047866435451682,-0.2700191099013894,-0.6984082266323526,0.07874070672095419,-0.11518826048512468,-0.7869527072192514,-1.0113494230957834,-1.2139170098622796,-1.035408163366893,-1.1497398140399369,-1.049472516097532,-1.1457648800993692,-1.1416557742318827,-1.1566594311523062,-0.43939329318295794,-0.6583490380781626,-0.5213449021454195,undefined,1495509615257
903d185fccf839df,-1.2447224317966712,-1.1017178922814161,-0.9925131636921838,-1.0403461244928915,-1.9289088191733976,-1.4697929457995427,1.8403769224193711,-0.9652755075275617,-0.2853917230201102,-0.6790546334920454,0.09078710361817982,-0.03363075131981731,-0.43445020053475936,-1.164112013194036,-1.2560223243276591,-1.19503618843503,-1.341461927743069,-1.1875496868188757,-1.2267599622021952,-1.2934844460495594,-1.2866630189758688,-0.46508735968536197,-0.6737294427631103,-0.5282491640396928,undefined,1495509616759
903d185fccf839df,-1.3057070686762788,-1.043603407467399,-0.9854949176969071,-1.0293394464789332,-1.9020940064319634,-1.4876605403240184,1.8394880509437024,-0.9937674776245874,-0.3318202529690942,-0.6664049258053892,0.08643623185798324,-0.08617344836031947,-0.5954698640819964,-1.1548536744492583,-1.2370749309776798,-1.1990774005922815,-1.3394016886764315,-1.1621545823292607,-1.2052237781769732,-1.2857852233264162,-1.2658959653987174,-0.4350437743115219,-0.672885866089293,-0.5261539838406947,undefined,1495509618269
903d185fccf839df,-1.1199810969356145,-0.9314834259142445,-0.9478521527483131,-1.001319853873717,-1.8333238359427393,-1.5101772971409748,1.847632560127027,-0.976955452946485,-0.33518674702786727,-0.6630014485866204,0.08274355366925731,0.00046811415844563384,-0.8739903631907309,-1.128930321107341,-1.2539170530827148,-1.1889743507671564,-1.3146214218380516,-1.1476078108739278,-1.1979540917372762,-1.2313209207597653,-1.247886011074208,-0.43296277654808707,-0.6679828306927867,-0.5117135309827197,undefined,1495509619769
903d185fccf839df,-1.1435433488843396,-0.9132859609724815,-0.8617205661236333,-0.9013554728094197,-1.8093684472240636,-1.5266962630059233,1.884639192178237,-0.7651751210254871,-0.32848034374306084,-0.6776023330082184,0.0794242450556607,0.014458521519888712,-0.8391753008021391,-1.0844902983701024,-1.2002327799001937,-1.1707888801606183,-1.2189186434582548,-1.1201291684791908,-1.1828129928411033,-1.2102558474565568,-1.2274819648479973,-0.4321860255298653,-0.669520064734526,-0.5132637828202029,undefined,1495509621274
903d185fccf839df,-1.0978048927905149,-0.8815871510739266,-0.7985573687139416,-0.8387090686939637,-1.7575593906911542,-1.5150547246548225,1.8977040704509354,-0.64994566140509,-0.306047380708166,-0.6931790851078903,0.07815499910043078,-0.3042155854696533,-0.3604681929590018,-1.059492779712086,-1.2076012108519143,-1.1829125378309144,-1.2390307781953396,-1.0999397438529552,-1.171065347568791,-1.2041118676292522,-1.2120193867080122,-0.43794159909351427,-0.6728862449291931,-0.5157247681068401,undefined,1495509623174
903d185fccf839df,-1.2613546172543175,-1.0353851974936994,-0.7940911659647748,-0.872738639684036,-1.8772437616308264,-1.4482451510910215,1.880620847248177,-0.6426416513223517,-0.2597939943096845,-0.6929126815436717,0.06762615130007532,-0.4272404444055327,1.1278757241532977,-1.0937486387337267,-1.2539170512421565,-1.1889743560667918,-1.3003648786057629,-1.134403623511422,-1.2365904816857896,-1.22508455047518,-1.258069002101889,-0.46569068200122715,-0.6682881210768321,-0.5073601628202457,undefined,1495509624256
903d185fccf839df,-1.3084791038990629,-1.0553437074298266,-0.9204175607841584,-0.9951233889082887,-1.820291857947039,-1.4196863475880057,1.8299076627840956,-0.9212467682457687,-0.2817861347000142,-0.671095165729791,0.08545117828151666,-0.83749124568936,3.860858121657754,-1.1011553145860893,-1.2791802417619427,-1.211201047663307,-1.3396259651638929,-1.1360121909507932,-1.2552789633722337,-1.2841683868911138,-1.2737870917473808,-0.4690798506087474,-0.67177134399022,-0.5249885429219984,undefined,1495509625820
903d185fccf839df,-1.2696707142963168,-0.9690523857940133,-0.929349966282492,-1.0035013851613752,-1.7459056955404635,-1.3751373189514522,1.7964144544454472,-1.025326258690932,-0.27115979541142593,-0.6788441897545263,0.07529829214931959,-0.9252779738988628,4.291694518716578,-1.1122653129855882,-1.2781276061394704,-1.203118605683353,-1.3316408651840774,-1.143985366968653,-1.2569162169889179,-1.2703867782032252,-1.2770042588459334,-0.47103737681863306,-0.6713706721160364,-0.524859314222156,undefined,1495509627331
903d185fccf839df,-1.2225461931461619,-0.8956755110288399,-0.7551726335300754,-0.8887813715199153,-1.713279463470164,-1.346524947173615,1.7404232539060678,-1.3060934574575975,-0.27016537958280445,-0.6891381946991786,0.061847169413060274,-0.9965610602153712,3.4213179590017826,-1.1141169823533905,-1.2665486428209325,-1.203118605683353,-1.317220537275063,-1.1444476719733727,-1.2432164615309493,-1.2713876771976207,-1.271303768417202,-0.46689927373688567,-0.6705655422686255,-0.5240581536150708,undefined,1495509628872
903d185fccf839df,-1.119981088309262,-1.04829952745237,-0.8055756147092182,-0.8881558461895229,-1.5988099423053537,-1.3287621703995574,1.7250178495032031,-1.3368379129042083,-0.38977627767183354,-0.6345138522992233,0.06664157467023842,-0.7071612672901044,3.1906681706773616,-1.0557894555461027,-1.20549593960697,-1.1849331474426303,-1.2766651510603833,-1.0760835449593165,-1.154538880204675,-1.2269323653422768,-1.2005801064671595,-0.4141254450006285,-0.6635121510823381,-0.5143139686882517,undefined,1495509630270
903d185fccf839df,-1.0285041071107932,-0.9725744757827417,-0.7985578769878404,-0.8604996788307219,-1.4832604213470864,-1.3659647799464616,1.7156452173885073,-1.4496872097890592,-0.4523486432836971,-0.6334439062090447,0.07058262419703826,-0.471429673474861,1.7588987299465242,-1.0493086127587945,-1.2065485733888837,-1.1707888942929792,-1.2266967365205443,-1.0696302750696838,-1.1447993194031696,-1.2087160046620284,-1.190984232482752,-0.4135670125513031,-0.6585505795791237,-0.5155871116872054,undefined,1495509632481
903d185fccf839df,-1.0146439741286357,-0.9714004457864989,-0.7985578769878404,-0.8566328602696623,-1.479773570241095,-1.369172142245709,1.7251808941753837,-1.3915078799260545,-0.45340634108638656,-0.629002871472985,0.055714733142683846,-0.4464175032063209,1.284543504901961,-1.0493086127587945,-1.2065485733888837,-1.1707888942929792,-1.2266967365205443,-1.07011791173838,-1.1442745585996528,-1.193779512821452,-1.1876833676994987,-0.41326586313280367,-0.6565240439497494,-0.516451861977352,undefined,1495509633469
903d185fccf839df,-0.9813796722241626,-0.8950883791187492,-0.7972816012278361,-0.8555036777848171,-1.4690250168859087,-1.3768027300411998,1.7409991792933235,-1.2983364341847978,-0.45786086546499627,-0.6122139891002125,0.032982816646585957,-0.37911803535111904,0.9842635918003566,-1.0539377764652196,-1.2107591011543046,-1.1707888942929792,-1.2266967365205443,-1.0724357690024986,-1.143211043352515,-1.176348472414708,-1.1844352442614947,-0.4126641884307722,-0.6585106713523894,-0.5176351045864612,undefined,1495509635464
903d185fccf839df,-0.9647474953928686,-0.7988178025148723,-0.7972816012278361,-0.8566328602696623,-1.4709278709080433,-1.382038859697843,1.741769713279455,-1.3010767538919608,-0.45178100726105475,-0.6137498087551312,0.029485595819476473,-0.36002665364751485,0.9842635918003566,-1.0539377764652196,-1.2107591011543046,-1.168768284681263,-1.2170146383469544,-1.072353440729156,-1.141888646090706,-1.1656003574662752,-1.1818247132102837,-0.412374116251151,-0.657030528276738,-0.5137422682763985,undefined,1495509636470
903d185fccf839df,-0.925939054032008,-0.7577267526463751,-0.7794172985050677,-0.8530708214608979,-1.4545838979478214,-1.3891756484475324,1.743413342015516,-1.3010112318207596,-0.462034405411408,-0.5966517262764485,0.027771035599520592,-0.2832310012970828,0.9842635918003566,-1.0502344409673086,-1.209706471053508,-1.1606858462343992,-1.196256243163885,-1.0693516255700255,-1.138803052561379,-1.1435497839776,-1.1753265592702233,-0.4073076152290936,-0.6450400243872804,-0.4995182593717563,undefined,1495509639301
903d185fccf839df,-0.7956536659780884,-0.753030632661404,-0.7749510957559008,-0.8457560852059,-1.4348250744590594,-1.387878262073167,1.742345639714232,-1.2961119224032995,-0.44587556122840594,-0.604536731261446,0.02174787387710589,-0.1598286299727602,0.9842635918003566,-1.0483827780748936,-1.2002327780596351,-1.1606858462343992,-1.1759730577097267,-1.0664891349614043,-1.1329607154854706,-1.1255028061434116,-1.1685308078448278,-0.4043316725469307,-0.6404288484776669,-0.4901849437651509,undefined,1495509641471
903d185fccf839df,-0.6307179282160701,-0.5505103413975561,-0.7066838118539895,-0.7977347655486096,-1.3856388743859271,-1.4824453746661366,1.7812325828132316,-1.1714536935108335,-0.4970520998377317,-0.6074776666241923,-0.04579620854744561,0.08643251355638612,2.250661486185383,-0.9770935689306831,-1.1444432317916111,-1.0899645875523232,-1.020166458936059,-1.0162815569942776,-1.120884220022433,-0.9474197852167608,-1.1109834098666789,-0.3907511775139676,-0.5727437484335636,-0.4384923436255678,undefined,1495509642259
903d185fccf839df,-0.2481778783490154,-0.2963325549310719,-0.5624931143118375,-0.6416046924212925,-1.2893338928567046,-1.6268908143381875,1.8514957461289712,-0.9558165238558478,-0.46282546162353644,-0.602208394413322,-0.006867498312253938,-0.06595895811299178,1.771954378342246,-0.8391443013979127,-1.0265483586507822,-0.6474514429617182,-0.7380921947752588,-0.9461378721258641,-1.073375874292136,-0.6130425406678603,-0.9977960964978945,-0.39080120273316415,-0.4904068784538765,-0.43085007370319967,undefined,1495509645391
903d185fccf839df,-0.3216367211760892,-0.5170504865046369,-0.03422016236711293,-0.06685786170384546,-1.1330941559186476,-1.738715259159626,1.9116709728829466,-0.7188559681606947,-0.357006249906252,-0.5982311979191531,-0.04148471090480453,-0.26718167996320297,2.0200116978609626,-0.791926790797439,-1.0223378161608936,-0.25141232297367144,-0.6994800526712832,-0.8917188868624217,-1.0523784448634619,-0.5184806864552499,-0.9481376426284832,-0.400076927907041,-0.5035549769955703,-0.44671484743630085,undefined,1495509646735
903d185fccf839df,-0.5184507475443649,-0.4577618840103998,0.6854567954466935,0.614835063533037,-1.119527322275103,-1.8230803044622086,1.9047177746201103,-0.8403019216118075,-0.376417435209268,-0.5395675665907228,-0.0494699646524488,-0.33780564047064016,2.611867758467023,-0.6502742071929194,-1.0318115128358833,-0.039248479798730196,-0.7510522740097958,-0.8024180479401745,-1.0180380973682321,-0.3670985698382242,-0.8655643660179695,-0.40465907453006655,-0.5380344561098952,-0.47968764589536234,undefined,1495509648300
903d185fccf839df,-0.5600311464908375,-0.46656710898222065,0.7964711849263677,0.6988482597811843,-1.1558975461549068,-1.8313351279639856,1.9023351643018727,-0.8847745880814205,-0.4049979048294083,-0.5146736581013076,-0.03770752916635444,-0.4404363886663967,-0.2168560606060606,-0.6326833838134274,-1.0233904720295088,-0.037227863120833815,-0.7990503031368416,-0.7691257629063182,-1.001903451529434,-0.28744241099262924,-0.8275790332155122,-0.41540476362046685,-0.5412132527558445,-0.4709268266328639,undefined,1495509650143
903d185fccf839df,-0.5309248672283068,-0.4994399488770183,0.6382439953936625,0.5652245259751719,-1.1537375484684878,-1.8629335876872495,1.911547372643916,-0.8753885748842525,-0.35503034178967685,-0.4893051275506543,-0.05267121937037364,-0.19796356516928088,-0.7042669340463459,-0.6743458895481879,-1.002337781666767,0.38305853334381285,-0.7346280388606468,-0.741678784964208,-0.9719081231787776,0.23568897391931964,-0.6831724878459459,-0.4374964854958421,-0.6740033908742421,-0.47373147264899335,undefined,1495509651274
903d185fccf839df,-0.5281528406318752,-0.4765463785642804,0.7014071928033543,0.5576655698815214,-1.1181284656734012,-1.8838082301692807,1.9525697119653092,-0.6068974237402925,-0.3644377096792181,-0.5888091335031207,-0.0730365399375211,-0.04095144690251698,-0.8043602384135473,-0.6058341682672128,-1.0118115041095748,0.2456572069383716,-0.7755109228054007,-0.7348708703283017,-0.9803182900605237,0.37740086843847925,-0.6571201555727461,-0.44945711299505986,-0.6944927726681732,-0.46308821316494014,undefined,1495509652739
903d185fccf839df,-0.6459641435072628,-0.5035490830918604,0.597411303455906,0.5916486668517883,-1.1493146977676925,-1.8884643787338076,1.9000971853177226,-0.9709060800250648,-0.3358678114492556,-0.6396998435388849,-0.07155724270099147,-0.04592144784546874,-0.9392686051693405,-0.6299058635732557,-1.031811520198117,0.10421466130949832,-0.8412479025400857,-0.7182215613727551,-1.001665560149256,0.356520578594209,-0.6633714524422615,-0.4639970488793737,-0.7186370431030348,-0.44206332048658775,undefined,1495509654250
903d185fccf839df,-0.5461711170249092,-0.5927754504902882,0.7320317117566716,0.6388410412906268,-1.1636735313215218,-1.9159773526451531,1.9152238336960061,-0.9087250812353491,-0.34332333066595494,-0.7164382322353465,-0.10820462426715795,-0.031094818277352353,-0.9914911987522282,-0.670642570238745,-1.0328641576611477,-0.2655565796564129,-0.91008274792593,-0.7342629079456654,-1.0059685986854858,0.2408474584075885,-0.6906453012066486,-0.46683675587509665,-0.7534661821805247,-0.4488681354465846,undefined,1495509655736
903d185fccf839df,-0.6085416464337986,-0.6356275599671457,0.9189690066026878,0.9361928341431369,-1.1109799030868466,-1.9199533633381323,1.849502353008484,-1.341287339732798,-0.3987924513079294,-0.6694604412345095,-0.07736245861931383,0.064260757791826,-0.6215811608734403,-0.6678650629493479,-1.0297062599965234,-0.3484014960087848,-0.9475326973309779,-0.7348518723388429,-0.9999583381057177,0.0784246541169827,-0.7192207163585612,-0.46679848239793564,-0.7483221653826122,-0.4731542285394131,undefined,1495509657243
903d185fccf839df,-0.5683472607855418,-0.6796537578962306,1.0318970473115203,0.9720548490637843,-1.0211960548103598,-1.9294124042797973,1.864886722126205,-1.23500919004861,-0.3978454148494865,-0.5206131730115733,-0.03738367114568548,0.09852276171062926,-0.20380041221033868,-0.7095275751594956,-1.0202325743648846,-0.4069991252852862,-0.9544383616103778,-0.7538380373729305,-1.0070950846922124,0.04231529908772236,-0.7380036507263353,-0.4743130344620652,-0.7427505316798454,-0.4663470038134679,undefined,1495509658739
903d185fccf839df,-0.5420130426248522,-0.6808277878924734,0.7116153657877934,0.713980365940735,-1.0049035073565544,-1.941859858609746,1.8756794407786168,-1.1904529316382808,-0.3905781810578395,-0.3965213011237987,0.0031789373108444103,0.013154564439682534,-0.09935522504456328,-0.7317475751961872,-1.0044430639550619,-0.5161119453914249,-1.042604635137032,-0.7496646275891893,-1.0110762705214702,-0.44861793632872987,-0.8535568338916422,-0.47637031791242873,-0.673886005499266,-0.5589936281905472,undefined,1495509660242
903d185fccf839df,-0.5142927421551274,-0.6285834092176814,0.7588284199777737,0.7394342153543842,-0.970898994815864,-1.9532871061794876,1.9089859377851945,-0.9622337751182438,-0.42955766968936915,-0.5247612058102186,0.04536843768831453,0.05226648961549812,-0.4866727941176471,-0.7058242299485037,-0.9823377655782247,-0.5039882877211289,-1.0327441828791457,-0.7224013050081869,-1.0037156250510113,-0.4525753380604204,-0.831617308530575,-0.47791785619039306,-0.6759799909737408,-0.5768326105123156,undefined,1495509661735
903d185fccf839df,-0.5073625721478194,-0.6027546908443557,0.579547254870087,0.4960550873894006,-0.9346521983322695,-1.9503545934492468,1.9292433374348992,-0.8111172242172595,-0.3752059226262546,-0.7260813220986642,0.06127964036844334,-0.038320908118257925,-0.5301916221033868,-0.6650875297584017,-0.9686535595433985,-0.4171021662776858,-0.963830756573674,-0.7146687808389945,-0.9966348526640283,-0.3065210842005382,-0.7948399384029123,-0.48802519204484374,-0.6619565456990744,-0.554160872628405,undefined,1495509663296
903d185fccf839df,-0.18442119762027132,-0.603341705842477,0.40537017625461974,0.36129434929665094,-0.8573346195676311,-1.9465462872750445,2.0015051482404442,-0.31232751928875746,-0.34189819911282043,-0.6162910789651219,0.06608623532546876,-0.0017312218721767466,-0.5737104500891266,-0.6613841974981843,-0.85391657670496,0.19110082515002375,-0.7022642002131652,-0.7215590245123036,-0.9220138649272996,0.6355866107752587,-0.5555421024315492,-0.48636901421926265,-0.687967952342056,-0.17858390246373296,undefined,1495509664741
903d185fccf839df,-0.20105339170427008,-0.6438457845548413,0.5616832062842679,0.5175331804735464,-0.8258089565503097,-1.941035306758722,1.9970923474561426,-0.33519798221280017,-0.3327724777701584,-0.7089410669931,0.09033379015150111,-0.004813925496490569,-0.4083389037433155,-0.6623100483705536,-0.8991797961971976,0.5608719671894096,-0.6139297720406085,-0.7229712717385687,-0.9349509679507739,0.7391103579220907,-0.5365755250523515,-0.4743071888847806,-0.709872584528122,-0.17827855141368362,undefined,1495509666236
903d185fccf839df,-0.15808697945958175,-0.6074508546713153,0.5246780709417772,0.573924004274819,-0.8097529852277174,-1.9132824226875214,1.9023535776399665,-0.9268403291543543,-0.3150080343738426,-0.5237612750261808,0.018309553255288272,-0.05442674739659693,-0.4649133801247772,-0.7169342461553176,-0.8960218985325733,0.5810782046301773,-0.5883675072039011,-0.7181709008186721,-0.9316484734494306,0.7814560838955895,-0.5252994428207861,-0.4717457884351687,-0.7172986576718761,-0.19077004460119823,undefined,1495509667748
903d185fccf839df,-0.3673752290280285,-0.6332795145886564,0.8870687201632649,0.8965279555215511,-0.9417904780925335,-1.9174354566229515,1.9008598513676591,-0.9534217736375155,-0.4112319969265563,-0.6579926597035358,-0.020801904936489382,-0.08710044740250207,-0.8913978943850268,-0.6484225443005044,-0.9118113647689932,0.47802710736648074,-0.6018631165057851,-0.6996343748188991,-0.9247985954910565,0.8290526775988403,-0.5098664815773378,-0.47935046218088184,-0.7096120785069449,-0.19437765026765272,undefined,1495509669237
903d185fccf839df,-0.23154571877042635,-0.4483696440404576,0.9030191175199258,0.952483460004383,-0.7946021546843641,-1.8600802693740102,1.848929067376149,-1.135723383383849,-0.5529131009107072,-0.8548484451568772,-0.052752402348686354,0.039388421713911735,-0.9131573083778967,-0.5993533546191474,-0.898127158734167,0.8316335562328285,-0.5379459153005125,-0.6768041130058544,-0.9070756731305902,1.0622621342732568,-0.4450551203500445,-0.48260540221427217,-0.7561682055141965,-0.208085209301618,undefined,1495509670735
903d185fccf839df,-0.22600166557756335,-0.4783074381726407,0.795194655029414,0.6044724881300996,-0.7846044550224153,-1.8710160464639713,1.9228108423529084,-0.6818373489364841,-0.47955089908501547,-0.7903486183653993,0.028227740760932592,-0.04073053250683791,-0.9871393159536542,-0.6604583984289131,-0.9191797901990385,1.2983938324433357,-0.4074867175838318,-0.6641572252406259,-0.9154228690264162,1.0714395986183352,-0.44842821090638724,-0.4776026127175458,-0.7054344788342354,-0.2703823594731527,undefined,1495509672239
903d185fccf839df,-0.20936954050438406,-0.438390389072394,0.31923858962993995,0.3092618283085161,-0.659962375537531,-1.8313141651267844,1.9427500300221423,-0.4941822305066555,-0.514101845528005,-0.959099589806208,0.146777524411918,-0.10044217745299111,-1.0480656751336899,-0.5993533416683728,-0.9454956163412968,0.983179043927576,-0.4201437534155492,-0.6312069187334889,-0.9367981254961495,0.9539032626151824,-0.47958632315104366,-0.4529174918529784,-0.4456414520708131,-0.265550188385122,undefined,1495509673736
903d185fccf839df,-0.4824142982745262,-0.5663597317328374,0.16228767585723902,0.14121519673124747,-0.815944968789298,-1.8886646937351064,1.9121101537277019,-0.8688506494317588,-0.30331673752542393,-0.6290666102726429,0.1750541968826056,0.04354895083535116,-0.8565828319964349,-0.6567550596933085,-0.9223377025881303,1.5044959139118426,-0.32530273401931104,-0.6465643068245012,-0.9269955930970181,1.2296740206184111,-0.42606603308154384,-0.45301522200121747,-0.5072874040622386,-0.31902615785257343,undefined,1495509675237
903d185fccf839df,-0.4588520722048584,-0.5499232971714423,0.3741072652843508,0.2940435377847188,-0.7498182223709425,-1.8788632556644873,1.8729470744561274,-1.0860580974079646,-0.3316371743465923,-0.48397700983154673,0.13365121793124604,0.04008586761515526,-0.6389886920677362,-0.6382383919168343,-0.911811372131227,1.9773180401560388,-0.26109693445058163,-0.6329611433791399,-0.9377496912309591,1.825101115193458,-0.2960908529581386,-0.4394742796475245,-0.47684478837459704,-0.29426829926000503,undefined,1495509676804
903d185fccf839df,-0.6265598883214228,-0.6009936604639877,0.4927772762284556,0.5070604030768874,-0.8097324062976774,-1.8797600121377331,1.907665764923704,-0.8643965237463683,-0.34253054852879,-0.38576720966953487,0.18749677008923174,0.1023663008455866,-0.4083389037433155,-0.6789750662053873,-0.9160219072588818,1.8944733499214392,-0.28117998609498956,-0.6199152802785057,-0.9250224924236782,2.181128573097476,-0.21256825497949883,-0.44178338753653823,-0.48515651058963133,-0.2508330530112442,undefined,1495509678237
903d185fccf839df,-0.12343657799336848,-0.6385626203437565,0.481293335757911,0.48786084734548496,-0.8012364233966456,-1.888308319346961,1.9029557832539883,-0.8931173859889666,-0.33364401543760147,-0.39049173386388064,0.2451313892714986,0.08800117992723874,-0.43445020053475936,-0.6715684016849525,-0.9097060972051657,1.4903516536960109,-0.3449304584559433,-0.6561777159690354,-0.9107979762845341,1.821744260925021,-0.3061641218164959,-0.4568752369428583,-0.3547378655350909,-0.26096758983769835,undefined,1495509679743
903d185fccf839df,0.015164889849845698,-0.7442254369175756,-0.06420679757737756,-0.017679330593261437,-0.7478125128207985,-1.928375892839176,1.9363332886204108,-0.7142823142873167,-0.3286641566705945,-0.5971762289249568,0.2838304746746132,0.10465298884500454,-0.8174158868092692,-0.7382284341719634,-0.9223377025881303,1.033694263021935,-0.561152077247171,-0.7539267016185071,-0.9478460908063331,1.5933545201388948,-0.39263373744125485,-0.48127792604295866,-0.4631343398058572,-0.4828795434331801,undefined,1495509681250
903d185fccf839df,-0.2856002374008407,-0.696677207455747,-0.4680675142057756,-0.48506486402038385,-0.9012545438373489,-1.967295150592865,1.948898502139972,-0.737047984578897,-0.2859360365651717,-0.6675057928172349,0.18078468900638828,-0.0983763944540543,-0.7695451760249554,-0.7150826026890644,-0.9202324423865367,1.4984340638781533,-0.29550366575468057,-0.7310647740627921,-0.9205375387070606,2.3017600066647534,-0.21424435836230082,-0.48336523473821175,-0.4173608014494066,-0.3669555206737279,undefined,1495509682741
903d185fccf839df,-0.6334899893179113,-0.861628597295811,-0.6473489334504118,-0.7369133679436588,-1.1916403416511392,-2.0052897014104176,1.9422477129438238,-0.8780038796202333,-0.3172370263734497,-0.6886070628984077,0.10589681621427253,-0.08376259215116033,-0.4605614973262032,-0.7335992510393767,-0.9433903487774694,1.6055262673063957,-0.26479929954029674,-0.7607789464338318,-0.945970946525167,2.269161490883423,-0.2282087412385343,-0.49962545758656823,-0.5277774436263407,-0.3751590232718151,undefined,1495509684239
