UUID,iqrAccX,iqrAccY,iqrAccZ,iqrAccXYZ,meanAccX,meanAccY,meanAccZ,meanAccXYZ, covarianceAccXY, covarianceAccXZ, covarianceAccYZ,pressureDerivative, pressureIQR, iqrGyroX, iqrGyroY, iqrGyroZ, iqrGyroMagnitude, meanGyroX, meanGyroY, meanGyroZ, meanGyroMagnitude, covarianceGyroXY, covarianceGyroXZ, covarianceGyroYZ, class, timestamp 
903d185fccf839df,-0.8025837497218721,-0.6303443811420647,0.7607425794808308,0.7306906411866259,-1.2801022101942032,-1.4119802482092287,1.693370931681645,-1.5792848470785552,-0.5425847846538902,-0.40111664070815745,0.05184017139096669,-5.079856759943804,-0.07324392825311943,-0.7095275848725765,-1.148653770600383,-0.5484416850465202,-1.0537917157345102,-0.8189248681627845,-1.0170445489942146,-0.5425022568348521,-0.8968715350928762,-0.3955904029492887,-0.6628717102921943,-0.5145894120265174,undefined,1495090671441
903d185fccf839df,-0.3105485457795437,-0.27930906152956697,1.3930119290469025,1.1694110930076356,-0.8802340038093966,-1.6163867210096639,1.863030085769306,-0.7155327375833799,-0.6243377823491482,0.19065785101062263,-0.2298867909007683,-2.8475854662098765,3.0818711007130126,-0.48362408064768125,-0.9665483140662724,-0.4959058634066257,-0.8782629283726203,-0.58096741491237,-0.9476111968112577,-0.46296615107150646,-0.7268797586392146,-0.4902382356109687,-0.7863294846316423,-0.47709035627260865,undefined,1495090672943
903d185fccf839df,-0.21907163359189433,-0.3984732815161627,1.3930119290469025,1.215588544699627,-0.8495540545483585,-1.5490057112024533,1.860410511355978,-0.5732497533788286,-0.6711015076810652,0.3119077078762902,-0.2572052484139069,-1.9517349443211933,2.9447867925579323,-0.4873274582356096,-0.9981272465391121,-0.524194383838289,-0.8334718223753969,-0.5531321626143672,-0.9826515154350027,-0.4835695577631903,-0.7338716928887281,-0.5036542548293408,-0.7152655175907524,-0.493289560430511,undefined,1495090674476
903d185fccf839df,-0.10403232280752847,-0.3362496040313186,1.5952614833695773,1.4055548411970153,-0.6564960913244441,-1.6788375051722482,1.8536811201399133,-0.7948372018029922,-0.5568909208444961,0.37001859306792645,-0.19551629905430137,-1.3792602294210867,0.43157447638146174,-0.4623299379587464,-0.9739167174096164,-0.38881368824310486,-0.8121079437595232,-0.5359920807882785,-0.9510942235676266,-0.3838657016935624,-0.7097221400374627,-0.45916541121612886,-0.646001926296374,-0.45464406870815965,undefined,1495090675927
903d185fccf839df,-0.1802631922310338,-0.3303795125060894,1.6092972129492822,1.5266044051886742,-0.549319129824029,-1.7198251282465755,1.8299024167949516,-0.9776132774934919,-0.45664587153938524,0.11488419375797451,0.040269786721644094,-0.013373574875030131,-0.2560230057932264,-0.38733740302970593,-0.9476008986295918,-0.12411397749809655,-0.7176630827047344,-0.4764013794560685,-0.9393992080572414,-0.10921855415955434,-0.636230618115836,-0.4547462948791645,-0.5923708393437409,-0.47798470608188004,undefined,1495090677429
903d185fccf839df,0.16208250649317385,-0.5012009938713825,2.1267246164404137,2.262030918438992,0.010089065982810081,-1.8575670199711753,1.8908323892865804,-0.6018790290459083,-0.32007093371294887,0.17822518305599122,0.11901589735622012,0.031883805895181375,-0.22555982620320855,-0.35308151648766933,-0.9223376878636628,0.033493416759783214,-0.7448106426302644,-0.38899715122143974,-0.9238540245301421,0.05769834537506008,-0.5645753110634115,-0.4354746110824757,-0.5803747457760459,-0.45229065500675497,undefined,1495090679074
903d185fccf839df,0.7081721600550971,-0.3820368615687638,2.157987527410683,2.219580927932522,0.25701779330693975,-1.7978173759479024,1.9238601307923378,-0.15865975983915329,-0.3546483308092491,-0.26877106472058065,0.17950886051263487,-0.002498880951288555,-0.29954183377896615,-0.3910407029129869,-0.9160219219833494,0.13250315347644004,-0.7675169511912475,-0.37165121947458973,-0.9060611345135715,0.22946800669775283,-0.5210343088722809,-0.44035923163955454,-0.5520787294571625,-0.4396628279262802,undefined,1495090680516
903d185fccf839df,0.31315795599869084,-0.27989613498367305,2.4176580547708277,2.43772482722555,0.30522685869711985,-1.7543118468506187,1.8995133862329023,-0.19830501683878546,-0.40924573324521923,-0.6895539951918862,0.034593950568658355,-0.1688966082602837,-0.7086188168449198,-0.3567848422724994,-0.8886534510158267,0.22747171336674718,-0.7352911558300828,-0.3306010781646318,-0.909538549708909,0.42381178907162625,-0.46880389827344326,-0.40474480324304246,-0.5467431601139756,-0.48658130190311716,undefined,1495090681951
903d185fccf839df,0.030410967119399505,-0.24467526432438216,2.688812776738467,2.5556513878087848,0.10276320066454883,-1.7363487522828076,1.8021237755728932,-0.8745622630543244,-0.4749919816755986,-1.0682336883528845,-0.021704942249995567,-0.03620266889574938,-0.8261196524064172,-0.3938182037269968,-0.9002324189357607,0.30021371591796636,-0.738239951980604,-0.3242428050268565,-0.8999109390681405,0.5002188744741252,-0.4505879222983055,-0.40872431582997226,-0.5003697668098356,-0.5006006054212698,undefined,1495090683437
903d185fccf839df,0.006848741049731715,-0.3127690041064631,2.609061552366011,2.5257082676990845,-0.20928427069110467,-1.7600953458628792,1.779262871541701,-1.2085884958942767,-0.37224660311779256,-0.6333938478250615,-0.07483140424262696,-0.07701564050910417,-0.517135973707665,-0.3845599022156961,-0.9097061266541009,0.24363653373103214,-0.7223529770384719,-0.3341095321620997,-0.9115746227261566,0.6221283663319487,-0.4285892834058792,-0.4016106417033618,-0.5507376290924543,-0.5248684907715507,undefined,1495090684929
903d185fccf839df,0.07753541925873508,-0.36677447161760773,2.721989338937894,2.4847624734182108,-0.13504211080378656,-1.8007312530193427,1.8788010337265526,-0.5478571431234612,-0.4795917269774586,-0.3966114984853011,-0.10289182124098377,0.042828929537035966,-0.5650066844919787,-0.37159821016569256,-0.9023376938618218,0.4174088896768045,-0.6598237397742365,-0.30341375619527405,-0.8868898746750526,0.5616278720868308,-0.41612285005670624,-0.39699317782481186,-0.548353429425599,-0.555146146323989,undefined,1495090686434
903d185fccf839df,0.22583918722191793,-0.4295850764165962,2.794722825588972,2.656343761932407,-0.10354730547573644,-1.827147157893425,1.9130516212726436,-0.2965828817251364,-0.511951768978016,-0.5361181358504715,-0.21486432286129725,0.0010137822553068498,-0.6259330436720143,-0.35678488112482304,-0.9118113868556945,0.3830585757408952,-0.6626560507815009,-0.3012035582705143,-0.8928651506927214,0.4975087448176999,-0.43442548856811974,-0.40501401738412973,-0.516443552854862,-0.5722519286488472,undefined,1495090687967
903d185fccf839df,0.1315900068999689,-0.4483695563564806,3.270679399262345,3.1611127848174116,0.17629564904262576,-1.822747225439001,1.9280967336970534,-0.06092324012880077,-0.49756229555723047,-0.5306911097681932,-0.22317191574133416,0.08360556477997684,-0.7869527072192514,-0.3169740059055413,-0.9012850563987912,0.38507916415407,-0.6608923698767071,-0.2633768868758352,-0.8629607801310633,0.4773213804817141,-0.41943083732179903,-0.4142919096892162,-0.4784858322688773,-0.5527860018240899,undefined,1495090689445
903d185fccf839df,0.10802784984112057,-0.44426050982561555,2.888510287815032,2.856024338988111,0.17973106943884531,-1.7958282071354355,1.8158434597189732,-0.7695471123385788,-0.5779414126900976,-0.023471289047911546,-0.15769442881451304,0.00200809747143271,-0.9218610739750446,-0.4021507579721245,-0.8918113265937495,0.10017342795370554,-0.7379912893595287,-0.18868614913360107,-0.8548584731114028,0.5207296009814939,-0.3760574527079132,-0.41082197436938916,-0.601462776547774,-0.5243565053893757,undefined,1495090690944
903d185fccf839df,-0.016713485019936074,-0.4612839447711358,2.907650612160855,2.944029061245658,0.2848920342637061,-1.7935618561011901,1.7605833534464224,-1.117627124668847,-0.5558311450130089,0.45416049566004424,-0.029009474474380896,0.0602930636829048,-0.7913045900178254,-0.40122490709975517,-0.863390262336599,0.18099772762818103,-0.7653841289775701,-0.14324094413086327,-0.8497647956985069,0.43158800281039295,-0.3655730090395451,-0.4350176066775809,-0.5872310090019202,-0.50922828195378,undefined,1495090692422
903d185fccf839df,0.1121859587465873,-0.5399440422033788,2.549088536082431,2.5643044038605254,0.09806263851433238,-1.8530809058401054,1.8526186800643611,-0.6923575051920586,-0.6114829471951682,0.296495539905312,-0.06872196810978001,-0.09157743309838381,-0.7303782308377896,-0.4539974225659423,-0.8654955225381926,0.14866808689961114,-0.7864548543174812,-0.18246086315117843,-0.8345257411625585,0.3653284934551023,-0.3956906763362641,-0.43559130935355783,-0.5634628470260811,-0.48223253257169146,undefined,1495090693929
903d185fccf839df,-0.03334578262016404,-0.47889442394276976,2.461042535817745,2.495631635436996,-0.037873133003926834,-1.8735945146047723,1.9576373552862554,-0.13069058819524818,-0.5234178766310159,-0.3797355714016832,-0.10418577157238387,-0.004409875967536869,-0.45620961452762926,-0.3947440545993661,-0.8286533880257323,0.22343056480511903,-0.8018664624344837,-0.18784386375437853,-0.8298168873202135,0.3580296311078388,-0.39136809322156413,-0.43715924793315303,-0.5740941267038887,-0.46098862442670885,undefined,1495090695428
903d185fccf839df,-0.18442123212568104,-0.5557934763806486,2.244756743641466,2.26032960673339,-0.2323653778862202,-1.9167413423556807,1.9276733358631677,-0.4838825150543245,-0.5039474620350163,-0.8584549840160834,-0.12782218100238027,-0.02394007671963154,-0.45620961452762926,-0.40585408375695464,-0.8254954756366405,0.13250318174116157,-0.7980249568890895,-0.21453088733679496,-0.8361979793596933,0.2852565769997892,-0.4114831278362788,-0.48704984814903235,-0.5354547336565044,-0.4319519863130315,undefined,1495090696993
903d185fccf839df,-0.18442116311486156,-0.49239576889956166,2.2268924409186974,2.0923653349575044,-0.2250111046777605,-1.9000174050577712,1.8573365516682296,-0.8941441243727769,-0.5375983430477391,-1.061760148907562,-0.11958728122911128,0.07082432427632372,-0.4823209113190731,-0.37252404808728734,-0.8570744817318181,0.22545112495357233,-0.7726316569228253,-0.2475001924867175,-0.8559219886338084,0.32310595746838944,-0.42525514412386206,-0.46904896447919425,-0.5397062075406921,-0.467924007937859,undefined,1495090698429
903d185fccf839df,-0.33549688866365646,-0.5751649567046582,2.21732265995121,2.303285844124462,-0.24607620750731843,-1.8996889829083796,1.8946982056157489,-0.698696957351483,-0.45059146349531914,-0.5158848603518417,-0.00876635700103169,0.038405656278126137,-0.7738970588235294,-0.36326569477288845,-0.8781271205589234,0.1809977841576241,-0.7305912491804828,-0.325034421519314,-0.8683203368527548,0.3155607173284479,-0.4687426453707306,-0.4691356716429072,-0.5417331392668651,-0.4694467655284068,undefined,1495090699972
903d185fccf839df,-0.07492618156663661,-0.5469882221808354,2.1560731137706766,2.356157210724602,-0.023144006978791272,-1.9051440613269417,1.9542317671334863,-0.21827480607216246,-0.5392354129555511,-0.7358034335841911,0.04575181447049209,0.09991563221092814,-0.678155637254902,-0.37900491353845095,-0.8760218603573298,0.21534815462297655,-0.709620574872459,-0.33974585001963215,-0.8733720340977358,0.3204882181076972,-0.4772933994439468,-0.46755424711131915,-0.5199083453783079,-0.4539178178221247,undefined,1495090701437
903d185fccf839df,-0.19273738092579504,-0.5311388026175617,1.9455295459666193,2.0586915847909024,-0.04361254905063681,-1.9065975047441954,1.9656503711538325,-0.18254180781243529,-0.502685651805356,-0.608022016243251,0.07890733207732059,0.00252290946761496,-0.4126907865418895,-0.39844739333497076,-0.9065481995405416,0.17089470076814217,-0.6615640261865113,-0.3778575054134503,-0.89744106358691,0.3178858795887422,-0.502999852656381,-0.4429040084416579,-0.550692088257182,-0.4467133892784333,undefined,1495090702938
903d185fccf839df,-0.2190717026027138,-0.571642881329926,1.8160134782950228,1.9843178487655193,0.012999920351245456,-1.886591667507811,1.9303899286024835,-0.3882224208143581,-0.505014627219712,-0.7084844251711918,0.1750328705117106,0.07376955352657978,-0.5301916221033868,-0.4197415489746802,-0.9223377173125978,0.14664744195699322,-0.6799125045574999,-0.397014660419591,-0.9013103003932044,0.35781404844249076,-0.5159672046589289,-0.3707372411137882,-0.5059578072617515,-0.44619083327056935,undefined,1495090704423
903d185fccf839df,-0.05413591308258086,-0.5469882367948316,1.7834747998386482,1.7766569759354662,-0.032236577196453196,-1.8864868516039284,1.88819468855613,-0.6468398386948506,-0.5250127527253807,-0.9596180797348838,0.16391273230761955,-0.030950895662446392,-0.6215811608734403,-0.36048823281120224,-0.8991797667482624,0.11835894979005149,-0.6171097325108879,-0.39686900219456434,-0.8783817500798475,0.4500507361811041,-0.48860319382378625,-0.38930720152756193,-0.5452649431876486,-0.4491085549932005,undefined,1495090705935
903d185fccf839df,-0.09987435192370069,-0.5569675063768913,1.6775650051250923,1.7154944493583357,-0.0935290442102604,-1.8893168778529799,1.8744986616422443,-0.759073505968184,-0.4755742020434262,-0.8545850620285296,0.12987020805652144,0.028771253877649217,-0.6041736296791445,-0.39196656673613084,-0.8791797653841877,0.19918322119980544,-0.6000766368957581,-0.40973754446125477,-0.8675436906986342,0.5346959907858788,-0.47642995174281827,-0.3762161060724064,-0.5476237788767181,-0.4375373337863892,undefined,1495090707433
903d185fccf839df,-0.1774911656346023,-0.5176374284327775,1.7030851834492409,1.6100385839193188,-0.16350263790811434,-1.9161403985504923,1.9269843310220185,-0.44922049024706967,-0.5882940066561801,-0.8369532344759663,-0.01219346021706852,0.1545517163165428,0.1878690396613191,-0.40492821993381073,-0.8897060811166235,0.13856506003957228,-0.5981900525410954,-0.41200473767765444,-0.8728892537251677,0.5383608192943163,-0.4827871298636077,-0.39722111782584985,-0.504065906822558,-0.4306590699387468,undefined,1495090708954
903d185fccf839df,-0.07354009925760138,-0.4788943947147774,1.8689679944463764,1.949796093142038,-0.192004304083628,-1.8865823532283252,1.9394101644342459,-0.3676324389286497,-0.5077312138223009,-0.05484817139950924,-0.05802001116458003,0.20907911286111616,0.205276570855615,-0.43733244358343226,-0.871811317867441,0.2658633737173355,-0.6383601190309034,-0.36116386576911175,-0.863072728499501,0.5998622087105338,-0.44081991660883985,-0.4202212100936936,-0.5168699385926194,-0.4407231371551487,undefined,1495090710463
903d185fccf839df,-0.06245199287187537,-0.4976789331106465,2.028470951465187,2.257617699851552,-0.26343847035788104,-1.901081868094302,1.8298156348519345,-1.1132089983970415,-0.47130076232205653,-0.23473916188700295,-0.09351571910790185,0.16519680903912215,-0.6955631684491979,-0.41140908538497434,-0.8812850182235475,0.1971626327866306,-0.6310384587524153,-0.2943576441011505,-0.8520667453452773,0.6701561123074546,-0.3958197465136141,-0.44459457313266115,-0.5127522533131719,-0.50487078491678,undefined,1495090711943
903d185fccf839df,0.14822216647855793,-0.5387700268211322,2.4406264439858156,2.4640468956087864,-0.04215198683693668,-1.8953193299268325,1.8325269554140613,-0.9725227362239388,-0.5287706744869843,-0.19865699702871814,-0.021884499124174648,0.005551541947274062,-0.6041736296791445,-0.42159326367019345,-0.8781271205589234,0.32446100299383684,-0.6721791666561531,-0.30437635981947475,-0.8605188931595711,0.658206919973905,-0.39765905757940573,-0.4634173645448727,-0.4146105354774513,-0.5647476719519688,undefined,1495090713431
903d185fccf839df,0.24247134680050694,-0.564011686354348,2.031661132591299,2.2516577745131463,0.0553461435788397,-1.9131519859930592,1.8119092674522281,-1.0532168313011672,-0.4995219948734206,-0.43171956343699147,0.1320328555278707,-0.013220593707115114,-0.6520443404634582,-0.3901148520406176,-0.825495460912173,0.43761502819104686,-0.699190781215714,-0.27218600599442155,-0.8453428106616773,0.7447461837589799,-0.36282277218456743,-0.4629205041092064,-0.4039238135050152,-0.6019746714861103,undefined,1495090714933
903d185fccf839df,0.29513985213270555,-0.6843498486532094,1.683944604966468,1.813651624973958,0.07619525078963656,-1.9100051834436873,1.8255132591013001,-0.9538532605298892,-0.5306788126376708,-0.8140278313565421,0.2563303581425673,0.08520298312646947,-0.5519510360962567,-0.3901148520406176,-0.8391797184826356,0.3062754811574909,-0.7370000802008984,-0.25731625461086177,-0.8582939076861626,0.7480260529621344,-0.35493492326004494,-0.4531412328792021,-0.4308421640757714,-0.6385832025496587,undefined,1495090716447
903d185fccf839df,0.2785076925541165,-0.6479549187696834,1.363662923442741,1.463674291757422,0.013071931099345572,-1.8684725192187015,1.7581770911335997,-1.3831600928182302,-0.4368758423508878,-0.5675306691659698,0.1514625026140881,0.07746530783997116,-0.07324392825311943,-0.3790048876369018,-0.8318112783281227,0.3931615743362125,-0.7303715068894842,-0.2980687477008623,-0.8751982031312384,0.6412224372314144,-0.39842949882472845,-0.42947882846642466,-0.4181005632816654,-0.6110051463389612,undefined,1495090717937
903d185fccf839df,0.18564473256284164,-0.5264426972465869,1.7018094159631354,1.8428164138219019,0.10708319158822831,-1.8523145869642033,1.8852966545668886,-0.49951902506154916,-0.5719635373519982,-0.4532741996636193,-0.003207676722608547,0.14113750311293302,-0.6085255124777184,-0.28086652122496236,-0.8139165298034079,0.21938927491988316,-0.6949536680157821,-0.299873636399769,-0.8756180109947381,0.631721594277473,-0.40073815253961487,-0.4045285876846407,-0.4360897406005665,-0.5958584321166023,undefined,1495090719435
903d185fccf839df,0.2549454664844487,-0.3063118975831125,2.0680276217798887,2.058515618186528,0.005583931732234865,-1.8117066302670064,1.9185636929987715,-0.2319414452521832,-0.7172898740609065,-0.5145374601897451,-0.08250737899217334,0.063174449385485,-0.7129706996434938,-0.41048326041415406,-0.818127057568829,0.1648329072638961,-0.6669932743165947,-0.3434632889382511,-0.8599521518639351,0.5709593244404221,-0.4301666685459984,-0.37356097060653104,-0.5854631719401107,-0.5091513908167892,undefined,1495090720945
903d185fccf839df,0.17455641914465722,-0.3808627731165364,2.483373295426629,2.4076076081711943,0.033715310741823865,-1.8246851514697888,1.9368197970235763,-0.0991597702028409,-0.7232847023626129,-0.7703692316909141,-0.09658629462712148,0.033047976150044234,-0.7216744652406417,-0.3558590173016792,-0.880232380760517,0.18908019433976658,-0.6421799351854545,-0.3187141450912968,-0.8750512700355405,0.5925171478094393,-0.4206780114014445,-0.3869898786700317,-0.5682139046650125,-0.536950927944037,undefined,1495090722430
903d185fccf839df,0.2327692537129967,-0.5229206072578585,2.321956178904762,2.335766066585215,0.00781592799558419,-1.8050496632241944,1.8193779239542878,-0.9125179888036666,-0.6081617989944317,-0.8862976331324596,0.005355251238810482,0.06723761927489394,-0.8783422459893049,-0.42714826529821315,-0.8454954990874165,0.32446091819967227,-0.6962299109179607,-0.32775758854634235,-0.856306813966073,0.6172932493461369,-0.41673680305738386,-0.4103654630937578,-0.5334122899243721,-0.55523456012438,undefined,1495090723975
903d185fccf839df,0.02348103864995968,-0.5035490830918604,2.157349389530681,2.0957470413710024,0.10434719767638655,-1.8200569512724525,1.77521296477999,-1.1956379149768814,-0.5447487776515832,-0.909813277218409,-0.1008349000245356,0.06470932993496972,-0.8696384803921569,-0.4715882394700471,-0.8897060958410911,0.18908016607504505,-0.7256702962242437,-0.34042980863441036,-0.8669279731460198,0.6316138050112636,-0.4225971719381001,-0.413357659618207,-0.5298446178251738,-0.5766402891431498,undefined,1495090725421
903d185fccf839df,-0.03888962878056864,-0.46891513974671384,2.0322990163343517,1.9596255332716537,0.07325354022431904,-1.8458812257224808,1.826249619783948,-0.9403434602125406,-0.541732587033424,-1.1586437659969235,0.01233900680450553,0.008827417515135447,-0.6259330436720143,-0.48732743233406045,-0.9539166939588403,0.1365444433616759,-0.7943282722371914,-0.4165454581005612,-0.8931310303196042,0.5481080385466192,-0.47897432606147194,-0.4475521388198437,-0.5382337695292617,-0.56333834478962,undefined,1495090726936
903d185fccf839df,-0.14838495538289095,-0.28635332919100065,1.7107413131875702,1.6466495915398205,-0.04664682462166845,-1.7993849534948367,1.9658686532214897,-0.05058652419540367,-0.46002489743945263,-1.1372723979679829,0.11065412948118826,0.00926029524810203,-0.7129706996434938,-0.45862661217391626,-0.8991797888349639,0.11431771643425871,-0.8320892546127783,-0.4790706107561554,-0.8909900064360233,0.5291833489315854,-0.5106982194571217,-0.45013137827546734,-0.49895116081225627,-0.5614854488181736,undefined,1495090728423
903d185fccf839df,-0.29253033839732917,-0.28517932842275023,1.625248118579842,1.703248971394973,-0.17407632805399065,-1.7936200870182128,1.899873665641096,-0.5344665332564632,-0.45045711869068883,-0.8237585206534196,0.13698023002354434,-0.01442559944188233,-0.7390819964349377,-0.5160282654449792,-0.8728639626927055,-0.05137205974104199,-0.9104581883301234,-0.4750111940638038,-0.8867989155953545,0.4046253258166938,-0.5369460335095805,-0.4410016770727492,-0.5223937806148458,-0.5225079482351598,undefined,1495090729938
903d185fccf839df,-0.047205708569863156,-0.2857663141928793,1.970411840547715,2.000135173256006,-0.19012201561804948,-1.7461455327751543,1.8432460542347964,-0.8170815445619563,-0.6066074401947302,-0.5869496440241164,0.11231387744386999,-0.04081278800751551,-0.8870460115864528,-0.5160282913465283,-0.8697060650280812,0.055719974098871174,-0.935392193434066,-0.5293161872435297,-0.8977139410951553,0.3315904960090126,-0.5737475341954132,-0.42930547147725423,-0.5832536661977163,-0.5122258957099584,undefined,1495090731424
903d185fccf839df,-0.13729677998634546,-0.34916396321798143,1.8600358430849924,2.027529154200263,-0.21262712439517115,-1.7566480716560005,1.809098020643613,-1.0504567136556247,-0.5578758732981173,-0.4258268483712596,0.04947781527647082,-0.05841075453761384,-0.8261196524064172,-0.4928824598636293,-0.8486533820275732,0.19716266105135213,-0.8661390443633371,-0.5311717398129823,-0.8820620749499313,0.34721991587532536,-0.5687853860751245,-0.39693611885665764,-0.5762171768106719,-0.47983876952699106,undefined,1495090732958
903d185fccf839df,-0.2703540566150577,-0.30278977836639187,1.5588947400440383,1.8253043520468644,-0.049238828285448906,-1.7447130497206722,1.8641161949489655,-0.5825040055899687,-0.617005348198031,-0.6619316389269119,0.02403612486241862,0.029413549201367423,-0.8913978943850268,-0.5206574550529531,-0.8497060563017728,0.2759662875184882,-0.8315114227178647,-0.5483086850441217,-0.8897585671711927,0.4346060967043227,-0.5573801802309022,-0.39341840641664017,-0.556676790380137,-0.49916961783038427,undefined,1495090734423
903d185fccf839df,-0.11234847160764246,-0.23763099666294848,1.4606410750688117,1.5273620726104857,-0.300312695135024,-1.6998961582288588,1.8810442649849777,-0.5087256050443578,-0.49446511667740967,-0.7994716790365505,0.1161622780835308,-0.032382825999704906,-0.843527183600713,-0.5243607549362342,-0.8402323338589649,0.2355542366077758,-0.7561509660077108,-0.5286005643256144,-0.8755900250541655,0.43961059229556665,-0.5439965989231959,-0.3666695849243352,-0.5701964709846684,-0.46701201632249556,undefined,1495090735972
903d185fccf839df,-0.027801660416481563,-0.25289338661410454,1.4038579857743942,1.3363032351691042,-0.21159856339759187,-1.7106316223180855,1.8770443312979677,-0.5233878072238022,-0.5889908689193054,-0.8549370683122858,0.02669836835540319,-0.010569801791968564,-0.8870460115864528,-0.5345449461722279,-0.8254954756366405,0.1688741688844104,-0.800451511553662,-0.5177585650599728,-0.8870857849024689,0.4785224653653375,-0.5318768792378568,-0.3920768913665229,-0.5506994319454689,-0.49556114285873537,undefined,1495090737433
903d185fccf839df,0.08307961047323703,-0.2094542767531219,1.5333743075829405,1.6961538164808603,-0.3754394278163921,-1.6973153601842499,1.907197681905133,-0.3403241261295116,-0.6549116294546672,-0.64807454789034,-0.024410438307727406,-0.024619103525176128,-0.7695451760249554,-0.5002890855317403,-0.8233901933483455,0.23353347860627174,-0.766437621956083,-0.5107733271705995,-0.8720496396497748,0.5237630936978145,-0.5135666060237923,-0.3602192559984634,-0.5316454763967259,-0.5318953058004494,undefined,1495090738923
903d185fccf839df,0.19118878575570464,-0.20945421829713723,1.8964025864105314,1.903528005977061,-0.3328874994183129,-1.7373060693100513,1.8356090829784113,-0.8593265634534234,-0.6952727078152013,-0.12337120969442097,0.0379822393400278,-0.03731491844603867,-0.9566761363636364,-0.43270326692623284,-0.8591797492956454,0.20524504296877308,-0.7533612528408238,-0.4829147079614356,-0.8788575369508689,0.4937361257641334,-0.5122116670441255,-0.36833706570901115,-0.5150055682247833,-0.5106142302686834,undefined,1495090740427
903d185fccf839df,-0.09987435192370069,-0.34270685669463086,2.190525951730108,2.3115984232807225,-0.356770887857615,-1.7683431818531297,1.8393907424541778,-0.8342861479426871,-0.5806468387291833,0.1391980942796576,-0.07547720243609525,-0.05584928819423245,-0.9740836675579323,-0.39937321830579103,-0.8118112622395806,0.15472988040385724,-0.7322823164937192,-0.40444953515629595,-0.8484633902456666,0.5278590760670598,-0.46078071108099744,-0.3861301292740668,-0.4734135070380495,-0.48177834940606307,undefined,1495090741932
903d185fccf839df,-0.07769807014142918,-0.4571748105562938,2.0539916380632346,2.1364674140688926,-0.33084064827432624,-1.7668617861400409,1.8889783788922316,-0.5154790863645419,-0.41219002722784825,0.06777503950686664,-0.01241550955092501,-0.0016441625574735847,-0.7738970588235294,-0.3771532376952613,-0.8381270662951374,0.21736871477142986,-0.7175589309975887,-0.3858876771991035,-0.8574333018874398,0.5345266036991915,-0.4533466064708308,-0.39079408650521547,-0.5016185729561384,-0.5208560256431265,undefined,1495090743423
903d185fccf839df,-0.041661655377000145,-0.5575544921470204,1.7885788863308678,1.8984371466199508,-0.17740891037074583,-1.7877038180725022,1.9302558238149037,-0.25284476099379116,-0.373681141284639,-0.21806856939679337,-0.003344449338585806,0.00984051890181677,-0.7477857620320856,-0.4271482393966641,-0.8212849478712194,0.11229709975636232,-0.7062181664724214,-0.4226694128925495,-0.8519897829642143,0.478214486292368,-0.484929430391209,-0.35373331717851186,-0.4818967754988238,-0.48580566258707303,undefined,1495090744941
903d185fccf839df,-0.026415578107446342,-0.37499265236331486,1.8466374889744412,1.892947619710951,-0.2249905427381461,-1.7749978191244178,1.8563819372010129,-0.7917389384962339,-0.4464155810225979,-0.3786299855597158,0.11040583432896357,0.03389740257182198,-0.852230949197861,-0.5252866576117017,-0.8549692288924582,0.13250306868227543,-0.6873517289067318,-0.46749398937060965,-0.8753591313106672,0.3262626279342566,-0.5428837265927902,-0.3672979014920243,-0.5019724723785159,-0.4620497725160827,undefined,1495090746427
903d185fccf839df,-0.007011253910786871,-0.37499265236331486,1.6456642104117707,1.6689573889947353,-0.0035600511164900575,-1.7830639756217652,1.8070020657118047,-1.015715597940689,-0.5611809446163414,-0.8611598229211418,0.05946275491709017,-0.003975606637626712,-0.9653799019607844,-0.5521358278302054,-0.8065481043733627,0.1628122905859997,-0.68464671158572,-0.4510093362198351,-0.8593364336996145,0.44515402925026537,-0.5095329737080424,-0.3499320477125245,-0.5295277899551776,-0.47920882320431224,undefined,1495090747966
903d185fccf839df,-0.015327333700081384,-0.4031694015011338,1.690963105098694,1.8513803001125602,-0.002747474062630888,-1.7860780104058713,1.7637549048037535,-1.2804069211888747,-0.4552925215911653,-0.922520588759078,0.09635520343419125,0.0745072909764124,-0.847879066399287,-0.5762074842839247,-0.8202323030459551,0.24161591705313573,-0.6858159282301551,-0.47667675683910804,-0.8771992918066008,0.3521166250005203,-0.5404488620517823,-0.37016363028357796,-0.5795233705464108,-0.5050716010523196,undefined,1495090749435
903d185fccf839df,-0.058293883966408645,-0.41021358147859044,1.600365061587898,1.740793881455527,-0.1259701213906527,-1.7845896289063805,1.8158461041877418,-0.9591517902376595,-0.4873344743611531,-1.298587163398576,0.09193803609071964,0.031965329593429855,-0.6955631684491979,-0.5863916496183693,-0.8476007445645426,0.23555412354888966,-0.7343587115750007,-0.5087594493094558,-0.8763806644201964,0.3537950540463869,-0.5587937212784332,-0.37205694605475,-0.571789171440843,-0.5136869438183133,undefined,1495090750930
903d185fccf839df,-0.20382548731152106,-0.5070711730805887,1.7330720727964548,1.7851756180570881,-0.2809652929100767,-1.7463644836522534,1.830057576246829,-0.9117023231861043,-0.40150798716737873,-1.1100078353526526,0.11618133547274426,-0.02582481140784215,-0.7173225824420678,-0.5947241909127224,-0.8328639231533872,0.25778085047630683,-0.7396869381783957,-0.4925787798636458,-0.8624570102434244,0.3675304703731073,-0.5505015442224215,-0.37077231337663374,-0.5423839798385656,-0.48952665695910164,undefined,1495090752426
903d185fccf839df,-0.2869862852044662,-0.39612522152367713,1.4893511803821224,1.52818347156543,-0.36110116933359765,-1.7070189751665459,1.9214801555151728,-0.31438009873836464,-0.5311858125658927,-0.5579788099447454,0.09894677103093115,-0.001972572846005776,-0.8783422459893049,-0.5771333092547449,-0.8654955299004264,0.15270917893179622,-0.7700717674743475,-0.49521961688989163,-0.8670888987379316,0.3999441988183543,-0.5490816211809979,-0.3852594615898225,-0.5388887634107142,-0.5077855357810259,undefined,1495090753932
903d185fccf839df,-0.14422684647742423,-0.4325201514072031,1.689048945595637,1.626436017453412,-0.20776199771606446,-1.7300714545282734,1.849399803767424,-0.7476640166387818,-0.5659002873401083,-0.5355217873573018,0.03809554308488121,0.027988130330869485,-0.7042669340463459,-0.5845400126275033,-0.8928639787812478,0.25171908523678227,-0.7369612327500571,-0.4802232061344841,-0.8635275219772347,0.49823247600776505,-0.5225997956910889,-0.38182482161724607,-0.5377649475058879,-0.5036187251230663,undefined,1495090755435
903d185fccf839df,-0.06660996375570316,-0.4031694307291261,1.475315196665468,1.535721194814203,-0.1510878063899349,-1.7678097878820807,1.8654021651763621,-0.6619685472896233,-0.6254655779310515,-0.5295904301383741,0.052246622888344196,0.05094313544463477,-0.4083389037433155,-0.5752816852146535,-0.9265482303535514,0.20726571617611253,-0.8531368601923448,-0.47441589645565235,-0.8559289846861695,0.39011998926393027,-0.5395623512007072,-0.41799054887871806,-0.4990942552156787,-0.4664554460960709,undefined,1495090756927
903d185fccf839df,-0.2343177798722676,-0.35386008320295254,1.2692375774736286,1.3051071463460708,-0.29740183590132147,-1.8002933578829543,1.9174933546088935,-0.4234487525621343,-0.6457137073079815,-0.8779250954218301,-0.0807966431760498,-0.029480391534953892,-0.3604681929590018,-0.5391741746325255,-0.9244429775141915,0.17897716747972772,-0.8394605986563368,-0.4900266041983734,-0.8457346305353889,0.3971262828035785,-0.5398041510343646,-0.42724683450929873,-0.5018220144638217,-0.4602700838933883,undefined,1495090758434
903d185fccf839df,-0.16501704595066052,-0.3450548290031394,1.2577531287291852,1.2902667288505343,-0.3872679757416755,-1.7573445152839002,1.9009913263517755,-0.4982672602823537,-0.6706982264291684,-0.7179676094662417,-0.07507721664874757,-0.018744675213415496,-0.4649133801247772,-0.4984375003439726,-0.9328640256827998,0.17291523265187395,-0.8827917964784326,-0.45420747368493125,-0.8577341616232016,0.4159585803862414,-0.5197845101714783,-0.45611729217840385,-0.4414165856354532,-0.4929184361095527,undefined,1495090759966
903d185fccf839df,-0.2578800059419354,-0.31863915408767696,1.1952283233364451,1.1590463710733219,-0.4635261347571866,-1.7343362887994396,1.8657861143870107,-0.7472996804734867,-0.514699983047075,-0.6174706953602819,-0.09477605278223104,-0.1639064616106342,-0.6955631684491979,-0.5484324890946007,-0.9244429775141915,0.24565717867365006,-0.8636396355009319,-0.5058462968567086,-0.8254648706613014,0.3873328675687459,-0.5272239923624823,-0.4826322247864196,-0.46058317623033684,-0.4903768997260887,undefined,1495090761421
903d185fccf839df,-0.26203804583658263,-0.2693299234734728,1.466383045304084,1.514873128747273,-0.4430575995671333,-1.7118637881514396,1.782923562153183,-1.2441446732799146,-0.5409509546293033,-0.5886696424225766,0.0170074252095027,-0.026124429057038524,-0.5824142156862745,-0.4604783009678804,-0.874969230256533,0.2072656031172264,-0.8503675988522744,-0.45988812456772843,-0.8239885437437172,0.4157891960997144,-0.49918744710837903,-0.48218952698411194,-0.46117066956914354,-0.4860359822410482,undefined,1495090762949
903d185fccf839df,0.02209488733010499,-0.40258238650301237,1.0810237527306588,1.10242952285477,-0.2887824231874504,-1.7846338804979585,1.825760473197144,-0.9905822238419584,-0.5967651534967958,-0.43287387618826106,0.0024313607764028878,-0.03381141655086856,-0.7173225824420678,-0.43270324102468377,-0.8876008209150299,0.11027642654902287,-0.77947023546217,-0.45943848568290363,-0.8459865167240302,0.41919225084709255,-0.4987287439001572,-0.5050667188763626,-0.4861748505870527,-0.4888463503073202,undefined,1495090764415
903d185fccf839df,0.10664176753208535,-0.4524786905713227,1.1722594258475583,1.3051889706897108,-0.06785593924089851,-1.7870166943946193,1.8910191048087384,-0.5112276233002603,-0.579671381073808,-0.47772676041637896,0.05422307484138607,-0.08778783150611845,-0.9392686051693405,-0.42437073858265423,-0.8907587259418879,0.14462688180853991,-0.7707544628359582,-0.4612813715621848,-0.8425440866535618,0.3790485037840205,-0.5093576826904475,-0.48064391826171576,-0.47459790469300833,-0.4722478673817039,undefined,1495090765930
903d185fccf839df,0.29236775652545455,-0.5064841580824673,1.106544439328706,1.3483411365490574,0.18845333621234261,-1.8008407292346058,2.0136890245449504,0.374772999501047,-0.6361048362508728,-0.12050142619692363,-0.001288234086566912,0.023149686923026845,-0.7956564728163993,-0.41140903358187614,-0.9033903166003848,-0.01904241901247209,-0.7970071871541328,-0.44722857099819513,-0.8134023692359772,0.3642505971447223,-0.5005378327996911,-0.4466411600791118,-0.5060681420020383,-0.47684007788763255,undefined,1495090767419
903d185fccf839df,-0.20382548731152106,-0.42019289490263867,1.6539582238931527,1.792779064130313,0.1667093692041165,-1.7533149328368571,1.9316338172606138,-0.10310682608102875,-0.6749563045631142,-0.057321733998980565,0.03903487569639291,0.09468481014036637,-0.499728442513369,-0.4280740902690334,-0.9518114043083115,0.03753465011557598,-0.7954937553954111,-0.4466206089809788,-0.8629257960460944,0.3823591695953592,-0.5151565570080118,-0.4182992876066731,-0.506611788447031,-0.5105437429216966,undefined,1495090768937
903d185fccf839df,-0.17056103013270404,-0.38790704077797006,1.9525477919618959,2.0784042880547036,-0.06813365984870534,-1.6987012597445943,1.8706906983704712,-0.5038957446521285,-0.6423093379452581,-0.21920834358162877,0.13148050951024523,0.0011159536902433731,-0.47361714572192515,-0.5363966608677411,-0.9360219454341254,0.0294521551392689,-0.8201136726109358,-0.498297430451537,-0.856348793522282,0.3559662338581024,-0.5422688489730095,-0.4145661799811069,-0.5262639199981901,-0.5164155177437144,undefined,1495090770418
903d185fccf839df,-0.37291931672630124,-0.43604229985191617,1.76305845386977,1.9191397848865743,-0.25522020422365527,-1.678574303041982,1.8106890512153577,-0.969536706408762,-0.5563125565608786,-0.6672301551693949,0.10488946110215201,0.04178000593148703,-0.6433405748663101,-0.5521358278302054,-0.8960218690836382,0.04157591173609029,-0.8261660943001949,-0.5160930030874851,-0.8450839290690833,0.41786798584455603,-0.5394530784378926,-0.33509411506002085,-0.5092325144694638,-0.5086515115279544,undefined,1495090771961
903d185fccf839df,-0.23847588877773432,-0.5123543665196658,1.8249453755194576,1.8032620850089534,-0.3179835273323333,-1.645578300404119,1.8021474406615006,-0.9869344322868067,-0.5614067279369932,-0.5643837985630513,0.01759646804392095,-0.11980525274205316,-0.7042669340463459,-0.6178700094448469,-0.9223376952258965,0.001163634707605631,-0.8215452685580364,-0.5355731373851361,-0.8715948448140535,0.514200661270027,-0.5378192157735149,-0.3515918683797889,-0.5377366021089429,-0.529582583557959,undefined,1495090773512
903d185fccf839df,-0.07908415245046439,-0.3333145290407117,1.3298487316372107,1.4342439639202642,-0.2672647512966187,-1.6529060870768246,1.8540887407243003,-0.6060569214519168,-0.6486811486640889,-0.4110520787826027,-0.024110631855665844,-0.05551064444133164,-0.8348234180035651,-0.5882433384123334,-0.921285087211801,0.09209096124211999,-0.8169185375712634,-0.5429066875754057,-0.8903602915853016,0.5465989889677729,-0.540728822358728,-0.3426560405681641,-0.5447316651370254,-0.5351195281535173,undefined,1495090774938
903d185fccf839df,0.2604895886881312,-0.3057248533569988,1.3464367585999748,1.5016198239605265,-0.18850716303349188,-1.647255353691998,1.8607921142051016,-0.5215800185963649,-0.45201621795221375,0.19534219083010154,0.0402996981099707,0.03906616464062522,-0.9131573083778967,-0.5975016528744087,-0.8823376556865782,0.09815278301108761,-0.7354483059340764,-0.5258837331933064,-0.8570204879536808,0.3364256058328754,-0.548248900410005,-0.3138466230808068,-0.6225870173772109,-0.5767613510865318,undefined,1495090776427
903d185fccf839df,0.12327413414313279,-0.2986806441515498,1.7375377672717227,1.7474118467716109,-0.17254375818899664,-1.691788079721186,1.8034334158646257,-0.9666865924788028,-0.38433391215512486,-0.025206823715565086,0.16315741502421394,-0.018115291810927314,-0.9349167223707665,-0.504918313992038,-0.870758695128878,0.13856503177485074,-0.6947172796651049,-0.4530612127451797,-0.8555021806785528,0.348174617137091,-0.5152821798412659,-0.3290221013026428,-0.6064961455829236,-0.5486529469814158,undefined,1495090777943
903d185fccf839df,0.08030758387680553,-0.3233353617566251,1.8415339107561206,2.002511084705196,-0.05909251969064558,-1.7701506745336961,1.8122196007594065,-1.0173514268717945,-0.3043443679061562,0.139061599081383,0.18582899809255174,-0.0033682396691817333,-0.9436204879679144,-0.4567749233799521,-0.8633902476121313,0.12442071502957604,-0.7099556621760634,-0.3959823903897828,-0.8322377835593395,0.319410322403121,-0.48878077383434343,-0.35369644486559554,-0.552506484123732,-0.544269536397449,undefined,1495090779422
903d185fccf839df,0.10109778335004181,-0.3532730682048312,1.7796467349694836,1.7655507766877543,-0.0653153690055982,-1.7991636773071649,1.8227861586708691,-0.9603553856796138,-0.5278217069160579,-0.6597831806108032,0.13583486045766116,0.07047663288717454,-0.843527183600713,-0.41511238526825534,-0.7991796494943821,0.09007045762310975,-0.7346108547001344,-0.39062472117372565,-0.8124088216449435,0.29027646588041506,-0.48186673884091097,-0.3876047558941244,-0.6276161986137183,-0.5439557544350245,undefined,1495090780928
903d185fccf839df,0.29236761850381565,-0.4994399634910145,1.425550099229378,1.4218994971286558,0.2921846080957912,-1.8505024368231515,1.881325641385326,-0.4753585814845046,-0.6666451303727889,-0.6028304655563761,0.17530067310859235,0.03510815307318583,-0.6650999888591801,-0.39659574339333026,-0.7802322635066368,0.015307923188158802,-0.7595062248436563,-0.354248291932263,-0.8006961605310048,0.22466368933568254,-0.4738417588062711,-0.43079767068220015,-0.5341703277111106,-0.49408722182492526,undefined,1495090782414
903d185fccf839df,0.22306716062548643,-0.43310716640532454,1.3757855100671867,1.4274289332523917,0.20298703420780334,-1.8036963731963755,1.9036921465554404,-0.2839505593278096,-0.6940969593610591,-0.5780859563080912,0.07305140212068766,0.12595341428331902,-0.3996351381461676,-0.4845500092246979,-0.7886533116752451,0.1405856201880256,-0.7841203515304628,-0.3892568060868589,-0.8284385146599489,0.38419158554582905,-0.48366004617842817,-0.43292102023569184,-0.49371619898469105,-0.4498172116085098,undefined,1495090783960
903d185fccf839df,-0.023643482500195368,-0.3791017281221722,1.5212522292323936,1.5174630384677217,0.1537288319728072,-1.7594780952865599,1.8310937193352663,-0.7479639846839252,-0.6296470549202898,-0.30332518200604625,0.060808134225930795,-0.018190996448567566,-0.7390819964349377,-0.4521457726243018,-0.7760217357412157,0.1405856201880256,-0.8022742311868131,-0.428071419231004,-0.8193076767411529,0.38981201977612523,-0.49659837726401784,-0.4437507463200944,-0.4580917729282435,-0.4733554400874911,undefined,1495090785450
903d185fccf839df,0.0068489480821901216,-0.2898753899517367,1.5646369644162599,1.5789756757857525,-0.04774740810640541,-1.6977742201393773,1.7669001497462742,-1.1776476457333398,-0.515298184272819,-0.5026623604900398,0.13841805419586198,0.08938221162045061,-0.7477857620320856,-0.48177243070604076,-0.7602322474180945,0.01732853986605519,-0.789160877804131,-0.47402959176359755,-0.8476517583488536,0.3496374767510601,-0.5299820579103794,-0.41284599518951565,-0.4905489733792227,-0.4691713212546502,undefined,1495090786941
903d185fccf839df,-0.2592660882509706,-0.3726445923708293,1.6858590186064746,1.7896338200092055,0.016065060969464567,-1.7259393820682474,1.744617801953323,-1.3575054278354517,-0.4750691168656706,-0.7769007742302696,0.22841081145713282,-0.10876940271982896,-0.7913045900178254,-0.47343996711633485,-0.7244427282819634,0.08602925253203851,-0.7789054221687075,-0.4839279823327212,-0.8417674407685918,0.38916528547125046,-0.52822940092567,-0.402917966286438,-0.5046468529093883,-0.4260400744686533,undefined,1495090788435
903d185fccf839df,-0.20798345819534883,-0.3380106782536751,1.514233983237117,1.613271029485478,-0.056150818831856145,-1.718842191492005,1.760125772881357,-1.2845398491852709,-0.47406829698546793,-0.6694586653863767,0.23580742100882057,0.022772117625000463,-0.8304715352049912,-0.4586265603708181,-0.7707585852372316,0.0698643756383105,-0.750222000751086,-0.47343429475340604,-0.8814743422918719,0.38679392569372334,-0.5341501191862051,-0.3853191857099211,-0.4775169510011096,-0.43583538147156586,undefined,1495090789930
903d185fccf839df,-0.1733331947507745,-0.5287907572390724,1.5601705075301437,1.6186835406291358,-0.002654907936625471,-1.741249473650297,1.7694142460476072,-1.2306913675964108,-0.4667638038234728,-0.5953000239789944,0.14579172035610655,-0.004736583588353856,-0.7826008244206774,-0.49565993477609,-0.8349691833549808,-0.008939476946597838,-0.8309916660003551,-0.4990257194339804,-0.8877574789913123,0.3040888723073218,-0.5682378776744977,-0.3899915323811087,-0.4525969979841505,-0.41939931271297554,undefined,1495090791427
903d185fccf839df,0.05258731791249048,-0.32157425830627623,1.7528500267483815,1.7671606874824626,-0.009978325220273334,-1.6903113412606436,1.8054425885915362,-0.9024616729136627,-0.5365780058562053,-0.5553067883150596,0.1685938304362123,-0.025320445928225063,-0.8304715352049912,-0.529915782465803,-0.8339165385297164,-0.16250555305452022,-0.8183870825424908,-0.47036281607327113,-0.8787036051418883,0.32994286168660686,-0.5350243348829462,-0.43457861457201186,-0.5717129524575888,-0.48193427800999206,undefined,1495090792936
903d185fccf839df,-0.08740023223975892,-0.3661874858474787,1.8428099323791753,1.9273325213838923,-0.15372094057467411,-1.76105033699877,1.9047519473998327,-0.420682469177517,-0.3711166478133407,-0.7152851039296237,0.1428555062982101,0.05944100185624344,-0.9827874331550802,-0.5762075101854738,-0.785495443459556,0.01732859639549826,-0.7853952777104569,-0.4272734672480028,-0.8505134537037958,0.4224259232734412,-0.49336733498325014,-0.422409427220387,-0.5490468096662632,-0.48836230931620206,undefined,1495090794435
903d185fccf839df,0.10386987895729279,-0.2957455107049582,1.9627557108093856,2.1212816137729162,-0.025057156738579618,-1.7647864354996177,1.8887259106234793,-0.3468883606050138,-0.148210434459977,-0.16252385796260024,0.05220394391871976,-0.006312722888036051,-0.9175091911764707,-0.30956735433588106,-0.7349690440143992,0.3103166579838406,-0.4412697258912888,-0.12582534807680207,-0.7351080552139893,0.672943231646735,-0.2528115225330772,-0.08025542685196921,-0.2707036907696037,-0.4007851552687102,undefined,1495090795926
903d185fccf839df,0.4822517164026516,-0.3520990382085884,2.8795783905905967,2.819173514990355,0.16285224277528523,-1.8173317429813052,1.9499346538049942,0.12706289685927977,-0.15556440713004402,-0.08131744416199954,-0.23727291577512286,-0.04267801432961082,-0.8609347147950089,-0.14939813209413014,-0.6949690118373146,0.16887402756080272,-0.4300490624271773,-0.03484627742458271,-0.6387899567590558,0.5495400868515621,-0.19284917622013395,-0.1967349794135501,-0.24493092692030388,-0.5141736058097677,undefined,1495090797457
903d185fccf839df,0.6707496629816329,-0.46656710898222065,3.6158433753671675,3.7057098001212836,0.06528212213675498,-1.8588667363186615,1.9453430127673814,0.02435779076385686,-0.1980911101300856,0.4167777949985187,-0.18519941298120277,0.016629634516232693,-0.6128773952762924,-0.009597214619719302,-0.6802321462527565,0.16685352394179248,-0.3520744429034446,0.06999560564740459,-0.6304427618297254,0.5928097191210442,-0.12938993918637084,-0.2527352265581383,-0.22929191095600507,-0.5183126462918716,undefined,1495090799127
903d185fccf839df,0.6859958092620061,-0.4741982747298063,3.5520422942144227,3.401717674847012,-0.04700683241420162,-1.8909240574662172,1.8456838830931184,-0.7163957380156774,-0.3639792076654633,-0.04637163116401312,-0.2801544138391931,0.05862090652038831,-0.4649133801247772,-0.023484692788219446,-0.6591794927011836,0.43963558833950017,-0.39163729012109555,0.08978605395824442,-0.6473820412680139,0.7261910544922152,-0.10418954341692091,-0.21871924560751033,-0.27355639399468423,-0.523987898338766,undefined,1495090800437
903d185fccf839df,0.3242462004060558,-0.6144950054207796,3.264299037010121,3.212816950261409,-0.3160806698933084,-1.896353513143015,1.8583043167240465,-0.7848086311314295,-0.17235007973003474,-0.0007653270927779053,-0.29235917806550077,0.05720565216794864,-0.29954183377896615,-0.007745486973431516,-0.6233900030139877,0.4537798485553318,-0.36987720359526477,0.12771405428439817,-0.6492641834060742,0.679641555644729,-0.09443258657859134,-0.23084508148518854,-0.22994494346538547,-0.49274835463683986,undefined,1495090801934
903d185fccf839df,0.2577175620916997,-0.6168430946412575,3.3191679668014813,3.3215849271026276,0.1597768108045545,-1.8945367069499366,1.8514510418270134,-0.7096603215781075,-0.3185960541817714,1.029282605563386,-0.24123897596926697,0.0709302433134316,-0.9436204879679144,-0.06422138002754692,-0.6097057380812912,0.44165620501739655,-0.4163516243616318,0.11773966890605561,-0.6459896763256323,0.589298877396049,-0.11460495395654641,-0.39247653980823805,-0.41543249953213474,-0.541655232239582,undefined,1495090803420
903d185fccf839df,0.3491943707631199,-0.5998196596957373,3.4225262265428262,3.1236130715037,0.3254073957464545,-1.8851102750864117,1.7933691502837799,-1.0268958515426518,-0.43474712560567735,1.4805098316321794,-0.10747326694760301,-0.0030499162789644767,-0.9349167223707665,-0.19476397008910798,-0.6833900218306793,0.44367673690112835,-0.48981092174916047,0.0037466809301939766,-0.7539644609120092,0.491303172245208,-0.23608929842735402,-0.4196021106190996,-0.32082764706021005,-0.5794160103991537,undefined,1495090804944
903d185fccf839df,0.2424712777896875,-0.5786870613073827,2.956777571716943,2.7976377335852334,0.2768794720656437,-1.9084049971053783,1.7356159808999962,-1.477185949397049,-0.38118546444903134,1.2985050169043009,-0.014550917762868223,-0.016099885010892524,-0.9349167223707665,-0.20587397334514737,-0.6865479563064726,0.47802707910175923,-0.5037611447747916,-0.10842875037208327,-0.7493395685555019,0.39072052490727577,-0.30096869315351954,-0.4178688858202626,-0.3159710972870749,-0.6658370921927836,undefined,1495090806444
903d185fccf839df,0.44344348207424944,-0.6332795145886564,2.9612440286030592,3.011300089236876,0.24204183215050615,-1.918087642986024,1.8907876915316337,-0.5851645902659516,-0.38907888394377377,1.1373641044799911,0.05509941675487441,-0.005601491900675505,-0.8043602384135473,-0.21142897497316707,-0.6518110672711384,0.24363656199575368,-0.5682267522692036,-0.14853528324020976,-0.7057214498072129,0.22815913713856736,-0.3385304576622335,-0.4107329476194644,-0.34201140868818086,-0.6643500474313473,undefined,1495090807927
903d185fccf839df,0.2771215412342618,-0.6444328287809551,2.850867777003387,2.8636465973709906,0.051036433957053894,-1.9155091760294336,1.8799108084312866,-0.6800477191100489,-0.38121925041394084,0.6263512863844736,-0.08208235008168009,0.0013287046711283326,-0.678155637254902,-0.21142894907161797,-0.7128637750864971,0.26788384907162416,-0.538477834727736,-0.19000339877197228,-0.6825759992191847,0.27361534874219606,-0.3544411218342103,-0.39891553166530785,-0.2806738152878971,-0.6414972060197418,undefined,1495090809431
903d185fccf839df,0.1898026689412597,-0.6344535445848991,2.7162473687026214,2.575740178439138,-0.3542508858355629,-1.916315091737825,1.8765972524007666,-0.8254704670117131,-0.3459746323627886,-0.0871682525504508,-0.11650078306689524,0.022908355764714162,-0.7434338792335116,-0.3114190042775216,-0.7539164447266122,0.27596631578320974,-0.611683795132521,-0.3283528866085004,-0.7436581581052888,0.26727118823557744,-0.4364363109780322,-0.4277929501854599,-0.3152278827483951,-0.6900286849665462,undefined,1495090810976
903d185fccf839df,0.24385736009872272,-0.7154616873956314,2.583541119904913,2.4374738233662963,-0.5959133458424885,-1.954344580935706,1.85905380756862,-1.0971150414861237,-0.32237381100582624,-0.30858998446127706,0.03116015051239948,0.04922494582529564,-0.8913978943850268,-0.327158197141535,-0.7665480280228754,0.3992233113110155,-0.6402639918127215,-0.38084665655661915,-0.7635221049121057,0.37981842636596813,-0.4518917743927599,-0.4315788558679334,-0.39899721317121883,-0.7003045090627218,undefined,1495090812426
903d185fccf839df,-0.17610508332556707,-0.7037214020471999,1.9340450972221759,1.8945298289418555,-0.752163369771921,-1.9397332614542535,1.8663935979395911,-1.1298265322285996,-0.2938549939659149,-0.4975297117653277,0.14245510036449527,-0.036832622542746954,-0.9131573083778967,-0.37715326359681045,-0.8433902388858229,0.4800477240443772,-0.6372825830079547,-0.43142787709891545,-0.8252339771135491,0.48639106919790287,-0.47576144721235875,-0.4175374014625455,-0.42612111592856716,-0.6422608114252262,undefined,1495090813941
903d185fccf839df,-0.2606520325383669,-0.7166357320058704,1.5557043047809769,1.5502919524820136,-0.7947461536867059,-1.9466161633036114,1.7983184447233889,-1.6242219008441434,-0.2531828582964778,-0.5619270691159488,0.21849968847783977,0.073511373434106,-0.9088054255793226,-0.4271482393966641,-0.8581270971081473,0.645737613278564,-0.6373808498976898,-0.45706996527907895,-0.8403051075278146,0.6735745689600928,-0.4521715533170623,-0.4336037212641662,-0.4791938123607244,-0.6339158965713073,undefined,1495090815424
903d185fccf839df,-0.3950954604869338,-0.7137006716292597,1.2871018801963972,1.2982506764081783,-1.1137776168183875,-1.9302788797439538,1.886432728615662,-1.1619896599115336,-0.19345296782266427,-0.692324188915647,0.3378358322326162,0.12515757240510877,-0.17333723262032086,-0.5039924372181196,-0.9960219936997522,0.8518395534234632,-0.6577921837255665,-0.533502261469556,-0.9579914657211265,1.0323583498779156,-0.4356328823060899,-0.4733272177792579,-0.5839178077691106,-0.6373209342692293,undefined,1495090816907
903d185fccf839df,-0.2939163516955449,-0.553445416388163,1.7241394131611718,1.862204781702151,-0.9034762545216906,-1.8855481708959974,1.8844971901238532,-0.9828047791779645,-0.3384549064228024,-0.15328075106542657,0.3134666715926914,0.06645318682998472,-0.042780748663101595,-0.587317487539964,-0.9497061661934192,0.5366248214371467,-0.6507490940077433,-0.5559462132199798,-0.9215940546047413,0.9354097364730453,-0.46144455590188926,-0.46268618692393976,-0.6482779103900855,-0.6536126360516505,undefined,1495090818402
903d185fccf839df,-0.11927860710954069,-0.5223335484177486,1.8702440160694314,2.000180780452664,-0.7217588461433789,-1.8873579899943336,1.9891319108974894,-0.22766988198951654,-0.4359359384013961,0.23430050455545776,0.04503597150433588,0.09169367679237732,-0.4823209113190731,-0.5456549494282673,-0.9391798136498145,0.4194294498252578,-0.5736171738412006,-0.5345092007710845,-0.8952510619293195,0.7640558345236335,-0.48893639199684336,-0.44199944901429544,-0.5618584725026194,-0.6308516720724319,undefined,1495090819937
903d185fccf839df,0.22861114480752998,-0.41138758224684085,2.1777659896365082,2.161447354757287,-0.5672573925509655,-1.816416349599812,1.9938287377885173,-0.03490010094542174,-0.45954297385982507,0.6498560286058299,-0.028021365687198447,0.01257195992539234,-0.7608414104278075,-0.4864015685109166,-0.8107586100520823,0.4376149716616038,-0.4953746446157177,-0.440471322397671,-0.7784952796560105,0.7457778838579712,-0.4341885413505089,-0.4250436319452154,-0.2396699041531411,-0.5312523700312883,undefined,1495090821398
903d185fccf839df,0.05397322769447703,-0.43604229985191617,2.1452270570431846,2.3094264195736782,-0.5770493761675967,-1.7595013902061725,1.8582885310943733,-0.8267067802366771,-0.5443266332948332,0.35362167714313486,0.14561947674369835,-0.07254340545944059,-0.8348234180035651,-0.4530715846443475,-0.833916553254184,0.8579014317218739,-0.5104878630290095,-0.3903524039311979,-0.815368473948712,0.7392489425579517,-0.40409511338185733,-0.4423866745276905,-0.3406434153350163,-0.5328468253633463,undefined,1495090822909
903d185fccf839df,-0.15670093165595625,-0.46715406552435734,1.0127572312395958,0.9773764127737796,-0.7316331128116608,-1.7970440692904697,1.8941301596874272,-0.7634144818446226,-0.34301608048775967,-0.41247556637253185,0.0927004417759325,-0.06923714235024421,-0.8783422459893049,-0.30308652773704114,-0.8339165311674827,1.0256119093692355,-0.4093001141282989,-0.44601897731074347,-0.8413826163967059,0.6932537813384724,-0.4253003142716338,-0.43674883085225835,-0.3550883942342008,-0.5612834750364458,undefined,1495090824401
903d185fccf839df,0.03456900701404676,-0.6321054845924136,-0.13757765969760963,-0.15814297677125097,-0.396504534999084,-1.8651813045830508,1.9351419965553138,-0.5564579382846104,-0.17662255906996688,-0.664395936409615,0.016502175602726394,-0.25031818272681533,0.731854389483066,-0.6224992184789828,-0.8433902315235892,1.039756113055624,-0.6562376007263965,-0.6275274758436179,-0.875995839711872,0.6584994888892189,-0.500109877098514,-0.4795083462909422,-0.7252393242377185,-0.6548232639203633,undefined,1495090825905
903d185fccf839df,-0.009783418528857312,-0.6661523837114464,-0.43871927101246255,-0.536273912663478,-0.4368038947354756,-1.8859790804262881,1.8909033986939472,-0.9111555738113641,-0.14346904260511803,-0.6890855595793415,0.10163199331895637,-0.23547936748291767,0.7362062722816399,-0.6900850824122012,-0.9349693226955624,1.035714907964553,-0.6620966409975467,-0.7045994026342911,-0.9059911681420502,0.8168417070078198,-0.5260825230585643,-0.46602339036227725,-0.6052652606088872,-0.5838244136389193,undefined,1495090827478
903d185fccf839df,-0.2925304074081487,-0.5863182562829606,-0.2135010733378503,-0.3268196657788648,-0.6920743295136671,-1.8703522143365436,1.9117919490798836,-0.8108305401319379,-0.1389513922279088,-0.7933571432305665,0.029564358431276354,-0.16674179018669907,-0.7826008244206774,-0.7382284406473507,-1.009706251270215,0.9953027157302329,-0.6653423045676816,-0.755288284381803,-0.9390650935537123,0.8983764760363142,-0.5403698877990967,-0.45498245338566873,-0.6004457975632522,-0.568243598609986,undefined,1495090828930
903d185fccf839df,-0.5170647687515589,-0.7248539419795698,-0.4999678006451984,-0.5661020839377635,-0.7778878934659332,-1.8669654995452076,1.9391918865566764,-0.6854210832525515,-0.19750108807136793,-0.801789490775808,-0.003821595710838431,0.07690315067159657,-0.6955631684491979,-0.7937784763537095,-1.0507589061858624,0.9750966902748767,-0.6274336008803392,-0.8472046300670965,-0.9839776222285477,0.6090396891026851,-0.6598007876137248,-0.4591806325850642,-0.5612276532758376,-0.4637383542236371,undefined,1495090830424
903d185fccf839df,-0.37984924519574104,-0.7084174928041787,-0.5822720848115618,-0.6595300859020092,-0.7024217356650463,-1.9287532289319567,1.9256668036768192,-0.8224144308531404,-0.282739252997152,-0.715777548758252,0.048490736386342145,0.03684082848606104,-0.8261196524064172,-0.8289601522519363,-1.056022078776548,0.9649936351501163,-0.599728448524165,-0.868546649601044,-0.9827741705497791,0.634662702015673,-0.6641713207909026,-0.4514178824496068,-0.5361443989593199,-0.46072004029532404,undefined,1495090832143
903d185fccf839df,-0.4740982529906414,-0.6784797571279801,-0.6747835254145667,-0.7296821526156133,-0.9188636545425236,-1.8623955316715408,1.8899645530960556,-1.0546712917004701,-0.3987341901519767,-0.6690338755245697,0.05313808185259474,0.00622474724568766,-0.8609347147950089,-0.8122951441301837,-1.0223378272042443,1.2296933458951247,-0.37370126697561196,-0.8650635305895519,-0.9747278375522355,0.9381814597631706,-0.5949514045080659,-0.4374778696094815,-0.5547206683328451,-0.25060100983029443,undefined,1495090834310
903d185fccf839df,-0.4921164258674462,-0.6667394279375601,-0.6639374686870748,-0.717157173992214,-0.9452978959113826,-1.8782017491661105,1.9050386012149794,-0.971613626889323,-0.3966887280608645,-0.6460358818844458,0.051691119684968895,0.04798080486645779,-0.8391753008021391,-0.7743359609425596,-1.0202325817271183,1.2296933458951247,-0.365455420703578,-0.8526129634249959,-0.9725448326321169,1.0052416866527287,-0.5755541210008408,-0.43844207679001707,-0.5206731303895501,-0.23093896806567987,undefined,1495090834923
903d185fccf839df,-0.45469403231021116,-0.5739909413224116,-0.4208549682896941,-0.508319401263099,-1.0733136824884844,-1.886200357849816,1.9101035995433955,-0.9295134051662622,-0.42923641299692994,-0.8550364155481581,0.10981188570930417,0.008664277350820308,-0.8261196524064172,-0.7474867777732814,-0.9949693635989554,1.1791780137418795,-0.35799529254335016,-0.8316509179094588,-0.96104207530006,0.8818539419050166,-0.5847929399492345,-0.4461927092244287,-0.5100778762614037,-0.2436943753694322,undefined,1495090836424
903d185fccf839df,-0.6584382459384998,-0.5235076222559799,-0.2332795355636758,-0.32375594431127647,-1.1900049198890819,-1.8810480807995795,1.9033949682888307,-0.9592241989833373,-0.19283926297093698,-1.015755168279766,0.07360630444677527,0.03738047977754609,-0.8870460115864528,-0.7780392899650833,-0.9876009528933777,0.9144784301881181,-0.4637160012407702,-0.8807375632788107,-0.9546959675107096,0.6145677211634915,-0.6613900498092449,-0.44482063086566914,-0.5400838883169834,-0.2658265548044994,undefined,1495090837943
903d185fccf839df,-0.2135275803990313,-0.626822349609321,-0.20456866783951663,-0.23869358291408616,-0.9609013058987137,-1.9206008924540945,1.9250750900410853,-0.8247010504307486,-0.11884277875834369,-0.9740803896179506,0.05822342170781741,0.04345135260313795,-0.8348234180035651,-0.7604484277332677,-0.9633903943149468,0.506315571268701,-0.5558779203284804,-0.850846068850224,-0.9501760281920921,0.4674817706509697,-0.6837664524377908,-0.4426293175051603,-0.5361891709087675,-0.2643635784580958,undefined,1495090839438
903d185fccf839df,-0.6972466700466554,-0.7935347844437491,-0.42213073577579957,-0.5114141463303354,-1.155743261947655,-1.9224712712348055,1.9260928381230604,-0.9029278382358478,-0.17794335900265318,-0.7203006177732048,0.0030109611237037503,-0.0022970288203596253,-0.8348234180035651,-0.7595225962870601,-0.9570745916234645,0.47802705083703767,-0.6285900850235139,-0.8555641120172244,-0.9545700256122744,0.5534666898345613,-0.6679991050126922,-0.44176701008029584,-0.5565754488765184,-0.28075566977791255,undefined,1495090840970
903d185fccf839df,-0.8233739491951083,-0.9420496958804295,-0.4240448952788566,-0.46582789170061684,-1.2199260083348828,-1.9085936642602128,1.9524566340826988,-0.7650349391415004,-0.29775381456749306,-0.5862386742082738,0.025666337447080585,-0.00985057215043663,-0.7913045900178254,-0.7984076271093599,-1.0507589135480964,-0.12411401989517885,-0.9817807724326146,-0.8792936526684952,-1.0123147054410528,0.04242308233627928,-0.8103343202378448,-0.42315421027605177,-0.5184822761649782,-0.45216882876667325,undefined,1495090842429
903d185fccf839df,-0.9079208293970887,-0.9790316992180617,-0.5286786683693576,-0.6306878417256946,-1.2610687933999525,-1.8608605649545995,1.9378585788194125,-0.8287326848743619,-0.3312930509486492,-0.716031472513043,0.05395402138653717,-0.064118757150731,-0.865286597593583,-0.8937685477480813,-1.0970747631411306,-0.2008971286109439,-0.9826855703816475,-0.9384180154884165,-1.0610125090876725,-0.2741535547803028,-0.9214304437257259,-0.44778533607107374,-0.5660928519267145,-0.5145171868183652,undefined,1495090843945
903d185fccf839df,-0.2578800059419354,-0.8686727626592714,-0.48529393318549136,-0.5212297736321985,-0.8708808722506071,-1.799662133995568,1.920041634688927,-0.7441541950526009,-0.29162267447752827,-0.9822685284069635,0.047382751264456804,0.029513352327059546,-0.9175091911764707,-0.8780293516463743,-1.0191799148151526,-0.17058797736902345,-0.878692713475389,-0.9183805825015016,-0.9892182319908601,0.33953609389968337,-0.7627786732579279,-0.3865217637264605,-0.32737268853830936,0.09882510206754379,undefined,1495090845432
903d185fccf839df,-0.1788771444274083,-0.7641839760816951,-0.1618218163987031,-0.3399450326517547,-0.7589622031051165,-1.8136329110317682,1.8589880640533116,-1.1294995978722688,-0.30371176756937057,-0.8183772002635298,0.1020171731523966,0.0287473519859408,-0.9175091911764707,-0.8845101782452142,-0.9665482993418049,-0.031166076682768107,-0.8150893547660272,-0.8876468069956817,-0.9738812227632807,0.32849540948398215,-0.7403722210864351,-0.3771205562073611,-0.3002595880452271,0.10547342098089223,undefined,1495090846924
903d185fccf839df,-0.18857923751491856,-0.7512696168950322,-0.39724869533165336,-0.5148914711885175,-0.6785280553931073,-1.8913549654598427,1.875487467744575,-1.0857464423982779,-0.24817182827681958,-0.7494265359314549,0.09114898017134132,-0.07244157540033332,-0.6520443404634582,-0.8400701522702821,-0.941285081213642,-0.004898187061361993,-0.7396230922797921,-0.8854302765535679,-0.9612729691781337,0.36320350472563584,-0.725640754032315,-0.36420466032365617,-0.30468611533966605,0.08001038914132781,undefined,1495090848420
903d185fccf839df,-0.5226088564498317,-0.8446051185083022,-0.575891722559338,-0.5873758447842246,-0.9619298683166628,-1.947629383912277,1.8915398069420621,-1.1433092371102895,-0.34397062919923627,-0.505247398140526,0.10233864420285242,-0.022550942294368735,-0.7086188168449198,-0.7623000906256827,-0.7739164718585051,-0.07966066496686987,-0.7590094351758948,-0.8405677030280133,-0.8760448162318842,0.33958229008414764,-0.6793626265167925,-0.383328287240499,-0.34177974541582967,-0.008676446300066554,undefined,1495090849927
903d185fccf839df,-0.49904659587475414,-0.8898053025916414,-0.7232723470906525,-0.7668371197665066,-0.8537551928071524,-1.9285948405980946,1.9296456926509888,-0.8615817316527149,-0.2896271827758685,-0.6005031553206582,0.09312612300191013,-0.018880727020724693,-0.8043602384135473,-0.7224892348325628,-0.70233743726736,-0.07157825478472739,-0.8136368742592138,-0.8202896165258944,-0.8216166249238114,0.3288187770806759,-0.6448991569194492,-0.39969239635454196,-0.38213922490099567,-0.11593128837164485,undefined,1495090851428
903d185fccf839df,0.008234754347947466,-0.7882516202326644,-0.5369731901246385,-0.5662677778289894,-0.20810141716410588,-1.9071285721819533,1.8520558926954447,-0.9696312322855312,-0.50462016525675,-1.2467890416587777,0.10779013488688068,0.06349698623014374,-0.9175091911764707,-0.7678551246306388,-0.7433901289941764,0.5325835456842717,-0.6671932313091309,-0.8268125482035548,-0.7572529620423986,0.6070532854937228,-0.5601221808838635,-0.3010326659788617,-0.4984180680963242,0.1053572122356591,undefined,1495090852978
903d185fccf839df,0.04565711339977278,-0.6837628628830803,-0.25369588153255407,-0.3223494682525925,-0.01620116893576726,-1.9237267314183184,1.8226888496575835,-1.1286646348283103,-0.5177886773984791,-0.9872824769728886,0.14220806758379875,0.04289958387744677,-0.9305648395721926,-0.7900751376181049,-0.7181269476771825,0.971055513448527,-0.5524470280179632,-0.8450387609874187,-0.7372560760185538,0.7846743551974921,-0.5241985658882329,-0.28446270290216186,-0.5109266942794194,0.03838443394606996,undefined,1495090854424
903d185fccf839df,0.20366283642882696,-0.7101785377985428,-0.3206868896744611,-0.3814789702106106,-0.12032327725545525,-1.9686018546072659,1.839246106930003,-1.07033480324054,-0.4045853340052759,-1.0845693410204158,0.14103473608366454,0.056871028881235575,-0.843527183600713,-0.8122951441301837,-0.708653247321076,1.781319211665343,-0.32702764069363516,-0.8410173414034648,-0.7374309961253102,1.2374656413915779,-0.4139433004066172,-0.2919050156129266,-0.5312693172870814,-0.1637491976206261,undefined,1495090855943
903d185fccf839df,-0.2703541601312869,-0.7905996509971576,-0.4623255439705033,-0.4811354988831622,-0.7818478843190906,-1.960440199911307,1.9061773014008898,-0.9950763693066124,-0.3314792489764072,-0.49572287315377,0.14864244394709722,0.028134030978251068,-0.7608414104278075,-0.8613643338115407,-0.8170744201057983,1.7853603884916927,-0.33647834488661665,-0.8815608467043214,-0.7902499213477073,1.290759663235145,-0.43815616217052766,-0.2947670467344477,-0.45892348908650765,-0.08575046540368556,undefined,1495090858890
903d185fccf839df,-0.2772842266223656,-0.7905996509971576,-0.4623255439705033,-0.4811354988831622,-0.8045895608892535,-1.9609852418801312,1.9073370462996402,-0.9995135522371487,-0.32170443052581177,-0.46208952220586047,0.14865192844575556,0.028134030978251068,-0.7608414104278075,-0.8595126709191255,-0.8223375926964839,1.7853603884916927,-0.33647834488661665,-0.8824347929484115,-0.7924399232316292,1.2930694300251633,-0.4391140613147528,-0.29458671063054204,-0.4579022389846638,-0.07956420409924955,undefined,1495090858976
903d185fccf839df,-0.33133874525278,-0.8551714030884834,-0.5376110738676912,-0.6218373218651906,-1.0078760766934254,-1.9918476613491336,1.9300086065764939,-0.9288180856881074,-0.31472891223191,-0.6176460865094638,0.11261014018311147,-0.06240464953464389,-0.7564895276292335,-0.913211037257682,-0.8433902462480567,1.8560816047766862,-0.22525166997732377,-0.9110217008853323,-0.8303766319150799,1.4669948678138447,-0.4273607979760293,-0.2790002522776359,-0.446024897917257,-0.011701438532306244,undefined,1495090860424
903d185fccf839df,-0.5447850864739886,-0.6456068587771978,-0.5561132603335125,-0.5685216540451506,-1.2181877248972155,-1.8941011377189452,1.9112633591074517,-0.9854100414793768,-0.43214129751276864,-0.6030838198230534,0.12606698424274448,-0.054664869937399045,-0.8000083556149733,-0.9159885315963047,-0.942337740763374,1.395383009011539,-0.38833469609760035,-0.9335986457762445,-0.882782745467031,1.1974604795297836,-0.5213119959386627,-0.27412393524071477,-0.40729273089293455,-0.009879266741900091,undefined,1495090861916
903d185fccf839df,-0.6958606222430299,-0.6391496937978626,-0.7513448227978601,-0.7736601675126482,-1.5202272163713082,-1.8192393898060486,1.9057328714244253,-0.9884454722911681,-0.4225171410841717,-0.5945037910004741,0.11634095962887014,-0.04775600937996062,-0.7956564728163993,-1.0113494230957834,-1.0623378814680302,0.37699676810428834,-0.715065978930634,-1.0371106095132796,-1.08550834413208,0.26519239836957487,-0.835437243590517,-0.4263279100017297,-0.5004781637822833,-0.4507587805041964,undefined,1495090863444
903d185fccf839df,-1.14908742795626,-0.9097638709837532,-0.8011094119600514,-0.8594772193376126,-1.8276872729734002,-1.7634028670381645,1.9036132466901612,-1.000805802455623,-0.27094199563545535,-0.6720340434031283,0.12923613746315596,0.007234742810253099,-0.8609347147950089,-1.0622702821449428,-1.1444432428349618,-0.11401098596895962,-0.858703824371323,-1.088489781113954,-1.1628161078571588,-0.33719478901039496,-1.0245230029558468,-0.45873670556517393,-0.6421769405795066,-0.46306931493263004,undefined,1495090864934
903d185fccf839df,-1.277986785459259,-0.8287557135590248,-0.9274358067794349,-0.9487552286889215,-1.9266048235469133,-1.863355179818515,1.9149713662783652,-1.0561435689016585,-0.29162910319209573,-0.6757863261573439,0.1026763334794954,0.0046622210718730225,-0.8565828319964349,-1.075231958006478,-1.1476011294562354,-0.5423798491451919,-1.0289855325138924,-1.1087678669738197,-1.1762779722530363,-0.6141358318696368,-1.096849938722854,-0.4554226321487963,-0.6566085416999506,-0.4506515516153716,undefined,1495090866450
903d185fccf839df,-1.2073000296130836,-0.8481272084970305,-0.896172895809166,-0.9430989406236981,-1.862144360134812,-1.974804617947215,1.9281519621885947,-1.0494002037911694,-0.31557320743905054,-0.6742028110639384,0.10006650004526413,-0.0059331316174494955,-0.7521376448306596,-1.0817127975560925,-1.1812853920718898,-0.827285542948474,-1.1116645556439193,-1.1091858413285043,-1.185177915706521,-0.8288825490614538,-1.1468453023665848,-0.4506724450741444,-0.653293237078314,-0.4950385139318061,undefined,1495090869081
903d185fccf839df,-1.1934398880045738,-0.7606619007069629,-0.9025537663352887,-0.9387098679423513,-1.8717614868597787,-2.00808711715792,1.9318442083465972,-1.0482668365763217,-0.3065650906023453,-0.6747214085308677,0.09968395989677468,-0.014393769486833713,-0.7260263480392157,-1.0826386241457595,-1.2012854118415488,-0.9141716926566387,-1.1447078075312276,-1.1121686578005558,-1.1931962609283737,-0.897698202097466,-1.1670891114343678,-0.4493120975597153,-0.6528726072533345,-0.4928866339122139,undefined,1495090869424
903d185fccf839df,-1.2114580781340833,-0.7624229383943291,-0.9370060960208213,-0.9974199655438758,-1.8930940229196673,-2.096770571373323,1.9452062580770138,-1.0055703785728871,-0.28392175474093917,-0.6747863819575561,0.09241229954913303,-0.031051591569977267,-0.4213945521390374,-1.0891194653142209,-1.2570749516676183,-1.0737997247909559,-1.2339190757998637,-1.143903038484917,-1.2313498703085732,-1.1265806955341646,-1.242961447368044,-0.4606055171825645,-0.6627799305529445,-0.5117248064168151,undefined,1495090870954
903d185fccf839df,-1.1587895296701227,-1.096434806620561,-0.9280741987963865,-0.9744223717197849,-1.8835180383526906,-2.187517730888827,1.9557517793939294,-0.9732466182871758,-0.2643821595264819,-0.6806834357704333,0.09291628727868553,-0.059114202664749316,-0.6433405748663101,-1.1159686533400397,-1.278127617182821,-1.1606858462343992,-1.29952038871585,-1.1586777961174923,-1.2431744806473382,-1.2096245129433594,-1.2699926050148076,-0.460907526813014,-0.6639810674087024,-0.5152048435636668,undefined,1495090872436
903d185fccf839df,-1.2225462103988667,-1.1064140652421235,-0.8814990283494589,-0.9397416314560414,-1.8460678152775851,-2.1935294973024178,1.9537031630195103,-0.9773947484923196,-0.25543863338444,-0.7054290503692826,0.08631490906116862,-0.06891315829455667,-0.6868594028520499,-1.1104136436177858,-1.2381275573973598,-1.1081500422599555,-1.2313856570742068,-1.126956081586246,-1.1995493646966804,-1.1560841188805104,-1.2275405168971012,-0.4392907269567413,-0.6296911731705956,-0.49298164488137175,undefined,1495090873929
903d185fccf839df,-0.645964126254558,-0.9250262682419074,-0.8470461903900274,-0.8975599428469706,-1.501208964855781,-2.133565562986601,1.9366173168221803,-1.0404399151967088,-0.2284514119816063,-0.7029412433279375,0.08163999719764761,-0.011926014340116647,-0.8913978943850268,-1.0761577926903791,-1.1728643181354632,-1.1142118693285585,-1.1909492125886625,-1.1110793918036344,-1.1649151505635096,-1.1606574569626606,-1.2060792800860418,-0.43960755871046303,-0.6248995499042815,-0.4933704752219639,undefined,1495090875450
903d185fccf839df,-0.7693193960592842,-0.9479198750896357,-0.7979194849708888,-0.8390590907067648,-1.297871022632955,-2.0616805817123005,1.9312840712078194,-1.0326662550410592,-0.291494969862713,-0.6721567978453578,0.0821342251515772,0.015481912321022313,-0.843527183600713,-1.1243011541632224,-1.171811686194108,-1.0980469977344658,-1.191658487341665,-1.118108959938866,-1.1640125619053645,-1.126041752097514,-1.2026094578326796,-0.4388399420208443,-0.614679061688363,-0.49254243543676723,undefined,1495090876942
903d185fccf839df,-0.6293319494232641,-0.9303093959180018,-0.7500685470378557,-0.7753934001400722,-1.0210623392924802,-2.0166866678301787,1.916562413610459,-1.0425002595592476,-0.31077389598845406,-0.6867060871091489,0.06330458349532798,-0.008775371064504128,-0.8783422459893049,-1.0002394182208971,-1.0486536496653858,-0.9020480491187034,-1.008862660223938,-1.0557421302274166,-1.0633074634528317,-0.9158991675093733,-1.098602120999059,-0.4055928113362913,-0.6023446001359842,-0.40776976221155864,undefined,1495090878467
903d185fccf839df,-0.6709123311170317,-0.8281686912539052,-0.680525495649839,-0.7269114021386366,-1.2635167883788694,-2.053826386958691,1.9368224341596922,-0.9464910174798349,-0.23782900418015454,-0.7330498182729523,0.056007392614866376,-0.04535690190133215,-0.9001016599821747,-0.9817227374936485,-1.0686536767972787,-0.9101304593008459,-1.0495744914749041,-1.0368889569330408,-1.0529521834593396,-0.8925243270795887,-1.0813165862256147,-0.4154792010571735,-0.6114289665246148,-0.419407186602349,undefined,1495090879977
903d185fccf839df,-0.4117276200655228,-0.8915663622000017,-0.6632990766701232,-0.6840893449158495,-1.1992003245592635,-2.0747080173128576,1.9401859595985873,-0.9129769624007439,-0.2047980398111713,-0.7397776761398325,0.05566969469350424,-0.0008321710713702964,-0.8739903631907309,-0.9650577277530489,-1.0044430713172958,-0.8151619064767192,-0.9933531422930812,-1.0121588120333884,-1.030576382691686,-0.8011345536924358,-1.0476746189225288,-0.41223994983606066,-0.5916659196414309,-0.3962816577399329,undefined,1495090881424
903d185fccf839df,0.07753559178578376,-0.5775130459251361,-0.6894579011481726,-0.772961432377026,-0.9510784591713989,-1.9709404108377178,1.900623158580713,-1.0247614105661296,0.08919207541878689,-0.8889381526998918,0.02391802779737145,-0.05610341004542739,-0.8130640040106952,-0.9502443922367921,-0.9728640873088196,-0.25747412707718814,-0.8522657404819389,-1.0157812554514367,-1.0097328841850186,-0.41390984332181974,-0.9701391081195657,-0.40945680118198424,-0.5571248281113329,-0.2669171286881604,undefined,1495090882939
903d185fccf839df,-0.09710229082185945,-0.572816925940165,-0.7213581875875954,-0.8034536710390149,-0.8403632161693025,-1.9263704181031907,1.9001760909443715,-0.9924156308447276,-0.015336321883257698,-0.8578370616028608,0.04047066759255684,-0.009426341865640266,-0.8565828319964349,-0.9215435396997116,-0.9823377729404584,-0.14432008068143695,-0.754454170780365,-1.000119885742783,-1.0250349093459805,-0.40246879770903793,-0.9678464905403994,-0.4030134137007707,-0.5553496023915497,-0.24398917598846523,undefined,1495090884421
903d185fccf839df,-0.43251788854957857,-0.5141153676720415,-0.8151459039506046,-0.9328889982427189,-0.973028137239644,-1.9923670819148864,1.9176301117216552,-0.9523086613942893,0.004727493826682319,-0.8373987262675676,0.04908670012653764,0.04650967825699977,-0.7695451760249554,-0.979871069744693,-1.1191800541557342,-0.5767302019450933,-0.933601090408661,-1.0365723093948245,-1.0970041052221469,-0.5929629652211392,-1.0482026910438944,-0.3934653416551984,-0.5271067639134535,-0.2295312400411374,undefined,1495090885941
903d185fccf839df,-1.0797867199137101,-0.7618359233962076,-0.8540649446592029,-0.9111987820181318,-1.2818870434376128,-2.064692288242068,1.9386001875862477,-0.9726400226484866,-0.24595381618685028,-0.7267627544433468,0.06987428865541707,0.002006505493639915,-0.8043602384135473,-0.9733902301950784,-1.1265484759046624,-0.1928146336346368,-0.8753663177202075,-1.0514547274021155,-1.1322540386084754,-0.5011728322254583,-1.0497278682472018,-0.425823334566001,-0.5101206936230814,-0.2448424591412222,undefined,1495090887480
903d185fccf839df,-0.611313811051869,-0.5974715777822575,-0.6786118444206808,-0.8157493664225695,-0.5736859506433424,-1.973351173529226,1.893893488898439,-1.0159695518301033,-0.16564137936174875,-0.6899378759514311,0.04343262884548769,-0.024890229082150436,-0.7347301136363636,-0.9085818606004826,-1.0686536731161618,0.017328525733694422,-0.7500095229793744,-1.0096256347174584,-1.0957306859484448,-0.29474127348797824,-0.9794540981743691,-0.42457657234339513,-0.5181052872984475,-0.25817244216965873,undefined,1495090888931
903d185fccf839df,-0.4935024736710717,-0.8821741076160633,-0.6530909036856841,-0.7293489619035038,-0.41025651056915957,-1.8260011725371026,1.8723580016228363,-1.0194410418556288,-0.3782147621588525,-0.6507084175289548,0.08092488961702253,-0.01702787335985663,-0.5867660984848485,-0.9474668849473951,-1.113916890767841,-0.11401102836604192,-0.8362960041070225,-1.0235834425270636,-1.1394397628099362,-0.5368972275321042,-1.0468559563043067,-0.42088372105139776,-0.5577107648844065,-0.3611632886645474,undefined,1495090890938
903d185fccf839df,-0.16917508584530777,-0.8569324626968436,-0.5727012872962766,-0.6749260381485593,-0.39793424661736077,-1.8050403486429933,1.8886470178944426,-0.8687766777199384,-0.45773351933825895,-0.5689208271108387,0.06668346143271536,0.01322912476124257,-0.5258397393048129,-0.9641318963068414,-1.111811621363455,-0.2857626475088514,-0.8918511613044122,-1.0346977589023532,-1.151110443388936,-0.6586527363893941,-1.0762840433663998,-0.4358982397441577,-0.5961000764671366,-0.4568769520072932,undefined,1495090891930
903d185fccf839df,-0.49350243916566194,-0.8316907593216394,-0.5739775630562809,-0.6421040569045242,-0.8763425836776748,-1.7661280777231034,1.891434607470864,-0.9187266778526129,-0.4131392013505444,-0.6968594989003603,0.08013666832193471,-0.027160438832415004,-0.4083389037433155,-0.9622802301767327,-1.0791799925297145,0.0718849428529442,-0.8108122561758647,-1.0148503132956002,-1.1068836019108643,-0.202458391409237,-0.9522136940197838,-0.43470134888864853,-0.6114003744627777,-0.46198972278390493,undefined,1495090893477
903d185fccf839df,-0.5433989524068388,-0.8716078376498784,-0.5880140550468341,-0.5989679156526712,-1.082241666941725,-1.7817712468986093,1.8991110126851811,-0.9467830370971796,-0.4143370424365948,-0.6028988505696631,0.08035007073504387,0.011939330469214063,-0.7782489416221035,-0.9539477309723968,-1.108653716336597,-0.02106303569036848,-0.8525772523594419,-1.0010191641879058,-1.0892656321906788,0.03892763968945893,-0.8858717777569907,-0.44333504430387144,-0.6509392242971384,-0.5221806940762007,undefined,1495090894931
903d185fccf839df,-0.10403242632375767,-0.8416700142897029,-0.47062006572578424,-0.49904020242975333,-0.9196762230561581,-1.8183053644977862,1.879513702608787,-1.0389262713258691,-0.5478127641497882,-0.7502987795707144,0.08522052156447417,-0.050987493696515666,-0.7651932932263815,-0.9280243727739388,-1.0623378704246795,0.6982733642566546,-0.7465611360928726,-0.9676698825225367,-1.048068409491887,0.4773521758513656,-0.7554326976320657,-0.44467356846227324,-0.65082276288801,-0.514558272833956,undefined,1495090896428
903d185fccf839df,-0.09017229334160015,-0.7512696461230246,-0.39533402755469743,-0.4586879017573972,-0.8804671451533097,-1.81653281343714,1.919026538932134,-0.7630641983488607,-0.5481672846661421,-0.7463674932695941,0.08063756967905718,-0.06555101791257982,-0.7826008244206774,-0.930801870350255,-1.068653665753928,0.7528298167068064,-0.7318309016874026,-0.9672265766090726,-1.0481523712468757,0.4637707474793086,-0.7574374989236708,-0.4436207177556582,-0.6506491952397453,-0.5171159920645466,undefined,1495090897946
903d185fccf839df,-0.3881653249850356,-0.5587285659852517,-0.3474835978955632,-0.4385210341842485,-0.2689207384891995,-1.961558235386425,1.9021484508747586,-0.8815497947942469,-0.5270071614405033,-0.758636599823784,0.08255610235749788,0.005209641189448402,-0.673803754456328,-0.962280226939039,-1.1033905584703791,0.8579014317218739,-0.6495566716333318,-0.9964911090322475,-1.0739006354993788,0.3913826568498581,-0.794091917959308,-0.4520844805884679,-0.6076503930630852,-0.4585840705077141,undefined,1495090899435
903d185fccf839df,-0.6237878617249913,-0.8534103654011173,-0.4903980196777109,-0.6254531622926304,-0.25986932423112213,-2.050414052884447,1.8979328680661207,-0.9740261834202892,-0.42846988569249633,-0.8032906617115254,0.08325909525506746,0.0013328105717397498,-0.7564895276292335,-0.973390243145853,-1.119180061517968,0.8983134967649471,-0.6015149090618117,-1.0196316852460476,-1.0913996592022124,0.27535536990052134,-0.8313508180051513,-0.454222948068315,-0.5828700625115517,-0.44222621352293956,undefined,1495090900937
903d185fccf839df,-0.3410408728457,-0.9150469986598476,-0.5797195332915532,-0.6095825554217842,-0.5290563010707905,-2.064477999177679,1.939415425612456,-0.786507349362355,-0.41871595137031115,-0.7390527601864363,0.0803611591144022,0.0008785762090681796,-0.7260263480392157,-0.9807969011909005,-1.128653739787373,0.7164588860930007,-0.6199518753585028,-1.0357870246611978,-1.10832494484747,0.16847476000399733,-0.8647303448910684,-0.46280922388338347,-0.5815356154325371,-0.4604053356949874,undefined,1495090903146
903d185fccf839df,-0.01394145842350457,-0.945571807790152,-0.7219960713306481,-0.7469440357818814,-0.5598619634969509,-2.111516984436192,1.948977397291403,-0.7760690534466969,-0.3234219429180698,-0.8054384258130919,0.09379127933260721,-0.018905661913929464,-0.673803754456328,-0.9733902301950784,-1.1233905745589214,-0.0028775633172852225,-0.8412075659821961,-1.046933005444821,-1.1136285276204494,-0.08101085405909865,-0.9308684043749049,-0.4602540623581428,-0.5593505759461533,-0.4377138736794373,undefined,1495090903950
903d185fccf839df,-0.35905911473332425,-0.9567250854474604,-0.7794172985050677,-0.8489256824823982,-0.9806086900374534,-2.096894020712553,1.9394049063986016,-0.9403219326016617,-0.3507488968691731,-0.7367372462374192,0.08139385144935937,-0.0648520650994556,-0.7347301136363636,-0.9798710762200802,-1.11496953007143,-0.3544632683144897,-0.9476993904711406,-1.0673250840251198,-1.1311695322007773,-0.29159999446715623,-0.9917564625005679,-0.45258518677653126,-0.5316306327806862,-0.39487146593053474,undefined,1495090905420
903d185fccf839df,-0.4851864283871869,-1.0265799432938862,-0.6766976849176237,-0.7383806102533537,-0.9231733648484876,-2.0530973357394835,1.9336351071241447,-0.9264390497206261,-0.30977166577302245,-0.7158671613811513,0.06079472311768923,0.039327053946873844,-0.8870460115864528,-1.0039427585753486,-1.104443184890059,-0.2756596418473537,-0.9502349015126759,-1.0787497148565315,-1.104175836364624,0.17543485616103568,-0.8751049622184806,-0.4353251538154625,-0.41519662639502125,-0.04560875735776341,undefined,1495090906927
903d185fccf839df,-0.3937093781778986,-0.9479198458616434,-0.4540310222152224,-0.517932917926429,-0.5736448082792989,-2.0128084846878327,1.9219876986797215,-0.9036936132066508,-0.31845503369604067,-0.44611260306469236,0.08428544939480574,0.002783151534138697,-0.9305648395721926,-1.0011652512859515,-1.072864193519349,0.3850792065511523,-0.5153940023014217,-1.0627970296778146,-1.0703042743967965,0.5068402013176824,-0.7787664279863642,-0.3986762148048499,-0.2982221903148956,0.07840818078134883,undefined,1495090908442
903d185fccf839df,-0.034731588885921386,-0.6432587695567199,0.08636426221699833,0.10639467701728823,-0.4312290487130873,-1.914943170055506,1.9070661812567324,-0.8151859116162669,-0.3147898989600612,-0.06518411593621963,0.014913761281748096,0.035020022632838384,-0.9827874331550802,-0.7687809625522336,-0.7960217555108748,3.7372676905849453,0.6895084534157686,-0.8764691593232986,-0.9353148018777957,1.8034816956867517,-0.3797416938712687,-0.35957276346896927,-0.3309533943106916,0.3119180270487463,undefined,1495090909937
903d185fccf839df,0.4406713864669985,-0.5311388172315579,0.7160818226739096,0.7687931225025103,-0.08696676414232218,-1.820827929838183,1.9030978125439393,-0.5737670645507298,-0.1627697103971459,-0.037705199388820596,-0.02683616801076465,0.03728648240660432,-0.8087121212121212,-0.7002692218450967,-0.7602322400558607,2.886591644677841,0.0075844464302046635,-0.7631917955277119,-0.8232888634451504,2.69750004363561,-0.10581540574773615,-0.4199890648314505,-0.6339224849275241,0.011551590042525883,undefined,1495090911459
903d185fccf839df,0.4656196948457015,-0.3714706208305712,0.9285395499810236,0.7673326541329734,0.3608004924972738,-1.7056400635897815,1.895713313942803,-0.24815810468918814,-0.5536990583714454,-0.010792130960368377,-0.1652006442911295,0.028656400760038902,-0.8696384803921569,-0.6641617112629686,-0.7633901377204849,2.4804495296275673,-0.17493204904930476,-0.6730486734630549,-0.7502561521689195,2.4344946011210555,-0.11473684045959084,-0.49342127770067107,-0.9161503089394332,0.020014032385943265,undefined,1495090912989
903d185fccf839df,0.3089999161040436,-0.2388050558871836,0.9929782607398714,0.855327146331721,0.43851922286486544,-1.6974597754965297,1.8913846474901854,-0.20408093429190963,-0.5091111161661537,-0.24858393966851344,-0.17806912215302786,0.11714695535884716,-0.5780623328877006,-0.5660233059987055,-0.7960217739164593,1.765154447830501,-0.28882741295659053,-0.5531533835854969,-0.758855232259225,2.265820024182886,-0.1171640435936559,-0.47165219009589715,-0.7480886933082356,-0.09571778166360866,undefined,1495090914550
903d185fccf839df,0.43789922184892804,-0.19830093333283086,1.2315945583880852,1.0448894629845236,-0.12232898317865448,-1.7441354001120661,1.8392802959463137,-0.7867000665728888,-0.3715380980242856,-0.18469447466765315,-0.10806918257913789,0.04304057424421776,-0.27778241978609625,-0.48732743233406045,-0.8023375471590064,1.520660706011406,-0.39776863626335995,-0.4689442311362594,-0.7842886410193588,1.7776585068466448,-0.2108536499387773,-0.44051536585144485,-0.48326414576720067,-0.35696032152914525,undefined,1495090915939
903d185fccf839df,0.05535927549810252,-0.3104209587279737,2.172023765264287,2.212216937850896,-0.5426539990873472,-1.8426039881865561,1.8800896238059555,-0.7968671017888203,-0.2201420381991353,-0.6124010972911825,0.000025939560352000085,0.1133452597938061,-0.8304715352049912,-0.5141766155033387,-0.6560215803120918,1.8783085295571542,-0.39637255187694126,-0.4350123206955996,-0.716937340309565,1.646186583247612,-0.19348374259798162,-0.4940849258692208,-0.6040496548291756,-0.3002406493720253,undefined,1495090917443
903d185fccf839df,-0.026415509096626873,-0.4319331948650664,2.359599197990305,2.231593360779319,-0.6309258511395023,-1.8628963204953597,1.9906729662994895,-0.1349055502487525,-0.2527553228630717,-0.7581023900688235,0.03176618518883564,0.07385779865163065,-0.9088054255793226,-0.49843742263932533,-0.681284783715787,1.6802887734766252,-0.39071460444480466,-0.43959737202876475,-0.728209202821521,1.5188414387875562,-0.22323116099122628,-0.4873927726445668,-0.548574906939859,-0.3706247714066044,undefined,1495090918938
903d185fccf839df,-0.2980744260956019,-0.398473310744155,1.3579209532074688,1.4923491408323255,-0.8916065599072374,-1.8074883772252994,1.9762379688024065,-0.26712278146881485,-0.39593541749756106,-0.7095269177428196,0.04508407759838394,-0.031805906444590026,-0.9740836675579323,-0.40215074502134995,-0.6918110994482228,1.1872605087181867,-0.4947491117695986,-0.4331567691947237,-0.7452674266744912,1.1029602176988784,-0.31547162072490803,-0.41521144348646744,-0.4394855890975955,-0.47668999241073573,undefined,1495090920438
903d185fccf839df,-0.29946043939381767,-0.30044168914591396,1.0184989473379187,0.9301347871640133,-0.9093493843998406,-1.7327687125984463,1.9385291797501638,-0.3755670623399152,-0.2913587320407612,-0.6177466708596814,-0.0831032851582782,-0.02127221452354014,-0.9044535427807487,-0.3651173835668526,-0.6297057541698334,0.863963281755563,-0.47017723673307765,-0.4068560546727914,-0.6771044954931599,0.9969419212589146,-0.2963976980469011,-0.3991318931217713,-0.47951674126868965,-0.5932266596342012,undefined,1495090921958
903d185fccf839df,0.14406419559473013,-0.4172577906840394,0.6356919521475527,0.5015463089588945,-0.6519292424715288,-1.7788666860700706,1.9536111235646092,-0.3191532438062006,-0.46898942875634075,-0.6463099347145933,0.07143266884786299,-0.08127551934252286,-0.7782489416221035,-0.3771532247444868,-0.6770742633125998,0.43559429845426434,-0.4714373668651858,-0.47382060165459067,-0.7107591549719398,0.738186446914299,-0.3951463005824807,-0.3907937506021083,-0.6512279640450839,-0.518385063141288,undefined,1495090923417
903d185fccf839df,0.1024839346698965,-0.5763389867009009,0.5687009440056456,0.5817710262090331,-0.24853449268644678,-1.8418726068180011,1.9826652173714923,-0.1090136981935326,-0.5401673856392778,-0.37459523047564464,0.180509763647167,-0.15864123519109855,-0.5563029188948306,-0.38641156510811114,-0.8381270810196051,0.15270929199068237,-0.6234291517901056,-0.5010902572789304,-0.7601426461762297,0.3411683290766028,-0.4965833005930637,-0.3912532647357792,-0.7110976972910572,-0.4851952668592747,undefined,1495090924943
903d185fccf839df,0.015164958860665167,-0.745986496525936,0.8175254146382988,0.8931532345649315,0.13746715161472292,-2.0011879105013004,1.9608825296178292,-0.43671232294760187,-0.2550296623428016,0.1581400740618282,0.2952787239991625,-0.2344999072038199,0.08342385249554368,-0.5650974939786598,-0.8833902784251412,-0.025104269046161254,-0.6594985312553934,-0.5658446059982333,-0.8007381421608976,0.2269118602572578,-0.5721656390304272,-0.3644346715347089,-0.577876385612191,-0.4720616989210228,undefined,1495090926425
903d185fccf839df,0.1426783203181533,-0.7565528103341094,1.20160817731477,1.1884508371005384,0.058884423280052126,-1.9818342621903056,1.9345476473547472,-0.6029595083137164,-0.2849674092647835,0.13295272669031766,0.2485377434529848,-0.3347951391430691,0.6187054367201427,-0.4354808065925663,-0.9339166557835966,0.05572008715775732,-0.6058296432034702,-0.5360164412389604,-0.8412566730546442,0.17229357599591744,-0.5838419090122775,-0.35480160980144865,-0.5530937365063974,-0.5101933673930976,undefined,1495090927947
903d185fccf839df,0.2327692537129967,-0.6849368782653269,0.9821322040123796,0.9792894365750151,-0.04417825620414216,-1.9742386128349436,1.877002235587157,-0.9803859809378782,-0.3560932712246711,-0.01715031931995054,0.2370931759869475,-0.3698571540454813,0.10518326648841357,-0.3984474321872944,-0.9539166939588403,0.2315129749872615,-0.5467708270205804,-0.562203162403743,-0.8932289840263883,0.5537130644770587,-0.528657687175531,-0.39072173710166447,-0.32965962908312735,-0.6128406136601523,undefined,1495090929436
903d185fccf839df,-0.0028534900594174894,-0.6338665149727816,0.5310584331940011,0.5293808757257817,0.02284334082524976,-1.9571629599870273,1.9174828374900823,-0.6808745251131612,-0.36955576073529894,-0.5246341122713666,0.20360545824977921,-0.2416740329985552,0.7579656862745099,-0.49751164947160326,-1.0486536533465027,1.04985908338622,-0.4228662218110958,-0.6051215219213584,-0.9919469887894168,0.9994980558795017,-0.4883963832244589,-0.4552398450212718,-0.2585135202191402,-0.5482726971696106,undefined,1495090930932
903d185fccf839df,-0.009783556550496252,-0.6438457845548413,0.24331517598969926,0.32952179947331967,0.012876496868055066,-1.9610690941186806,1.8807023706317896,-0.9238560021920769,-0.27470146469564816,-0.6778698307710376,0.2243599847907819,-0.22439971578071297,0.10953514928698754,-0.5215833188760971,-1.0212851676545123,1.1145185909611321,-0.5009964841538219,-0.5989469008503746,-0.9955923271277073,1.0695301837094795,-0.4738224694072829,-0.4438956511552099,-0.3077642554612881,-0.52202983584475,undefined,1495090932700
903d185fccf839df,-0.009783556550496252,-0.6362145895792632,0.24331517598969926,0.32952179947331967,0.021279910346223015,-1.959480553125224,1.8912426333893002,-0.8508733808585732,-0.2698899199917217,-0.6460372513940605,0.23822665405744442,-0.2278542763668022,0.11823891488413549,-0.5215833188760971,-1.0212851676545123,1.1145185909611321,-0.5009964841538219,-0.5982946079007532,-0.995256480230095,1.0710546297413501,-0.47331019072083963,-0.44388658259142116,-0.30835947717393486,-0.5234261409294849,undefined,1495090934179
903d185fccf839df,-0.045819695271647407,-0.5951234812547815,0.1552694298619624,0.2587850334806252,-0.12166042002701768,-1.9093972509980304,1.9083495232519483,-0.7243589659172145,-0.31774024098381365,-0.7060341644291961,0.21747189028806363,-0.31106923103343553,0.16175774286987524,-0.5197316689344565,-1.0297062599965234,1.1246215330270064,-0.49760706129939436,-0.6176987487013753,-1.0120978041264812,1.1043460677057746,-0.4722712198005726,-0.4470741959839341,-0.34636307890359747,-0.5185351147522184,undefined,1495090935423
903d185fccf839df,0.3284042403007031,-0.5575545213750127,0.20567241104110529,0.252982373745691,0.09513122033979664,-1.8355720145185068,1.8315933767557502,-0.9868658685419905,-0.6460554395627998,-0.8951979146280686,0.2073264068104902,-0.19858415592080234,1.254080325311943,-0.503992424267345,-0.9686535300944633,1.5368256676992986,-0.3826425401649442,-0.5683524513512073,-0.969760101780858,1.4483165430676719,-0.36930329012850505,-0.43427637102589833,-0.24914552768230125,-0.38442633753888783,undefined,1495090936969
903d185fccf839df,0.1537662886822404,-0.4149097599195462,0.06403375674506304,0.06622019943417393,0.013874213343792867,-1.7667802630623362,1.8242930381505815,-0.9279371281860667,-0.5501000862592405,-1.0617815120570995,0.0698446802598429,-0.24507241765222032,-0.012317569073083769,-0.5188058051113127,-0.9297061353804094,1.702515330815713,-0.31909032685783234,-0.5531280549999069,-0.9527368613277456,1.5115425580777024,-0.34787343831686224,-0.41959831683481313,-0.25066104403478756,-0.36309712147183093,undefined,1495090938426
903d185fccf839df,0.0775356262911935,-0.4084525657122186,0.3186007058868872,0.1864041877465536,-0.1111381522347369,-1.7881230819036738,1.8841632024651653,-0.5845736735528029,-0.45033699349876916,-1.263046816695434,-0.0053314090066392955,-0.09346008559771747,-0.9001016599821747,-0.5308416074366232,-0.9328640330450336,1.1266421779696243,-0.5387041529630936,-0.562646469845327,-0.9485317776972436,1.0452314423955598,-0.4532101159201452,-0.4272546782403533,-0.48295034102721773,-0.32060055769328094,undefined,1495090939933
903d185fccf839df,-0.43113180624054337,-0.2957455399329505,0.6165518819386788,0.43200471846374466,-0.4203467767212089,-1.7014986753833707,1.8892413608098795,-0.5315569626905627,-0.22810015136343145,-1.24472613947451,-0.15525785964294564,-0.05332329234415604,-0.9914911987522282,-0.4891791081772501,-0.9181271600982417,0.6841291605702662,-0.6089554063922781,-0.5452878721225355,-0.9445995696909322,0.7893862721536345,-0.4873195558782926,-0.44173107312993887,-0.5557537026003464,-0.34056495572028883,undefined,1495090941431
903d185fccf839df,-0.3008464181866237,-0.3720575773727079,0.942575533697678,0.7716267085003427,-0.3649788686729009,-1.7488148412019613,1.8647342019054876,-0.7629711876026662,-0.5473084786749096,-0.8272251408555572,-0.08587083523642797,0.015520681135867671,-0.8174158868092692,-0.4752916429595245,-0.9307587581189725,0.7245412397457001,-0.5956245585537278,-0.5339899018312081,-0.9382324721662967,0.9225828263679228,-0.45280137666832315,-0.4466867393205057,-0.5551180904907286,-0.32255041539102913,undefined,1495090942934
903d185fccf839df,0.006848741049731715,-0.37029653237834376,0.8864305822832628,0.8948488165028612,-0.285799574971317,-1.7482255439629848,1.9192053739478365,-0.36240355588821854,-0.5632061107596107,-0.8041110781295314,-0.1085633126242643,-0.009590359929217161,-0.8087121212121212,-0.4743658179887042,-0.9107587346681963,0.9953027439949544,-0.47267972691206234,-0.5113749588629816,-0.9150660309315413,1.2625189090363547,-0.3669415897375577,-0.4197323262885123,-0.32395449902387613,-0.2548645444113961,undefined,1495090945076
903d185fccf839df,-0.1968953518096228,-0.3368366774854247,0.5661486466225865,0.34543954904871105,-0.39655596071355487,-1.7183483922287512,1.8537836835225174,-0.7928930004400195,-0.5378098004424303,-0.5486163322310706,-0.11694625010915916,-0.06507324832232271,-0.6825075200534759,-0.48732748413715865,-0.9086534671043689,0.9063959493441718,-0.49408556299021905,-0.5130341900732382,-0.9161435398860714,1.215553651475241,-0.38142584540642127,-0.4363761704549077,-0.32215469093870797,-0.21813519050520377,undefined,1495090945974
903d185fccf839df,-0.027801591405662095,-0.4900476796790838,0.273301302926065,0.07270200435979986,-0.3368886327795513,-1.7066183433373459,1.8266730024287676,-0.9401680398488481,-0.5230661660136645,-0.7665705030527169,-0.11485033124262552,-0.11053329885645696,-0.6955631684491979,-0.4891791081772501,-0.9349693006088611,0.8356746765297351,-0.5791754656370758,-0.5537613515767759,-0.9543741142409677,1.234447546003332,-0.40182508648556176,-0.45104945799947077,-0.482316087623102,-0.34391516751218143,undefined,1495090947903
903d185fccf839df,-0.05413580956635165,-0.4513046605750799,0.2120522650194303,0.11467523924831932,-0.5240163224393056,-1.7840212920274567,1.9356390226010514,-0.39298092791875844,-0.45280264369126294,-0.9459193517776251,-0.0771126001238601,-0.08597054483379721,-0.45185773172905525,-0.4364065797602884,-0.9318114103064706,0.8983135391620294,-0.5088425979807347,-0.5265613573971908,-0.9517083293214219,1.4974837958824558,-0.3299582242282546,-0.43405772297971074,-0.3134645311731622,-0.2911667728826151,undefined,1495090948932
903d185fccf839df,-0.2287737266794046,-0.5334868772240434,0.25288495695718677,0.18535882494531683,-0.709097154945508,-1.776171754291273,1.9149529676055765,-0.603015507854799,-0.25314632031321266,-1.1761150720010236,-0.0757488680935513,-0.07259613717413481,-0.6259330436720143,-0.42344491361183395,-0.9107587420304302,0.90437541746044,-0.4916817409906549,-0.5119892552246518,-0.937133971928865,1.4899539577420107,-0.3272028837265902,-0.42479317659552246,-0.31849655730465126,-0.24616168926191462,undefined,1495090950428
903d185fccf839df,-0.170561168154343,-0.5305517730054442,0.8494259552146709,0.703986636369447,-0.44882787778828265,-1.8317660359086838,1.8950295556145595,-0.6878305983290522,-0.2762642438581458,-1.4358782128088032,-0.0310182604365115,0.028732995373694673,-0.8174158868092692,-0.48454999627392337,-0.8865481834519993,1.0862300705294687,-0.4485855066808967,-0.5283155834657649,-0.9182845636473109,1.4112679012960894,-0.3460849837097933,-0.4261857380494974,-0.2076114677233507,-0.302174645257104,undefined,1495090951922
903d185fccf839df,0.10664190555372428,-0.5417050579697505,0.800298995658583,0.6943966848371697,-0.25303963133016605,-1.8459907013891292,1.9736502416704182,-0.14801485704766676,-0.30009996790353693,-1.3270783481885038,0.06594993759900183,-0.003506563126275371,-0.8130640040106952,-0.541025824574166,-0.891811348680451,1.1993842087855648,-0.48060534007757094,-0.5326916464450463,-0.9119804369984883,1.7014362109207362,-0.30006888268089693,-0.3908821898403494,-0.11766994136804224,-0.3003865965078454,undefined,1495090953469
903d185fccf839df,0.1315900068999689,-0.5651856871225984,0.8366659931210715,0.6767775068319175,-0.1847837459429303,-1.8385650866774281,1.8986955047854475,-0.6155000891210197,-0.31872000627516955,-1.2299025180889929,0.07688115663169845,0.043438624895855704,-0.8391753008021391,-0.547506651173006,-0.8781271279211571,1.2256520842746104,-0.48091143317712043,-0.5342748817110676,-0.910693024029628,1.6704083432791577,-0.30663998012533217,-0.390284369881788,-0.1108704850825578,-0.29895387926832984,undefined,1495090955192
903d185fccf839df,0.1745564881554767,-0.528203742240951,1.2513732747508601,1.1751084472223583,-0.19593344259690762,-1.8387723901289241,1.9265188521426269,-0.4252510138289582,-0.21434302791228374,-0.9375424628876141,0.1282387156915823,-0.03584138890036812,-0.9523242535650625,-0.4789949816951291,-0.9044429761501168,1.0579416066272487,-0.5196401387002944,-0.5364534148399271,-0.925974059180037,1.234370563226642,-0.3981623895411466,-0.42020563425959895,-0.323749094929171,-0.39840922042510024,undefined,1495090956425
903d185fccf839df,0.36859862594895987,-0.5563804621507776,1.257115499123082,1.2498582992235443,-0.23967851270767213,-1.8483246001590956,1.9674517791937773,-0.227178366077003,-0.19732062361669364,-0.727246008974479,0.1630096081758842,-0.0789097398610246,-0.6520443404634582,-0.47899490399048184,-0.8854955459889686,1.0902713604147047,-0.5208240742886727,-0.5075941899483853,-0.890458246527732,1.267615805747029,-0.36933021223230106,-0.4277422826633295,-0.31500044258715687,-0.3723143257187561,undefined,1495090957932
903d185fccf839df,0.07060549078929526,-0.6855239078774445,0.5578546331412044,0.3519371545475737,-0.19135631687525315,-1.9234658565842397,1.9262926817121009,-0.6192704808102476,-0.22244710820848038,-0.5906002665256105,0.1526281356679497,-0.011022268634057164,-0.5301916221033868,-0.5632458181354703,-0.9318114103064706,0.6982733642566546,-0.6914597478292448,-0.5951977999318717,-0.9185784295267366,0.7671663239501343,-0.5202971495672123,-0.4308993565111908,-0.5025123645577676,-0.41213222391561527,undefined,1495090959426
903d185fccf839df,-0.02087152491458333,-0.7142876720133848,0.04234164329007933,-0.06835769075525264,0.2673754912909555,-1.9916147374296127,1.9201363118037056,-0.6271377399985322,-0.3182098867891481,-0.7426847466344061,0.172416254990994,-0.07518090011045385,-0.6302849264705882,-0.5669491698218494,-0.9812851281151941,0.48206842551643814,-0.7536789072083943,-0.5961794063458208,-0.9432351916066825,0.9756458740741722,-0.4809962604847391,-0.43484892269206565,-0.5534580056985291,-0.48079553211379966,undefined,1495090960937
903d185fccf839df,-0.1733329877183161,-0.6726095925327702,0.5036235870928969,0.4507441325545325,0.18940990872362012,-1.968410855689857,1.9455902051926184,-0.4355925630785156,-0.3842501541322242,-1.0904105290279738,0.20645979666947376,0.050369201928110015,-0.7564895276292335,-0.5928724891679837,-0.9654956397920729,0.4295325049500182,-0.7667146000903214,-0.6345823768830389,-0.9490635349323792,0.779084714317501,-0.5428104757065995,-0.43184879157425216,-0.5460528407572883,-0.440789355631596,undefined,1495090962437
903d185fccf839df,0.10248379664825756,-0.6109729154320513,1.1167528664500945,0.9575748429888796,0.00785707607711692,-1.8857764359053484,1.9287121087550685,-0.47553384911695346,-0.3838333787336163,-0.9788405028206196,0.20612484980945436,-0.015574719698056285,-0.8565828319964349,-0.6465708619819275,-0.9812851207529603,0.21534809809353347,-0.8048052294279461,-0.7065689460029536,-0.9784431431796066,0.701137784141514,-0.6028598962052681,-0.44565627870662483,-0.5637075845555138,-0.46027163088805834,undefined,1495090963940
903d185fccf839df,-0.041661655377000145,-0.45600086824402797,1.5046636939957307,1.372630480411757,-0.17044548063835888,-1.832150361690236,1.9285201273408525,-0.37009272410890093,-0.2965923989209755,-0.8966555428507166,0.13833248962566874,-0.04464874908880338,-0.9566761363636364,-0.6724942460819346,-1.0381273228895993,0.04157591173609029,-0.8712302166336771,-0.7145611208850656,-1.0078857236789855,0.4886392356634536,-0.6579586508084405,-0.45816474997702855,-0.5487174156681036,-0.5408864338168697,undefined,1495090965418
903d185fccf839df,-0.012555514136108286,-0.42841104642035344,1.6392841022964963,1.6794378275629978,-0.03582627786289914,-1.81460187435522,1.8678347270951041,-0.6992172891343129,-0.2398366622591157,-0.4456256022472799,0.0757616596044926,-0.028726141616464793,-0.5475991532976827,-0.6706425508125832,-1.031811520198117,-0.029145502401954026,-0.9018920435246469,-0.6785393360853603,-1.0189476815159684,0.29469581533478617,-0.6843584461369528,-0.41849059093494617,-0.5359395857441245,-0.5733302526301299,undefined,1495090966989
903d185fccf839df,0.0595172463819303,-0.448956659038579,1.9110769621441372,1.9083927553896194,-0.03859312935598402,-1.8486763156592694,1.851643010932848,-0.8122181865687536,-0.21608088285847862,-0.3883908818467999,0.06326361590067661,-0.020405003461160354,-0.5737104500891266,-0.6586067096349489,-1.025495710144401,-0.1220933890849217,-0.955959091228872,-0.6513266775742236,-0.9948016875536962,0.0385580760429241,-0.7193381859245616,-0.39772443958126424,-0.5113493808961906,-0.5258643354033975,undefined,1495090968484
903d185fccf839df,0.09693960543375561,-0.4835905731557332,1.8326017593947364,1.836170922307126,-0.005699471059178346,-1.838574404572064,1.8511039111742578,-0.8008796420004063,-0.09134001319418932,-0.5650245238639062,0.0735628798604253,0.013310517864327829,-0.5127840909090909,-0.6178700094448469,-1.0244430800436042,-0.10996980207642952,-0.9009732054137434,-0.6179647297225196,-1.0084594623054484,-0.014705146688469492,-0.720827502404582,-0.40127497687943503,-0.4628234422672748,-0.5215044938700608,undefined,1495090969919
903d185fccf839df,0.026252927224752247,-0.4460215255919874,0.9540597283051719,0.7691602349602198,0.18211735096572143,-1.8236043824105266,1.8455287246887628,-0.7998260068487018,-0.16381429540927425,-0.5044467212158025,-0.046392366961901466,0.026878937708599806,-0.6520443404634582,-0.5252866381855399,-1.054969456037985,-0.1483612928386886,-0.8097936092392567,-0.6077053614911277,-1.0297437609617148,-0.15580110130311953,-0.7465834343288819,-0.3985672983772998,-0.4169044033291381,-0.5073450356069752,undefined,1495090971438
903d185fccf839df,-0.016713346998297136,-0.4407384490648796,0.6050674331942354,0.5673254552667514,0.05424556227467062,-1.7774248844966818,1.8088613399031677,-1.0129610170760646,-0.4174320828420289,-1.0517709612033759,-0.047548395929757875,-0.031861932197529336,-0.6955631684491979,-0.4817724177552662,-1.0286536188523758,-0.15442312874001698,-0.7384443323861613,-0.6211881998869484,-1.0178841671558043,-0.17444861740580406,-0.7520253284812424,-0.3887028403892214,-0.4038326915669019,-0.4662963769677488,undefined,1495090972937
903d185fccf839df,-0.08185624805771537,-0.4172577906840394,0.9572496552943345,0.8037765880525526,-0.0076023430579956405,-1.816346472592708,1.7990968665486278,-1.1716130308165817,-0.33673723578212095,-0.6038864526547753,0.021332694694677082,-0.10897528099898539,-0.852230949197861,-0.4484424209379226,-1.0254957175066348,-0.20897959532252944,-0.7010655521789612,-0.603398962165731,-1.0162609073199174,-0.18179367457783865,-0.7416545656084051,-0.4006753698707566,-0.4629940176468603,-0.48050345693136765,undefined,1495090974421
903d185fccf839df,-0.22877365766858512,-0.48359060238372553,1.1665177097492354,1.1000036010734846,-0.14622267988287316,-1.8179699541373957,1.7847249785733026,-1.3020954563181955,-0.20875921125420766,-0.5479027586215705,0.006913252017078404,-0.01777006419953958,-0.9479723707664884,-0.4336290465693422,-1.0212851860600969,-0.2291856773073287,-0.6673516798227411,-0.5917590111883846,-0.999279648135791,-0.15612446587079365,-0.7217305358329726,-0.4042072801060452,-0.4908167020200077,-0.4816134080382874,undefined,1495090976990
903d185fccf839df,-0.01394145842350457,-0.4419124206051377,1.4249124696232747,1.3724798996909653,-0.03547658155612123,-1.814520350673178,1.854446389805269,-0.7998754367537136,-0.22606775937861076,-0.08628347234280288,-0.001322316785877569,0.05543843393243078,-0.9479723707664884,-0.45029405792878857,-1.0202325670026506,-0.20695895037991152,-0.6673516798227411,-0.5814933091329856,-0.995186513497667,-0.16453201655943597,-0.7179927713646939,-0.395498889854182,-0.4936991421924375,-0.4817073967709579,undefined,1495090977427
903d185fccf839df,0.30345593192200004,-0.5381829972090145,2.0992905327501576,2.054507938643302,0.2731869069948768,-1.8239560988249073,1.8617835514202983,-0.7005755359903398,0.03250331332666129,0.7419647739008771,0.014879124366112243,-0.06442118180304236,-0.6041736296791445,-0.5030666640503975,-1.000232536189641,-0.1503819377813065,-0.6949560395360599,-0.6057674820158889,-0.9848312328680005,-0.10584854370994908,-0.7139205920293274,-0.4163614239315804,-0.5410791541613683,-0.4875189651020403,undefined,1495090978946
903d185fccf839df,1.3637570021977037,-0.6467808595454483,1.9219230188716292,1.8800311144468305,1.0718815580324734,-1.8235065564445796,1.7675497106780338,-0.9293177314847606,0.005398959284745506,0.9723783016697892,0.018906943218482217,0.047106695035418734,-0.29518995098039214,-0.5512100287609343,-0.9823377876649261,-0.07764002002425195,-0.7627635560343827,-0.5702713337394636,-0.9520161904252711,-0.08179617441337685,-0.6733608585401774,-0.4120996239427538,-0.5934090617411212,-0.5178901359788541,undefined,1495090980435
903d185fccf839df,0.977058877930592,-0.6503029787621689,1.547410545436544,1.610388715188423,1.364550781697092,-1.8192114386654306,1.7761859957278652,-0.7696351035449768,-0.11821493406287092,0.7051274473695575,0.048206499696137745,0.0866636695617582,-0.691211285650624,-0.5493583270161956,-1.0149693870497314,-0.2413092925805424,-0.754979884564589,-0.5733491425783329,-0.9636169024550758,-0.10951337454736612,-0.6814819398693575,-0.41856843264193505,-0.6116901939294339,-0.5289141621257681,undefined,1495090981989
903d185fccf839df,1.1212043989666691,-0.6919810436287874,1.3725953289410748,1.509161489903379,1.81011689093231,-1.8154287536718634,1.7471003364230044,-0.7381457819682912,-0.13325131725979886,1.3101516340313184,0.08159934143007418,0.0291208089181639,-0.6389886920677362,-0.5382483237601562,-0.9960220231486874,-0.23928864763792448,-0.7562753399517876,-0.534293877790377,-0.9444946179192739,-0.058760098289094315,-0.6475380320389691,-0.42963153703056567,-0.6400759689920215,-0.5242402232264922,undefined,1495090983427
903d185fccf839df,1.1447666250363369,-0.6373886488034984,1.4102378397527193,1.565911991901407,1.8278494307461404,-1.8106398372781942,1.657910464485383,-1.2451291301425418,-0.09350523497306855,1.3671504555055984,0.01645900624020419,0.0647942069733075,-0.7216744652406417,-0.5678750206942188,-1.0065483462433569,-0.223123799008918,-0.7636604494125615,-0.5432613260320273,-0.9476571762887226,-0.06879988472007305,-0.6542608877590367,-0.4340333126777281,-0.6322019216854285,-0.5202589113353592,undefined,1495090985546
903d185fccf839df,1.1752593316620004,-0.5892533020455752,1.42108440475411,1.6279411705044666,1.7852563654894513,-1.7898141096202353,1.6873327412523949,-1.0541051629743026,-0.10361311943501808,1.46561095476413,0.02723294457240397,-0.07276173494510223,-0.8391753008021391,-0.570652482655905,-1.0118115114718087,-0.1766497850056303,-0.7523305439767098,-0.5325523188659806,-0.9534015584894884,-0.07953260053648174,-0.6468541731504834,-0.43766543908825345,-0.6641918637066699,-0.5012051733721172,undefined,1495090987881
903d185fccf839df,1.176645068916938,-0.5839701670624828,1.42108440475411,1.6279411705044666,1.7637489734121254,-1.7904593088360143,1.6843952471171764,-1.084411963249593,-0.09372717511675269,1.4634581117112586,0.028915780056360328,-0.08971463124390973,-0.8043602384135473,-0.5576908294582251,-1.0076009763441538,-0.16856737482348785,-0.7489912063015143,-0.5264473614045881,-0.9546399939963088,-0.06944661862107866,-0.6422058994558211,-0.4410406818835384,-0.6502972010242893,-0.5051285606444236,undefined,1495090987945
903d185fccf839df,0.7760869496893079,-0.6056898096769512,1.0778340798784458,0.9677533649110494,1.6449903305179034,-1.8469992619183637,1.7319842177337936,-0.9261663379765468,-0.030938209441233093,0.728858917532959,0.031525436593965624,-0.08998707414950628,-0.6215811608734403,-0.6067600061888075,-1.0149693870497314,-0.12613467897015754,-0.747085309857451,-0.5621588319696379,-0.9754555062381994,-0.0966556746459881,-0.6714302288847322,-0.4539649802013453,-0.6442814779151336,-0.5004934772658379,undefined,1495090989438
903d185fccf839df,1.4607780710944454,-0.56812082056919,0.636968227907557,0.32043468167916456,1.1131169348462222,-1.809037320443519,1.7852930135026452,-0.7760802344510025,-0.19822816022266515,-0.15629594297426141,0.015127057364248533,-0.16017881149539778,-0.5780623328877006,-0.5826883238335392,-1.0233904499428075,-0.07561943161107709,-0.7243291781578169,-0.5811893276260776,-0.9810389619845474,0.05498821835724744,-0.657101038532037,-0.4555672597718774,-0.5876071591285779,-0.4546078428575513,undefined,1495090990938
903d185fccf839df,0.8329136329377926,-0.6414977537903481,0.40919798698683496,0.22740211450604306,0.35422792650223706,-1.8567727499954276,1.802589245024589,-1.0844865706876037,-0.29598641246367396,-0.8526528757749068,0.07981610720734393,-0.044796633220827685,-0.7564895276292335,-0.5660233448510292,-1.0160220097882946,0.07592611261311351,-0.6511535410988287,-0.5818289540627009,-0.9838796669190937,0.18776901839470603,-0.6344474786790748,-0.43397877727002204,-0.5085535227982917,-0.4782690902218626,undefined,1495090992437
903d185fccf839df,0.7871751250858534,-0.6303444395980494,0.4009039735054529,0.20533900631914823,0.3555753515039352,-1.8519768464707738,1.8661043216536337,-0.6696674964346243,-0.29730202636770664,-1.0826952346569985,0.08193235006780351,0.002137709170295874,-0.7564895276292335,-0.570652482655905,-1.0149693796874977,0.09411163444945946,-0.7176560175962042,-0.5921643189857778,-1.004737159836615,0.19850173461498385,-0.645972258407869,-0.43174592566161263,-0.48867262605593503,-0.4807970728956279,undefined,1495090994295
903d185fccf839df,0.12465994040889013,-0.5698818655635541,0.5693388277486984,0.4360533654942171,-0.3240932246474318,-1.8221555968139143,1.9362307351892634,-0.4634917803089007,-0.1498112226905353,-0.7196220944682908,0.047904382360149,0.04330413742750802,-0.8696384803921569,-0.5928725021187583,-1.0054956793313912,0.1385650035101292,-0.758927696095741,-0.5816642984295652,-1.0052549234255292,0.20763301148571234,-0.6399557599441675,-0.44134637877181493,-0.48212356512957183,-0.4876685232580454,undefined,1495090995428
903d185fccf839df,-0.2176855512828591,-0.539944071431371,0.8302853767318982,0.8463708567734448,-0.5538139862376129,-1.8279018312622912,1.924751622643774,-0.6148364918051266,-0.2436874889656963,-0.51388224626526,0.13353967780345696,0.027048095059505953,-0.7303782308377896,-0.6252766933914435,-1.0086535843582491,0.18099781242234564,-0.797616687921262,-0.6514026754175354,-1.0077317949285354,0.15689513317478118,-0.6791677488386828,-0.447685841086018,-0.45382158117828475,-0.49031794552324715,undefined,1495090996932
903d185fccf839df,-0.09987428291288121,-0.48946072313694705,0.5195739844495577,0.5028182375840005,-0.4556884359024697,-1.8466894747110854,1.924846295568465,-0.6006001518144831,-0.3959295205465408,-0.4970031663874433,0.08837421365652677,-0.011779998488316413,-0.7042669340463459,-0.6882333806674625,-1.0181272847143557,0.9912615106391617,-0.3701930776440794,-0.7287215847360571,-0.9846423185339017,1.2358180200468383,-0.454906307895079,-0.45964436189524466,-0.5542671596804766,-0.3156126993405323,undefined,1495090998421
903d185fccf839df,-0.11512049820407395,-0.48652564814634014,0.48384537900402075,0.48064785848301655,-0.5837350756036536,-1.8373096277682786,1.8983010290282913,-0.7783475725278921,-0.4594917422622207,-0.6064935509417608,0.028821642774534112,-0.018836841467716046,-0.9262129567736186,-0.666939225027753,-1.0139167679922854,0.83769526494291,-0.3785078587206548,-0.7074682254225297,-1.0108383778750603,1.2783485278234112,-0.4385957656360638,-0.4616682906966447,-0.5824660346324804,-0.2860313450956634,undefined,1495090999943
903d185fccf839df,0.17317047485726092,-0.5516843713937988,0.5884791520945217,0.5466192579615484,-0.5972916244403915,-1.8570848679514078,1.907195044245256,-0.7510424854161017,-0.365659342790492,-0.39822041716606904,0.021021985271802716,0.025441318288554334,-0.8870460115864528,-0.7261925800435547,-1.025495710144401,0.7831388690222014,-0.4720856064888011,-0.7395255870538644,-1.0191295989352005,1.187620887953931,-0.4720961256376762,-0.4802354632244776,-0.6059487325763001,-0.3174804378889011,undefined,1495091001434
903d185fccf839df,-0.4089556279745011,-0.5804481063017468,0.9719242851648898,1.0192696414105764,-0.8606260392470626,-1.8727210508077528,1.8765788461334452,-1.0502262769610033,-0.2715917653409434,-0.14823164489919805,0.004985476856092541,-0.07045246554075416,-0.9262129567736186,-0.7678551181552515,-1.052864170068573,0.4295325049500182,-0.6239514429004432,-0.7764339831489782,-1.038139934227825,0.9457267051264878,-0.5442351229665762,-0.4856310707935719,-0.6509340279311981,-0.24935799051761198,undefined,1495091002928
903d185fccf839df,-0.40479751906903433,-0.6667394279375601,1.3158124937836069,1.3167989866825525,-0.7840078858305062,-1.848578487108354,1.840952866662019,-1.2556876639173251,-0.15414121353185745,0.14295897193544554,0.06228669177406282,-0.02083446677240037,-0.6868594028520499,-0.7623001294780064,-1.0444431218999648,0.5669339444143456,-0.6050186912354435,-0.7820703019477437,-1.028393376542038,0.9505618169158481,-0.5411128526686934,-0.46564536242046173,-0.6548289297298234,-0.27093241943382307,undefined,1495091004458
903d185fccf839df,-0.09017225883619041,-0.665565368713325,1.0956981284642648,1.079826990355183,-0.41078107799930924,-1.8823524553523263,1.8602661527267308,-1.0534658383263036,-0.19113297033128945,-0.028506727421600115,0.05179383163342583,-0.04297303971930177,-0.7303782308377896,-0.7650776173412417,-1.016022024512762,0.8619426085482236,-0.4093977428640761,-0.7685114694015676,-1.0271059635487096,1.422801345847407,-0.43030864631302906,-0.4586731796032834,-0.5768946201401084,-0.1392022159387798,undefined,1495091005931
903d185fccf839df,0.04288515581416075,-0.5622506413599838,0.6752488765992037,0.5391200731132061,-0.15474950623746836,-1.8885342548276105,1.8122537884663144,-1.2971788661023442,-0.24043923818447266,-0.35731148721090583,0.023623298668191565,-0.018481466241170343,-0.7434338792335116,-0.7382284471227379,-1.0360220442824213,0.6336140262700718,-0.5888386661650431,-0.7413938035451554,-1.0577100145496268,0.9767699616148865,-0.5426541098180653,-0.44881519645702195,-0.5181503277832004,-0.3655507098438901,undefined,1495091007484
903d185fccf839df,-0.04027557306796493,-0.6139080050366544,0.5227636573017708,0.5599808452144067,-0.0775656360769088,-1.9126442097202314,1.9133987616149752,-0.6334191943786076,-0.2535406612412105,-0.8154873050150077,-0.012719832391658543,0.08806757374622151,-0.8348234180035651,-0.7373026156765304,-1.0212852007845645,0.8599220483997703,-0.41653387389780355,-0.728936903287432,-1.0371673775282009,1.1544988170846644,-0.4935397430070083,-0.43778419159986653,-0.4889874327399972,-0.3808893758278231,undefined,1495091008931
903d185fccf839df,-0.06522395045748741,-0.608624884667558,0.581461414373144,0.36204873010363503,-0.3237229421867324,-1.92890229945907,1.9020406346941188,-0.816334188687014,-0.2547610033222875,-0.9951628298516727,0.0375726806880635,-0.01240424247961561,-0.7869527072192514,-0.6882333936182371,-1.016022024512762,1.0720857820489156,-0.3224245117132926,-0.674973890660845,-1.0321156795369384,1.3396035316388115,-0.42706829344762104,-0.41018935780955523,-0.5424111826858095,-0.39486561979855056,undefined,1495091010437
903d185fccf839df,0.3533523416469477,-0.7183967770002345,0.31222034363466333,0.308754434723768,0.08881578702218229,-1.9540138280136026,1.8817227427558583,-0.8332045969264895,-0.3024385134723248,-0.9358858792547508,0.09603529319317888,-0.018757015802945625,-0.9001016599821747,-0.6854558733780654,-1.0054956903747418,1.3165793542796815,-0.31102805388262283,-0.6781086974932474,-1.0112162060355416,1.7325718578933405,-0.336953329232728,-0.4300903250302935,-0.5861341241853648,-0.36238769810345656,undefined,1495091011939
903d185fccf839df,0.06783332617122481,-0.7477475561342962,0.2184326272716542,0.1656007710337512,0.026258178198363635,-1.9830594411808002,1.91236523575974,-0.6919253597343413,-0.2640750227825823,-0.9714213948261144,0.09564352894929348,-0.04756765795979555,-0.8826941287878788,-0.7169342267291557,-1.0065483241566555,1.5004547088207714,-0.27878822119488833,-0.65772928538719,-1.0063954033048088,1.9438539258021044,-0.2847631434248588,-0.4209443343576505,-0.6004878476752538,-0.37571841942854695,undefined,1495091013501
903d185fccf839df,0.2244531049128827,-0.7236799412113194,0.18334190556917,0.05694995397874661,0.1250317242681023,-1.9816153131973435,1.8850468101438198,-0.830411775012758,-0.24470974881023966,-1.1706490749255036,0.10428376357012632,-0.04777196044718923,-0.8696384803921569,-0.6632358862921485,-1.013916749586701,1.5934025672390175,-0.2222976488103346,-0.6489581587262021,-1.0000982732833508,1.8507549265455039,-0.2989657787543134,-0.4119161407754168,-0.6047619945966349,-0.38528033625347674,undefined,1495091015038
