UUID,iqrAccX,iqrAccY,iqrAccZ,iqrAccXYZ,meanAccX,meanAccY,meanAccZ,meanAccXYZ, covarianceAccXY, covarianceAccXZ, covarianceAccYZ,pressureDerivative, pressureIQR, iqrGyroX, iqrGyroY, iqrGyroZ, iqrGyroMagnitude, meanGyroX, meanGyroY, meanGyroZ, meanGyroMagnitude, covarianceGyroXY, covarianceGyroXZ, covarianceGyroYZ, class, timestamp 
903d185fccf839df,-0.7415991473476741,-0.3562080847394534,-0.5347398346131057,-0.5379568619993702,-1.2427105482400043,-1.1316700947287521,1.7223091496660174,-0.5319706339958291,-0.2515935694844525,-0.5969665439596111,-0.17220841184226426,-0.7377213946134988,-0.16028158422459893,-0.387337428931255,-0.7476006346728962,1.2539406047062736,-0.5086513197680985,-0.344361563075595,-0.5005860006804598,1.1037900985244982,-0.2210705613961153,-0.3483243655050014,-0.5305817332969508,-0.45265706278824386,undefined,1497538116775
903d185fccf839df,0.7663847185801587,-0.47243711282347284,0.3460347895771432,0.07413643148819572,-0.49647444552201986,-1.1414146634928097,1.6827424564715379,-0.5934022546881188,-0.5979467449601852,-0.15161606630413238,-0.19718240985276012,-1.0213531710518506,2.2201983065953654,-0.4521457467227527,-0.70970583324847,0.8680044303171912,-0.4924606603692967,-0.45651309012933006,-0.6245977507757547,0.826159142889654,-0.3667065870752441,-0.30339530813450627,-0.5482625360595803,-0.43502177361755306,undefined,1497538118174
903d185fccf839df,0.15376632318765013,-0.5381829095250376,0.42132031947433113,0.20341926830250395,-0.7036655099034526,-1.1714458900160336,1.7050090765727708,-0.6278717824458736,-0.4609563607746094,-0.4554380187112338,-0.14985111480587088,-0.661049412310824,2.7315445354278074,-0.4938082589329004,-0.6770742338636646,0.6598818593620349,-0.45793575924027147,-0.542035116321046,-0.7227294868761541,0.4721991367617363,-0.49927747913175713,-0.31790118001009354,-0.5154105458895938,-0.33908174643966194,undefined,1497538119703
903d185fccf839df,0.011006884460608175,-0.3732316950529277,0.6605745008655978,0.5352872109388236,-0.6213704339915669,-1.217673767745964,1.6592700833513063,-1.0268212094979199,-0.3466649226813384,-0.46403157315079824,-0.029182584726016834,-0.3495477238959086,0.3314811720142603,-0.4817724048044917,-0.6823374064543501,0.5467278200324641,-0.5261430580744664,-0.5533456770450661,-0.7056472415326929,0.3195143756063288,-0.5233804570996162,-0.3170245131267094,-0.5121482939514993,-0.42187373800207656,undefined,1497538121204
903d185fccf839df,-0.2592660537455609,-0.5152894415102728,0.5278679979309397,0.42459939238818645,-0.5301363004561414,-1.3261674033625825,1.6427364901199715,-1.2646295389320417,-0.4068905957416584,-0.9570362035976581,-0.03215915202653255,0.024591501338109157,0.12694268048128343,-0.4586265733215926,-0.6654952806681983,0.6558406401386029,-0.4880069514040958,-0.4913090646291293,-0.6956690696113208,0.5537783668950725,-0.44615861798921486,-0.3142950874353395,-0.38497842790948994,-0.28209570743627704,undefined,1497538122766
903d185fccf839df,-0.09571631202905342,-0.23352189167609877,0.8175254146382988,0.7504093257729191,-0.2298145254127821,-1.4055455431185124,1.6922425890328698,-1.0309412390146753,-0.3518210539675163,-0.4242198088218364,-0.038228487917885544,0.2244391314550442,-0.13852217023172905,-0.4373324176818832,-0.6949690118373146,0.5063157125923087,-0.550939962238588,-0.47311144614323236,-0.7188814089832114,0.5314524882784842,-0.44867293653718715,-0.35309959655527673,-0.39549477117527615,-0.3416220825368745,undefined,1497538124173
903d185fccf839df,0.5709567055100987,-0.1260980885639002,1.276893707211958,1.0245175281542873,0.5752778361485565,-1.485911282908622,1.6327852991482308,-1.012821207786093,0.14178154962874964,-0.6568262435546662,-0.3320109315019601,0.010635998033498762,-0.7913045900178254,-0.441961555486759,-0.6476005247812496,0.403264685990416,-0.6209674487047362,-0.4833453488789482,-0.6930712153812739,0.37844796791181595,-0.47059584910495406,-0.3061753358225661,-0.4108829336914481,-0.3598822799620361,undefined,1497538125690
903d185fccf839df,0.4877957695955146,-0.06093930686045684,1.3898217479207906,1.3463905911668976,0.6738662432445335,-1.5455887205428702,1.7321498958757637,-0.4520137229283555,0.15731845904951675,-0.30324327252230143,-0.5133583326930959,-0.021289694998092665,-0.8043602384135473,-0.3012348648446261,-0.6244426036658494,0.3972028076920053,-0.5200160369919377,-0.39670434700436197,-0.6883553645812428,0.34974526344596835,-0.433845739604831,-0.3220652061831368,-0.3673810584646453,-0.37807590015686715,undefined,1497538127198
903d185fccf839df,0.468391721442133,-0.08618103946365352,1.4644688858010269,1.2675325838568254,0.48925855679114,-1.6241516306053907,1.755123878313328,-0.49025473875826703,0.20851758320728936,-0.9798916127430634,-0.6597610756178728,-0.12911462669219076,-0.6563962232620321,-0.20587394744359827,-0.660232137526448,0.40528521787414773,-0.507378398882114,-0.34942892310042084,-0.7007397197228543,0.4137719997597131,-0.4008550311540221,-0.34231456777954994,-0.32257200362735167,-0.41300989139078764,undefined,1497538128672
903d185fccf839df,0.22168100930563173,-0.18069051261718158,1.5378405103321071,1.4052227046467938,-0.18723174104187862,-1.7369100993415822,1.8098711833856862,-0.877866125542495,-0.4345940827801125,-0.8186901455728731,-0.4022098682076217,-0.0885825972923631,-0.4083389037433155,-0.21790981452278155,-0.693916374374284,0.5932017209768656,-0.4551880513571413,-0.28233138589041945,-0.7294266438278658,0.598707328856112,-0.34902446835315776,-0.34189794529610074,-0.3671563598779087,-0.38255288091659284,undefined,1497538130185
903d185fccf839df,0.09555376466258854,-0.18421266106189457,1.498921469623509,1.409842281062415,-0.5179889004818531,-1.7862806533810853,1.86435550863544,-0.7451369702723596,-0.48606048288451265,-1.3564591509534174,-0.297660109090573,-0.07444565000048647,-0.9349167223707665,-0.07440549355889332,-0.7149690352880907,0.5709751636377777,-0.38013720365439485,-0.2184953115183755,-0.7523272063961169,0.5609811346317756,-0.3385181338907615,-0.3511356545151322,-0.3248775373041961,-0.5164779143669468,undefined,1497538131667
903d185fccf839df,0.0886236291606903,-0.1754073191781044,2.266449365370349,2.134501964081581,-0.5210848950243628,-1.7546775355209676,1.8465464633430422,-0.7829383916695634,-0.6624847150042417,-0.7855819738640454,-0.28273767241966413,-0.013344841406889655,-0.9523242535650625,-0.04292717258473929,-0.751811169800551,0.5709751353730561,-0.3648851191025165,-0.18436707709967706,-0.7598067973823285,0.5245022145424378,-0.3352808356879776,-0.34387476948788004,-0.3270674487574155,-0.46573546788661124,undefined,1497538133193
903d185fccf839df,0.012392897758823927,-0.217672457498829,1.8300497161486264,1.927713926981499,-0.49506208291340104,-1.738834049559239,1.7452305529692438,-1.406973032800143,-0.6274829810167813,-0.4291772747938365,-0.22167306621617955,0.05769763937500142,-0.9436204879679144,-0.11143889386571433,-0.8202323177704226,0.5204598880139757,-0.4904554262971968,-0.17576693891030554,-0.83203487724286,0.6592232142097172,-0.3293634263402312,-0.4141768817675836,-0.37679857887754925,-0.38802801902537215,undefined,1497538134683
903d185fccf839df,0.0927817035607473,-0.2118023075176151,1.962755964946335,2.0586180807375083,-0.30362468625054323,-1.7428123905510646,1.893335968992863,-0.3961140393614676,-0.6128545294681079,-0.6483581910363226,-0.19599275270074054,-0.04211752987021544,-0.8783422459893049,-0.11514224555209353,-0.8181270502065952,0.39922342436990166,-0.49814287667238205,-0.10827675893208263,-0.8352394162940568,0.6557431680697707,-0.2950777993493564,-0.38706325679746134,-0.5000470107179675,-0.3407856131110561,undefined,1497538136177
903d185fccf839df,0.031797049428434726,-0.24995839930747463,2.1126886327237595,2.1570018236894537,-0.32327036683782107,-1.7555370257197023,1.8603871263048628,-0.6439006400273385,-0.48930730772445175,-0.6466456299152674,-0.24365355271039743,-0.034341460892396765,-0.8609347147950089,-0.1799505633435912,-0.8623376543225035,0.26586328892317085,-0.5843035833203469,-0.10425534064370857,-0.847826679146838,0.6366952903661365,-0.3036017183465287,-0.3990426348215654,-0.5541154086665974,-0.382458935728824,undefined,1497538137662
903d185fccf839df,-0.17610508332556707,-0.14370848005155715,2.114602538089867,2.0840837119823368,-0.20916084097629126,-1.7646443519612385,1.8447976351357822,-0.7600374409068413,-0.43428956740851027,-0.2607997077482128,-0.30152718153890745,-0.04494963099696348,-0.8913978943850268,-0.18920889075644098,-0.9107587273059625,0.07188499231620687,-0.5279984147348694,-0.13965016086898915,-0.8904092701422952,0.46055247456192894,-0.3623683093909903,-0.4218864593713848,-0.5849708198124144,-0.37095477579472735,undefined,1497538139176
903d185fccf839df,-0.18164920552924954,-0.11670584859395801,2.111412356963755,2.1857800085203496,-0.30960067455345675,-1.7053046531632492,1.7971797356335428,-1.0163731882006946,-0.5642825611762714,0.4816920242246516,-0.3852919339499117,0.10499383299954354,-0.8739903631907309,-0.22253900413075556,-0.9286535052796125,0.021369688427683355,-0.531465656184146,-0.16514026059341497,-0.90930765548828,0.4133870361330287,-0.38708196538868456,-0.42902304962929944,-0.5703414216740046,-0.41994758328417203,undefined,1497538140688
903d185fccf839df,-0.06799604606473839,-0.05859127609596363,2.339182852021427,2.207185768644664,-0.03269942694345991,-1.5948404831534844,1.6297794379793704,-1.6445739831042585,-0.793067941244607,0.30313428348023636,-0.38297032302613737,-0.00832037964282796,-0.6302849264705882,-0.2493881613984847,-0.9191797901990385,0.015307894923437267,-0.518710286637037,-0.17371506672017026,-0.9116795744794637,0.4028237042531271,-0.3930031871958723,-0.4281740230949252,-0.5693561392025746,-0.4617164550312366,undefined,1497538142174
903d185fccf839df,0.17039858628246837,0.04061434627052785,2.586731301031025,2.4739262554374806,0.022740477553223813,-1.5188723452598214,1.72947012667007,-0.7779747285721444,-0.882504554440661,-0.09417923490067755,-0.19677869789691785,0.14640633014645923,-0.2516711229946524,-0.2438331338689159,-0.919179804923506,-0.039248557526714425,-0.5652090472681689,-0.20788763039920075,-0.9099513620399978,0.39101309378220256,-0.4130137450757485,-0.4427419475621222,-0.5175441163048755,-0.5173348578989645,undefined,1497538143655
903d185fccf839df,0.14129209998747916,-0.02454431852094615,2.3525809519950283,2.3764650500726283,0.10671291456894651,-1.4950395705721053,1.7407493655102673,-0.639633384947077,-0.569154351178852,-0.3476699095938279,-0.13442404125743898,0.06378369041693989,-0.3125974821746881,-0.05774050162560878,-0.8707586877666442,0.08400855105997752,-0.4594526688025776,-0.13686366602742994,-0.8760028358070525,0.42816953867271085,-0.3649055849330269,-0.3845390589891629,-0.3947135073514049,-0.48091149033410757,undefined,1497538145164
903d185fccf839df,0.2355410732769698,-0.12727211856014298,2.8731982824753226,2.6818648070715065,0.3054634384612791,-1.5886656699393742,1.7182434810184601,-0.8727506199050711,-0.3893880727965037,-0.09279902339762147,-0.1798326528771356,-0.1211116187725501,-0.1820409982174688,-0.014226365375369652,-0.827600743200468,0.21938927491988316,-0.3600864320581872,-0.08364160494864153,-0.8274729560313162,0.413464023917698,-0.3248836324797929,-0.3159087524777725,-0.3889426105845856,-0.4559113632601,undefined,1497538146665
903d185fccf839df,0.37552869244003867,-0.013391092012624464,2.380653427702236,2.360755919158728,0.3535902168827889,-1.5809978150919792,1.87226331377096,0.1289143002083392,-0.3282856454779195,0.41505457053738715,-0.38473204190192783,-0.05361935843979376,0.009441844919786108,0.03669452605072605,-0.8065480675621937,0.34466708497863613,-0.3367627288247576,-0.05095095043339421,-0.7900540117931678,0.4655261676888843,-0.2838582921515935,-0.3405668561488634,-0.37354638561666137,-0.4786712521612073,undefined,1497538148172
903d185fccf839df,0.5113582717084603,-0.14370853850754184,3.3791412372220107,2.9251664078403388,0.2192281495614747,-1.595630095071205,1.7572697845837602,-0.6519825439639311,-0.3806109455255577,0.8495096154440127,-0.5566650260029917,-0.03997287480514101,-0.41704266934046347,0.11539045151846934,-0.8128639070648449,0.38305849094673056,-0.2857198260981086,-0.016620061789335908,-0.7763822444350946,0.348297801819727,-0.2805576690488672,-0.2981465315737167,-0.2798323076900196,-0.4406493615172228,undefined,1497538149665
903d185fccf839df,0.5030421229083463,-0.030414585414129374,2.892338606821146,2.701211872928315,0.0624329827467578,-1.707622245098208,1.7344483357228164,-1.1076694625206833,-0.7256983965300301,1.322532484006346,-0.634238445403623,0.05718202968675345,-0.4605614973262032,0.0672469832017362,-0.7697059330497334,0.24363667505463982,-0.3015926031181603,0.03263124097381149,-0.7486188985461182,0.2867964109495802,-0.2612929422625949,-0.24386239095180134,-0.31256999095114435,-0.45706378069395237,undefined,1497538151171
903d185fccf839df,0.845387545589276,-0.056243245331470425,3.1252129342340873,2.814489356390093,0.35561648480961916,-1.7222102696731856,1.7453857047120152,-0.8819552019686147,-0.5229830527509078,0.844781980177172,-0.40860642479188025,0.15710228644574958,-0.8783422459893049,0.1394621079721886,-0.6770742485881323,0.5932017492415872,-0.14084804046715965,0.0869552322094363,-0.5710748211190423,0.7341674509296426,-0.10086054258954646,0.18811851414025127,-0.06914328439150741,0.6244078066804616,undefined,1497538152670
903d185fccf839df,0.6083790645619239,-0.22119457671554965,2.53058609547966,2.3710964926387827,0.227508131066241,-1.7690303072996278,1.7149194085401975,-1.2435630548047458,-0.29811987856237093,-0.0270289895135041,-0.1652470055103429,0.18360447748700864,-0.07324392825311943,0.03206527168887933,-0.6907584472607247,0.6194696529953541,-0.15309901841373444,0.107885609684587,-0.5797788532929761,0.7595594894360663,-0.0930446351065427,0.17601854992557758,-0.04713673638955087,0.6352187289459411,undefined,1497538154176
903d185fccf839df,0.5058140804939583,-0.028653481963780536,2.256241446522859,2.14625195499097,-0.06689937431559709,-1.6516669320611823,1.762823952953648,-0.7465641728921184,-0.43043678373744026,-0.9688584319374413,-0.2562311169748968,0.1546722837999201,0.557779077540107,-0.020707191974209598,-0.6591794558900147,0.37295543582197016,-0.2923013795270938,0.06156012569893834,-0.58501946421753,0.7159972887089888,-0.1240504280717,0.2476505998757462,-0.1958016564941141,0.6269346418031668,undefined,1497538155631
903d185fccf839df,0.030411105141038442,-0.11846686436032983,2.7015729929690155,2.528742276162333,-0.4887055236440183,-1.6757559246602338,1.847582599098827,-0.44444392779071457,-0.572598132043916,-0.9033563787571124,-0.567485459052579,0.10113776324876607,-0.6868594028520499,0.10335454558696242,-0.6254952484911138,0.5830987506462698,-0.2703825418877594,0.2663485244978222,-0.5399669994413853,1.0098766205360101,0.035230869130674504,0.25884561932731587,-0.16062307826856878,0.578253914036032,undefined,1497538157173
903d185fccf839df,-0.2065974794025428,-0.03276255772263791,2.8687318255892063,2.5933414018006484,-0.7305016889461606,-1.6280624222378486,1.709544068639001,-1.2844578828558257,-0.4825985477267759,-0.9582316212855306,-0.5996415937542742,-0.013139283634834721,-0.8000083556149733,0.15427535930841083,-0.5697056690930378,0.5932016927121441,-0.17894090988142217,0.332008483570569,-0.5208167288671378,1.1442126605210619,0.08929856281369641,0.30808645201608165,-0.20885480517046542,0.546555953748252,undefined,1497538158658
903d185fccf839df,-0.0763120223378037,-0.4219538814410182,3.3434123776395244,3.3948572562480703,-0.471528403650229,-1.817557678114936,1.7697561165696745,-1.1763163586433623,-0.48484407991117406,-0.774209472392904,-0.5392201476194066,-0.08769445217832365,-1.0088987299465242,0.20797382925316366,-0.6928637221867858,0.3608318770781995,-0.2874760705846602,0.3650917802117848,-0.6776992238059713,0.8336106157816144,0.006412086677627766,-0.052641649804523245,-0.43269233901392584,-0.394400348614438,undefined,1497538160157
903d185fccf839df,-0.14145475087017326,-0.2587635658233108,3.608825129371891,3.36682916080831,-0.5300540188028555,-1.7278470300500202,1.7823949677287836,-0.9917427580312487,-0.5299063551887649,-0.5080230832486347,-0.32101823028458476,0.006259931539716774,-0.8783422459893049,0.09594781631265492,-0.7170742954896844,0.42953261800890435,-0.32566481270448666,0.36000009077112194,-0.6757261233589625,0.8276976097146834,0.0022266415532612035,-0.0799141802385972,-0.41771359424127896,-0.411884317649761,undefined,1497538161659
903d185fccf839df,-0.11650658051310918,-0.1859736183722817,3.213896564104877,3.005236515392955,-0.30107383503943397,-1.6980001589579248,1.798505169411362,-0.7689955633800735,-0.5530629591176238,-0.552980912109542,-0.377752678811982,-0.03088361606965009,-0.8391753008021391,0.31074133346997895,-0.6560216171232608,0.6255314464996001,-0.22055105813906103,0.44697040888944206,-0.5943182277138694,1.0283393505815306,0.0920640269327182,0.008454127760110598,-0.3387020787522778,-0.3231702778001636,undefined,1497538163169
903d185fccf839df,0.011006780944378972,-0.04567691690930077,3.5590605402096993,3.2937347696073944,-0.20469685164842602,-1.639061090988853,1.7131653318395619,-1.127051170754536,-0.8870631039219168,-0.06960176650449869,-0.5598913859062237,0.018467711921830946,-0.7956564728163993,0.24408136573684078,-0.665495324841601,0.5103568328892153,-0.2432500499240661,0.45445594824967944,-0.5858800728912718,0.9060448952047215,0.07859068875895359,-0.02707682277605536,-0.4467847614569294,-0.3066014265152722,undefined,1497538164683
903d185fccf839df,-0.14284069515756953,-0.0867679667777979,3.1558371990504552,2.9167621419493366,-0.401616518319091,-1.6372885394933019,1.8979039441562275,-0.022114092011921726,-0.7684420886137043,-0.7249093883771345,-0.5924360114589612,-0.03253587891844796,-0.8739903631907309,0.1709404418971172,-0.7023374151806586,0.4760064341591413,-0.28640913075673835,0.3830963398949634,-0.606506670542147,0.8661013244457133,0.03587481864754656,-0.08622600586259759,-0.5358995356054244,-0.2984750827306019,undefined,1497538166175
903d185fccf839df,-0.2814422320116032,-0.20475812754015846,2.8623519716108814,2.642969089917286,-0.6301955630388304,-1.6651276067701122,1.8096423896987073,-0.7885947609116324,-0.7425055425524021,-0.5065570740280477,-0.4411898544781574,0.016791714490435226,-0.9131573083778967,0.07002450991729514,-0.7181269182282474,0.48206836898699507,-0.31458265631739607,0.31167973490319734,-0.6320030493522903,0.6687086506004396,-0.04398858362577512,-0.1180131076153427,-0.35638081067723243,-0.22843756863691592,undefined,1497538167759
903d185fccf839df,-0.37707721859930954,-0.2317608466817346,2.729007330796221,2.63505501137183,-0.8854351411400144,-1.67529939367568,1.758442693688895,-1.2409419857789894,-0.6603992864694619,-0.5374764446616417,-0.4914968941100738,-0.011442947583267334,-0.9044535427807487,0.06724708680793257,-0.7391795644175865,0.5022744509717944,-0.3414345588981446,0.22308818739472097,-0.6509993893532036,0.6241609477897098,-0.09873064542923321,-0.10563795808899051,-0.3602136878870547,-0.21006103795273368,undefined,1497538169165
903d185fccf839df,-0.37569123980650354,-0.253480489296203,2.7513380904051057,2.435181718252779,-0.8715391629746615,-1.6958712335200061,1.867153621092042,-0.6294557823996878,-0.6386306585652508,-0.5545866003599987,-0.4473689978724346,0.05492020165700595,-0.8957497771836007,0.10057704477295257,-0.6886532017835986,0.4396355600747786,-0.38582389538840756,0.17170901588816997,-0.670345572014454,0.5696350529086653,-0.1351336083053207,-0.12074019849892259,-0.3343080540432225,-0.19079549882270166,undefined,1497538170665
903d185fccf839df,-0.26758216804026513,-0.15955794345681928,2.683708690246247,2.4135406586388,-0.704622875923563,-1.6354857063951962,1.7978897857112923,-0.936028355982352,-0.5584452140992707,-0.7974386320070914,-0.38084075755041963,-0.01956499616451967,-0.9131573083778967,0.014474493637098174,-0.7718112227002621,0.30627542462804785,-0.4093281445315897,0.05683574975436049,-0.7503960862271304,0.4211632448368918,-0.23741027165643197,-0.26501042023880206,-0.40706964357979947,-0.3258499800254962,undefined,1497538172168
903d185fccf839df,-0.4616241678121094,-0.3468159616814806,2.2326349194278685,2.10154473670529,-0.6114858875657939,-1.6042343035396411,1.820524524549568,-0.7881811466787065,-0.5361452948893355,-0.9568697476767375,-0.23248483151528077,-0.05597736848388322,-0.9653799019607844,-0.09940306563885469,-0.8223375926964839,0.38507910762462694,-0.5538338791735783,-0.09997426763940528,-0.7828962719968974,0.4296015943549993,-0.31743846386858576,-0.3129247891577738,-0.45360358002518036,-0.41209285783833866,undefined,1497538173667
903d185fccf839df,-0.46578213869593715,-0.391429101538706,1.7094655457014647,1.9075073158812037,-0.631717856579227,-1.6427715675833172,1.8638216454382976,-0.606753064242571,-0.5236420350333133,-0.4761402605873354,-0.30052780277000796,0.05715388554548269,-0.8783422459893049,-0.12347472209257399,-0.7981270267558191,0.25576023379841045,-0.6469777321445033,-0.18025066331073233,-0.7697492652098925,0.32924992691625315,-0.3759184657757632,-0.3331058386350867,-0.4187641032642963,-0.4552079032939154,undefined,1497538175171
903d185fccf839df,-0.4574661279174621,-0.46715415320833437,1.7898546538169733,1.9633896780617555,-0.7040057311004733,-1.691729845946473,1.8926995541977367,-0.5640739661856594,-0.48172353847272636,-0.12383945539221722,-0.1864355258583746,0.032302808226864224,-0.504080325311943,-0.08829304943204075,-0.8002323090441141,0.06986440390303203,-0.6060664981572043,-0.1906746894009993,-0.7798316697627061,0.2952193638531156,-0.38566313150374903,-0.3067715418659213,-0.41669687489890317,-0.4782480697635968,undefined,1497538176656
903d185fccf839df,-0.5032046357694014,-0.44719555558823015,2.0858919245026573,2.0177225633187037,-0.6292184261793115,-1.800032482436837,1.9242808938470317,-0.4849350355167622,-0.5087882238886526,-0.25534831599275115,-0.1960001157518907,0.020624014169960854,-0.504080325311943,-0.26975647911659933,-0.8107586321387837,0.0395552102640293,-0.6869298948883424,-0.3077708176139468,-0.8165999109930494,0.21528603553386402,-0.46747141091627364,-0.30424406116648234,-0.47428769413956967,-0.49053657505981363,undefined,1497538178206
903d185fccf839df,-0.44914997911734816,-0.41843179145228987,1.9442537784805138,1.8893659603868351,-0.617935014441568,-1.8301192655715652,1.941495603032885,-0.41744727516095653,-0.4613364298950465,-0.6749977575325009,-0.1707694223262462,-0.015934931747988493,-0.8130640040106952,-0.2604981517037495,-0.800232316406348,-0.004898130531918921,-0.6454490782478325,-0.33111404934868677,-0.83278353495453,0.08820266607339984,-0.4956690862288011,-0.33578700614967244,-0.5512865817976491,-0.5392089507582597,undefined,1497538179671
903d185fccf839df,-0.48795848948902815,-0.4014083565067696,1.8192031511472357,1.8603085778179078,-0.6905417464772426,-1.8124007436699028,1.8879369667691712,-0.76979390385558,-0.4615561417472991,-0.8089967631255112,-0.15926169798983253,-0.06892972196323228,-0.6868594028520499,-0.22901981777882094,-0.8212849478712194,0.06178190892672494,-0.5458000830433175,-0.2486844555787695,-0.8565027231413547,0.17209339706670362,-0.4500924195643379,-0.3302102441914735,-0.46921986026442125,-0.5354742300958718,undefined,1497538181170
903d185fccf839df,-0.2176855512828591,-0.4078655507140972,1.9021450649197025,1.943638281478546,-0.6378789774162253,-1.8057134982428362,1.8724631911425775,-0.8098857097322144,-0.4574361694538834,-0.5051669938292483,-0.23068315036547907,-0.005231875193056281,-0.7651932932263815,-0.15310148378050933,-0.8160217826427678,0.10421466130949832,-0.5713424194607405,-0.19365750824274391,-0.8634785444846098,0.19312767688498378,-0.42768436795507186,-0.34737129458765076,-0.39779295276016635,-0.49995736052391937,undefined,1497538182666
903d185fccf839df,-0.2509499049454469,-0.10555256362965164,2.1235349435882007,2.019829016978178,-0.7998067095037764,-1.7163871734800589,1.8367083492063891,-0.8723498170274776,-0.5285047706974452,-0.27708764282701936,-0.3403733339434801,0.030464696248442554,-0.7434338792335116,-0.18828310463794437,-0.8360217840068425,0.13856506003957228,-0.5830405131459696,-0.22629116602128155,-0.8848677955058897,0.18743025076401368,-0.4507133469766322,-0.3834860154784618,-0.3759438255334211,-0.49664568401334735,undefined,1497538184162
903d185fccf839df,-0.11650654600769944,-0.041567782694458724,2.111412356963755,2.0361157145048154,-0.6525258179530762,-1.7125346104419574,1.7535065505907934,-1.2289737950895576,-0.5263918871827082,-0.7514453084065452,-0.4593455750352271,0.10970076440632931,-0.47361714572192515,-0.0012646344730424745,-0.8118112401528791,0.32446100299383684,-0.4933054001793918,-0.1121208577651425,-0.8639263399831081,0.3577370580461334,-0.35757908729129895,-0.33410178738922136,-0.3334250828776774,-0.4753889617039013,undefined,1497538185652
903d185fccf839df,-0.1553149183577405,-0.062113424540676636,2.6460659252976533,2.511977814632249,-0.6701760679334895,-1.7189866034151944,1.8260891900862504,-0.7233290715177394,-0.6281562702219611,-1.0286713793047089,-0.5986837035516956,-0.05008192491827901,-0.6172292780748664,0.15983043864107782,-0.7949691438156625,0.34264635524185355,-0.270921253685854,-0.001984632749035892,-0.8374993849348747,0.47816829639480235,-0.2806627769293155,-0.29834914281438557,-0.17379027871486846,-0.47840760983419833,undefined,1497538187170
903d185fccf839df,-0.034731657896740854,-0.18362558760778852,2.6664827795404302,2.6319474491728,-0.6846789040385849,-1.7223383790501676,1.8046930797754168,-0.8974651209434625,-0.6218652583004015,-1.0412422358325535,-0.5235307716058607,-0.004890304748337866,-0.6868594028520499,0.14779453270957088,-0.7928638615273674,0.3002136028590802,-0.29880913781668916,0.053346295877967784,-0.814444893555003,0.4494193994870123,-0.2521568356580816,-0.2833778436182263,-0.1547684035177179,-0.4404431349802764,undefined,1497538188671
903d185fccf839df,-0.1788771444274083,-0.2763741034509294,2.617355819984342,2.6958373288700264,-0.6924034615002105,-1.783827965915338,1.7629712064475633,-1.3111147117268587,-0.5011700241246223,-1.060405163433739,-0.5170016566007776,-0.08524209565503603,-0.8391753008021391,0.15427541111150903,-0.802337561883474,0.2315129749872615,-0.29257876452678294,0.07297842251809604,-0.8040686241014936,0.42970938923499163,-0.24440368515359048,-0.27102841934366645,-0.11256487428124547,-0.41703866128447126,undefined,1497538190164
903d185fccf839df,-0.22738760986495962,-0.3879070115499777,2.401707657414167,2.4881301923520063,-0.6606618011716872,-1.80770033868952,1.7769591448521547,-1.3640968052904519,-0.5090989709527877,-0.9336941469969225,-0.3327668723849875,0.018065402920999705,-0.9349167223707665,0.15705288602396977,-0.758126979854267,0.33658453347288597,-0.28696217589199063,0.0953337119607766,-0.7799925968043616,0.4419203576585801,-0.22485563560521002,-0.22155040832191153,-0.14492452891643864,-0.4012266979108161,undefined,1497538191724
903d185fccf839df,-0.3867793806976393,-0.3403587967021453,2.285589689716172,2.227116475498048,-0.7680033400903498,-1.786026768490832,1.7960147217001687,-1.2330208404952863,-0.4914764726593823,-0.5801976975220036,-0.2808732315390219,-0.0654954462144656,-0.9218610739750446,0.12372290215740069,-0.7560217196526734,0.32446083340550763,-0.2974268075880306,0.11268597782507712,-0.7857229845392195,0.48257225531956527,-0.21068942304334876,-0.22293040005077167,-0.16581060348953242,-0.39919029046562726,undefined,1497538193238
903d185fccf839df,-0.2842142241026249,-0.42547600065773883,2.065475578533779,2.129625249436245,-0.7022880199331111,-1.7956069295003443,1.8094057045062943,-1.142477121333767,-0.44880397854797016,-0.41820228189819064,-0.2898348301252195,-0.0355074845832584,-0.8087121212121212,0.1015028956453219,-0.7981270120313516,0.2759662309890451,-0.3775517275731208,0.15049998559689776,-0.7752207718231702,0.5522194234134661,-0.17800372087372213,-0.23593273590266622,-0.127425598916721,-0.44690720909720455,undefined,1497538194749
903d185fccf839df,-0.19412335971860104,-0.37147059160257884,1.8779003999447101,1.973442774386995,-0.6879086163975727,-1.7244905973360096,1.8131111002053761,-1.0179873793557077,-0.46152293952544166,-0.20680775802280074,-0.2067352928553862,0.00550510238761372,-0.8087121212121212,-0.003116284414682977,-0.7654954126465462,0.2860694274374132,-0.4267883666888755,0.14168452790938163,-0.7862197578973664,0.6091782735500738,-0.18129417851139742,-0.19548217121536327,-0.20819616843882782,-0.4023502993811348,undefined,1497538196258
903d185fccf839df,-0.187193327732932,-0.28165717997803724,1.967222167695502,1.9381495764425396,-0.6895954713220404,-1.7104965274736317,1.8616205083194,-0.6699148385555509,-0.48531800765396954,-0.34415048348137034,-0.27420344491586246,0.025226029046815663,-0.8565828319964349,-0.029965519387059394,-0.8254954682744067,0.2678839338657888,-0.3843791408713403,0.03881219029891654,-0.7569870817181708,0.6335386143134106,-0.21821759781564562,-0.18808834067007657,-0.31094164103588595,-0.36039916807067257,undefined,1497538197739
903d185fccf839df,-0.23154578778124582,-0.18421263183390224,2.461680673697747,2.3480665264402187,-0.6756172139980512,-1.7180945053211714,1.8845287469797751,-0.44383416785991747,-0.5142122769385855,-0.7510302862309375,-0.4525148659718403,0.046233353034478265,-0.9392686051693405,0.0320653752950757,-0.8276007284760003,0.399223339575737,-0.3933751544904592,0.11616276786268159,-0.7506129873948927,0.7272227545238946,-0.16119471855522077,-0.20013295551415233,-0.30264214388405053,-0.337420424338683,undefined,1497538199250
903d185fccf839df,-0.2079835272061683,-0.1525137342513703,3.2087924776126573,2.854827358229785,-0.701454887295293,-1.761683888238972,1.7548451261842184,-1.2809305492802352,-0.542143763118725,-0.3075539176052451,-0.550521946163821,0.04251617910954476,-0.9392686051693405,0.08391214349508985,-0.8328639010666858,0.3365846465317721,-0.3355193795137585,0.2058942474089981,-0.7578406926695936,0.7071277807125013,-0.11910576526598764,-0.19757627999328956,-0.3255118304296803,-0.3284189753814394,undefined,1497538200733
903d185fccf839df,-0.2648100034221947,-0.24643625086276164,3.074809698917995,2.9380793894743413,-0.6398949911682273,-1.7983461128847638,1.8642029724072806,-0.6270809921684675,-0.5549421366546299,-0.3563291575692111,-0.4395763517213962,0.04432516198856589,-0.8565828319964349,0.033917025236716206,-0.8412849713219955,0.41336762805629024,-0.39355294158760223,0.22607100666832552,-0.7551119373085463,0.7629471427493656,-0.09513715773728247,-0.2008349131018427,-0.35443544827792517,-0.29612582222862255,undefined,1497538202246
903d185fccf839df,-0.23293180107946157,-0.31511712255493335,3.12329902886798,3.0859197987568843,-0.6335178553474243,-1.8039013493086464,1.7977477731489555,-1.106500307693385,-0.4884333456434269,-0.42733145423919855,-0.3691703337471293,0.03183134536543182,-0.6607481060606061,0.00614199119506863,-0.8339165606164177,0.4073058062873226,-0.3346717136807699,0.24964855471135927,-0.7704349524555926,0.7391411468971453,-0.09499667891086618,-0.214494881988498,-0.26316460538619135,-0.25240739703568776,undefined,1497538203767
903d185fccf839df,-0.4061834978618403,-0.369122502382101,2.9376375015080693,2.8000202875031937,-0.6826834853588268,-1.7612366735843012,1.7244787444742686,-1.5531147946307373,-0.5199536665121827,-0.29559942141002776,-0.35559289629855534,-0.09796248282608429,-0.6346368092691622,0.05335950503323605,-0.8086533277637873,0.3992233961051801,-0.3040420483589528,0.26006624799636574,-0.7466947731265587,0.6735591693972749,-0.09583636258619146,-0.23061985687116454,-0.25834259738165366,-0.2595105999284959,undefined,1497538205248
903d185fccf839df,-0.45192204021918936,-0.40199534227689865,2.622459906476562,2.5156371869786307,-0.8007427109770695,-1.7829451820074769,1.8710983310013591,-0.7882918770609283,-0.5008710800132269,-0.14698734250660692,-0.24166583670301245,-0.010992603605064757,-0.15157781862745098,0.028362049510245603,-0.77707438056648,0.48004763925021254,-0.3505072372345878,0.24517116229122995,-0.7565043015229975,0.6030804834722497,-0.1105959040758083,-0.27273608485409856,-0.3136689255228694,-0.31570633061775544,undefined,1497538206762
903d185fccf839df,-0.4242017397494646,-0.3526860824347021,2.3819291951883415,2.2672169824912656,-0.8255826693509779,-1.7713851681457113,1.8777044009683637,-0.7535255481828135,-0.4252523324550885,0.0658756950371959,-0.2033543568667243,-0.20100880864867338,-0.29518995098039214,0.011697018724637421,-0.7549690821896428,0.5224804764271506,-0.36995396343619413,0.23196063904507744,-0.7602475949811133,0.6274562254004195,-0.11664703601040866,-0.2728296438949386,-0.22597096324387125,-0.36491425137978534,undefined,1497538208244
903d185fccf839df,-0.336882798445643,-0.2728519257782241,1.9423396189774569,1.9774091263555191,-0.8611506085597025,-1.744489444393448,1.8105891176362174,-1.1350812724117065,-0.5587382398275577,0.14785594618739265,-0.22251483912696424,-0.11486738804928945,-0.32565313057041,-0.039223846799909194,-0.8044427926361325,0.449738615199539,-0.4179936585710497,0.16963180667456576,-0.7814689230123666,0.5862961813821488,-0.15872246901849332,-0.3287110512895952,-0.2898556309709046,-0.4150134928868868,undefined,1497538209737
903d185fccf839df,-0.20105339170427008,-0.18069048338918922,2.3372684383814204,2.182544194941905,-0.7810250260493602,-1.7700179076491138,1.954723512621861,-0.20945389550162138,-0.5640945496408343,-0.22220894912006547,-0.2303361616574657,-0.05218185803635037,-0.2908380681818182,-0.08921893915673373,-0.8233902227972807,0.38709980909668795,-0.4382099130633272,0.12704909467782535,-0.7938322873604415,0.5557302648153658,-0.19241529499641943,-0.370336556912159,-0.30781428974426206,-0.45633134140212367,undefined,1497538211242
903d185fccf839df,-0.2800562877242069,-0.27696105999306614,2.150331143535404,2.0564283981740297,-0.8648946005852631,-1.7383542282763944,1.8479796936604675,-0.8649230143013731,-0.589428602249279,-0.25320676170288264,-0.4497379693970604,-0.01920304558520511,-0.4779690285204991,-0.037372170956719596,-0.8191796876696258,0.5204599162786973,-0.4581393660889749,0.07864007222785145,-0.823820619181606,0.6083159572125799,-0.2188878210520837,-0.33655233460417344,-0.36171722801930084,-0.4413779905709154,undefined,1497538212736
903d185fccf839df,-0.2149135246864276,-0.3039637791346423,2.154797346284571,2.152116196615164,-0.6655886488988129,-1.7125602334143117,1.8143287013040879,-0.9872796954403729,-0.5428141698244904,-0.4389757987665203,-0.42904225159978293,0.0929472199297097,-0.3517644273618538,-0.05218557770223637,-0.8360218281802452,0.5002537777644549,-0.4767936064274535,0.06946363626349723,-0.810176837929266,0.6112108639602709,-0.22044023054626707,-0.33900838013617723,-0.2763302370529561,-0.4595634988827858,undefined,1497538214279
903d185fccf839df,-0.2856002719062504,-0.1947789018000872,2.008054605496309,1.941962833377222,-0.6425178381215284,-1.7169112531738875,1.821955144442683,-0.9356502161794071,-0.4865198425944794,-0.4356960329275407,-0.48356657040971174,0.057611429917340286,-0.7434338792335116,-0.06977635575401753,-0.8444428689866197,0.4153883295283512,-0.47515107213038843,0.10026074226913084,-0.8183631070892897,0.6802112977089101,-0.19688252063971043,-0.3661992968240542,-0.28380470526209167,-0.4727039102825438,undefined,1497538215745
903d185fccf839df,-0.4172716732583858,-0.26287270003815283,2.006778583873254,2.029278043739797,-0.6816651974610051,-1.7078575002122083,1.8117699014864381,-1.005817132431473,-0.5307042144796928,-0.4495373241759714,-0.50055322528505,-0.06054437624623306,-0.7564895276292335,-0.12995554869141393,-0.846548143912681,0.5689544904304382,-0.5071745468318404,0.05433423631524411,-0.8084766136263979,0.6751606074409803,-0.225371836707392,-0.2947609371761098,-0.30701377104156125,-0.4060779447726686,undefined,1497538217237
903d185fccf839df,-0.27312622123312813,-0.25582857851668084,2.212856203065094,2.130233597321298,-0.7166365724651194,-1.731846333036418,1.7817743254693081,-1.2754817930268323,-0.5777701824752366,-0.39795582479829184,-0.46748452025302817,-0.008581003902226093,-0.9349167223707665,-0.07625718235285747,-0.8307586408650922,0.427512001331008,-0.5571915959500726,0.0048992762199361085,-0.7912784526383347,0.6477667734632173,-0.2463978977191045,-0.27530926595009547,-0.36345255943421384,-0.44638298213151983,undefined,1497538218735
903d185fccf839df,-0.2980744260956019,-0.20769329021474242,2.013796575731581,1.8653079027442558,-0.7525233663175249,-1.7452557617344968,1.8464912196624348,-0.9065888293795673,-0.6649141614997469,-0.5372726831918772,-0.32412821856832263,-0.030979466282326795,-0.9610280191622104,-0.07162803159720711,-0.8276007284760003,0.6275521479716611,-0.5407516608725851,-0.01706337325607578,-0.7975825794951376,0.7257906950183103,-0.23813266306692085,-0.31279816757212553,-0.38835097474501656,-0.49397969403047576,undefined,1497538220234
903d185fccf839df,-0.04304780669685484,-0.19066973835725282,2.0508014569371227,1.884794512020711,-0.7277142687977122,-1.7316017616740795,1.8899987321609086,-0.5772967660525584,-0.7391409000687125,-0.6234156258075695,-0.3361102491166429,0.04504096652845386,-0.9697317847593583,-0.06607300406763833,-0.8549692068057568,0.48813016249124114,-0.5128818589700148,-0.04936771898767218,-0.8451049189817631,0.7041250815888073,-0.2701569419896794,-0.33278226874261163,-0.35158302796365726,-0.49211455233513063,undefined,1497538221734
903d185fccf839df,-0.10126039972732617,-0.33096646904822613,1.194590185456443,1.1396377761394205,-0.7242274124423536,-1.690800477911143,1.8973543065902705,-0.514193316600098,-0.5988724149574636,-0.5844816762996171,-0.2648654031911894,-0.016171670085656648,-0.9392686051693405,-0.1577305568315124,-0.7686532955867028,0.8700250752598092,-0.4348211557014192,-0.20983817933294388,-0.7912154814933712,1.0458935790634127,-0.24161839596577958,-0.4098391484438081,-0.821548341530159,-0.29230327577505655,undefined,1497538223259
903d185fccf839df,-0.09710235983267891,-0.4612840032271205,0.5999633467020158,0.37913116943236636,-0.7243199861283282,-1.6993045317094386,1.853239311062977,-0.8679528983483977,-0.46360481731704906,-0.46841686226213003,-0.29949215259080497,0.011575595147003879,-0.9262129567736186,-0.23642649525003023,-0.8412849786842292,1.0458179065598703,-0.39986135360536407,-0.32588937165087495,-0.8332943024482633,1.154883778193897,-0.2778364434058774,-0.4217485678930019,-0.861204749178958,-0.29041627203522163,undefined,1497538224741
903d185fccf839df,-0.2343177798722676,-0.7583138845564659,0.04872149726840436,-0.005056729301879207,-0.6971348891097219,-1.703860522769692,1.8591563704274634,-0.9252062287933458,-0.31691339114657097,-0.491167640653421,-0.21465772176758918,-0.07619618037955632,-0.8304715352049912,-0.34937817775206464,-0.9423377113144388,0.7993038024453726,-0.41017324272791333,-0.4650684747492581,-0.9089648115473428,1.1132155821103216,-0.36216517786200997,-0.43852116677868713,-0.8014498207064575,-0.24758040409939414,undefined,1497538226267
903d185fccf839df,-0.3673751255117993,-0.8117321909295275,-0.041237900088490695,-0.09914857224958568,-0.8822260088713686,-1.7273485731355567,1.8708721558569845,-0.9725005598201083,-0.3079022318412433,-0.6368453759416814,-0.12592247364142126,-0.06044799266753891,-0.7869527072192514,-0.48084660573522053,-0.9897061983705038,0.5548102302146065,-0.45346168626090033,-0.5233885534120972,-0.9394219291222409,0.9698252597030539,-0.4202138333788426,-0.45272903510826906,-0.8343118205047352,-0.21859189582977712,undefined,1497538227741
903d185fccf839df,-0.4935024736710717,-0.7947087559840073,-0.12035124071789388,-0.1989606951833885,-0.8963791274621622,-1.7235379381176283,1.8833742446657231,-0.9083081145079538,-0.2862195312789775,-0.5266277962061728,-0.05633310251314408,-0.05248904660046433,-0.8565828319964349,-0.5604683173214604,-1.0054957087803262,1.0922919488278795,-0.40974995450762586,-0.6303836358782546,-0.9492454519662363,1.1325252325249549,-0.4290136119809503,-0.448411599288823,-0.8770697374946431,-0.25843957232061676,undefined,1497538229243
903d185fccf839df,-0.6972466355412457,-0.8704338661096203,-0.26454244653394476,-0.3331564720154776,-1.0858725213551792,-1.7248772514529915,1.8912557745502048,-0.9136342568670639,-0.2770558666819807,-0.6851041478386002,0.004533441936872348,0.03898494369009822,-0.9566761363636364,-0.6363867225490321,-1.0297062452720558,0.8376953497370746,-0.614617885105612,-0.7512035354828819,-1.0133642266994136,0.8918475288263408,-0.5541749699498405,-0.44947400192320414,-0.7522795815237396,-0.24114646501560555,undefined,1497538230742
903d185fccf839df,-0.5544870932979745,-0.9373535758954584,-0.55292333334435,-0.5735607627116696,-1.1894289194025494,-1.7580246544492915,1.8674428942354342,-1.1500910462549756,-0.2573963362641093,-0.6633621856426498,0.056911500055892676,-0.038388377197133144,-0.9653799019607844,-0.6891592315398318,-1.1033905547892622,0.04561697550355385,-0.7279456807088416,-0.8376988798632813,-1.1182464218264436,0.35584304348090956,-0.736283225201032,-0.43437441706391977,-0.6869920528455168,-0.47488560789847356,undefined,1497538232238
903d185fccf839df,-0.7720914226557157,-1.0148396141034661,-0.8157842959675562,-0.8566390987979091,-1.3947314298577482,-1.746599736178567,1.881975201793325,-1.0954509643775694,-0.29126970650450235,-0.7126755407098653,0.08420838131571264,0.021496750720373246,-0.9566761363636364,-0.8854360210233495,-1.181285384709656,-0.16856734655876632,-0.8066244036813691,-0.948259410273137,-1.1705125992097976,-0.0707708895201067,-0.8944091179103798,-0.4270957080134585,-0.5844853698667829,-0.4570644200464783,undefined,1497538233734
903d185fccf839df,-0.7540732842843207,-1.0101434941184952,-0.8521507851561458,-0.9001012655489226,-1.3445269410385732,-1.772472924836099,1.8939671213003773,-1.0531991024755576,-0.2942506150856185,-0.6749597428281942,0.0917280378101462,0.03476011755779899,-0.8304715352049912,-0.9983877504719416,-1.2223380690742387,-0.5807713823045332,-0.9753713213101082,-0.9904368148821975,-1.1970375094757293,-0.35071462431416917,-0.9874599594656788,-0.42657307778324766,-0.5416760480222544,-0.4476419939450697,undefined,1497538235234
903d185fccf839df,-0.7970396965290091,-1.0254058840696512,-0.8362006419364344,-0.854989760330003,-1.2290699926879995,-1.7277492018044447,1.8891650844629329,-1.001805515753193,-0.2739794583267322,-0.6657696970226318,0.0881794466919692,-0.02923308606565821,-0.7869527072192514,-1.0668994523267548,-1.2297065018665176,-0.7727291470277654,-1.1259353318355454,-1.0983691739925987,-1.1697219595501478,-0.7779752895737891,-1.1273411523593062,-0.4439031388083962,-0.641674823045755,-0.4806938224206275,undefined,1497538236741
903d185fccf839df,-0.2856002719062504,-0.8387349392990959,-0.6109824442618221,-0.6918853851566187,-0.44879700538717965,-1.6850053321396814,1.8476167802587233,-0.8784303964252484,-0.25609796991847034,-0.9894161110932057,0.013643060811791822,0.04208547427237629,-0.6825075200534759,-1.0280144376929234,-1.2076012108519143,-0.5646065336755267,-0.9439365247424609,-1.0597128857747249,-1.1430571140637638,-0.5576235344566149,-1.058000119706425,-0.42116627891777114,-0.5596988561305986,-0.4256153934611751,undefined,1497538238290
903d185fccf839df,0.2286110757967105,-0.6491289779939184,-0.47891407920716633,-0.6283872475307799,-0.3810245494071808,-1.691573787237807,1.8525213663372277,-0.7953945667231234,-0.22813737996407915,-0.9641954041476888,-0.01750779370893106,-0.025835667127750463,-0.7869527072192514,-0.9613543890174443,-1.087601066466141,-0.5302561914748958,-0.8469626707215838,-1.0275921956589227,-1.1150908610630896,-0.5128910508524841,-1.0311377895587448,-0.4244151926547599,-0.5413310354470704,-0.40231711453115965,undefined,1497538239738
903d185fccf839df,0.15515230198045615,-0.6491289195379338,-0.389592565593324,-0.4988811816187153,-0.3328257699180923,-1.7393488136928767,1.8553247441621268,-0.8288230049302884,-0.13332335048616314,-0.9303503135786192,-0.0191836629269793,-0.020200221170535822,-0.7738970588235294,-0.9030268622101565,-1.0591799690789385,-0.3160717704860503,-0.9052477172140189,-0.9874729972024212,-1.0830104830589493,-0.404101032912882,-0.9807162526145085,-0.4289717899485532,-0.5550189877100937,-0.42712380855751386,undefined,1497538241237
903d185fccf839df,-0.6847725158573039,-0.8633896276761789,-0.5433530441029636,-0.6373859566019349,-0.8337392244377894,-1.8414114183417027,1.8943037309061146,-0.9581447722299914,-0.23331772364013673,-0.7404941015965489,0.04036174087082933,0.052823494343410826,-0.7521376448306596,-0.9011752025554352,-1.0591799690789385,-0.22918562784406601,-0.8634319721250393,-0.976504338941425,-1.0866278342944258,-0.4386089493599448,-0.9837341538213522,-0.4318284419767443,-0.5533794972895142,-0.4160212718976568,undefined,1497538242737
903d185fccf839df,-1.028504158868908,-0.9854888641973969,-0.7417745335564737,-0.8036223659031374,-0.9933115339580662,-1.8668420506680647,1.906540213231351,-1.0207738638872415,-0.2613031485812669,-0.6848253112066215,0.08302267206218544,-0.020683107762914984,-0.7826008244206774,-0.9030268686855438,-1.0454957409574108,-0.20897955292544712,-0.8432095915795823,-0.9763650140587159,-1.0940024729339752,-0.453098886901845,-0.9886058772705046,-0.42931536264245396,-0.5505711286079003,-0.4052568164400881,undefined,1497538244250
903d185fccf839df,-1.0770146243064591,-0.9502679643101136,-0.7373083308073068,-0.7913845579021936,-0.9087939607247961,-1.8259965107869105,1.9012990112619783,-0.975063093595029,-0.2270529805645708,-0.7218803963198743,0.0900227801520196,0.03272027301401696,-0.7216744652406417,-0.9196918703319092,-1.143390612734165,-0.4554936923708468,-0.9612001326764781,-0.9965544389673214,-1.1541050780771303,-0.5917002942157847,-1.0469600385405171,-0.4277092176753404,-0.5984329696364598,-0.41894474487460853,undefined,1497538245744
903d185fccf839df,-0.8150579039112236,-0.6866978794177027,-0.41575088179747455,-0.5012208828347318,-0.8309209485885874,-1.7533661729474923,1.8721660128759678,-0.9861255902111382,-0.29358310426512485,-0.38441126912866086,0.05100346793875953,0.07283847692400039,-0.8783422459893049,-0.8993235234745519,-1.1665485191250977,-0.5545035138816682,-0.9623806684307221,-0.9172596497597734,-1.1624172885055317,-0.676822899485098,-1.023687633529078,-0.3598842967432137,-0.5466390855028737,-0.42394294504731156,undefined,1497538247245
903d185fccf839df,-0.3479710083475982,-0.48241648470350573,0.6969409900541874,0.8074578083910396,-0.5236666029104793,-1.6686540736077093,1.9285201200081998,-0.31308710548601965,-0.17758630020779234,0.6151982653121049,0.030340262047393037,0.06572355984945723,-0.843527183600713,-0.6549033968008934,-1.0865484216408767,-0.4069991676823685,-0.7019063387881486,-0.7281326187040267,-1.1238508669838725,-0.5801206630920919,-0.8952355692585692,-0.2828835204707218,-0.4445734926425451,-0.4066093466806572,undefined,1497538248737
903d185fccf839df,0.1842586157483967,-0.2370439816648271,2.889786563575036,2.86901651723042,-0.41595477944257364,-1.6276501460486752,1.8839370152742905,-0.4178150638204837,-0.24192447626130967,1.4053616999471734,0.004536052305760883,0.0509815688310988,-0.9610280191622104,-0.3317873543725726,-1.0254957322311025,-0.43730826946102624,-0.47535489300515416,-0.5753946823618474,-1.0723403456890328,-0.5322160991875337,-0.7851276698212537,-0.2496322277397285,-0.4584980310904306,-0.4099041703135113,undefined,1497538250272
903d185fccf839df,0.3242462694168753,-0.28576628496488693,3.24324480729819,3.4279800336732125,-0.26843731124852693,-1.6465868603598222,1.8541123937664075,-0.5735602782696492,-0.13218263186000379,2.115647754633315,0.056840623028497905,-0.019138842635030424,-0.9958430815508021,-0.15310143197741116,-0.9412850848947588,-0.3342572640576747,-0.45566509478339007,-0.39782527676182716,-0.998838847038047,-0.34196830467552813,-0.6339098240837495,-0.28243382656745925,-0.519657727066359,-0.4277317199319128,undefined,1497538251758
903d185fccf839df,0.18010061035915917,-0.3233353033006404,3.0275971530019135,2.947840853183462,-0.22619395538402445,-1.6662106990501366,1.8494182013926905,-0.667896243472705,-0.25189861453022744,2.4363599015036623,0.0973918655461332,0.022767974619109798,-0.9740836675579323,-0.2456848097121055,-0.9697061970064291,-0.2473711284818708,-0.5443572066491157,-0.22742476261840813,-0.9377776784622317,-0.20823280644571032,-0.49759487610300135,-0.3615308257863661,-0.6687158642685668,-0.4883520465174316,undefined,1497538253245
903d185fccf839df,0.40602112302242416,-0.40727850648798347,3.058859555698284,2.945514186249811,-0.1367598241397137,-1.6704359402462148,1.806854795146558,-0.9178810621201253,-0.1487804191034095,3.2280219680125697,0.17562403795503487,0.07426819434748164,-0.8739903631907309,-0.1429172795937411,-0.8591797345711779,-0.16452615560005585,-0.5271057907291916,-0.15311400077705095,-0.8902343485552101,-0.16654921692466776,-0.43663780485149073,-0.35670961567442006,-0.7157177238669232,-0.48264309085238877,undefined,1497538254748
903d185fccf839df,0.46423368154748573,-0.4460214963639951,3.125212680097138,3.155092429426537,-0.12836669428404393,-1.6780572128081463,1.7343904920931166,-1.4094245048019642,0.01957767525651418,3.3797064160067025,0.28421280897869333,0.07083088981264905,-0.6868594028520499,-0.20865148710993175,-0.8412849713219955,-0.13623764930075333,-0.5494176625377355,-0.15861099817013352,-0.883734311636152,-0.20350548812280023,-0.43957082396494657,-0.4013791578437117,-0.7875579905104199,-0.46384972332255175,undefined,1497538256239
903d185fccf839df,0.7095583113749517,-0.5599025229115135,3.213896564104877,3.148436514957129,-0.12880897594383528,-1.6550396710176423,1.7677390570511773,-1.1279289611938044,0.0918323930429388,3.052448404327885,0.25153196921347915,0.006500685736039889,-0.865286597593583,-0.27994064445104394,-0.823390208072813,-0.32011297557712154,-0.5389044367996215,-0.24504934816690627,-0.8805367687535404,-0.24719087851356833,-0.4953601689436599,-0.37848903202646117,-0.7767995824484522,-0.46101713717496057,undefined,1497538257734
903d185fccf839df,0.5224463780941863,-0.5587285513712554,2.8974426933133652,2.924082417967949,-0.05463881197075388,-1.6555125049013109,1.8806076956120543,-0.4051016741392451,0.06379505526953765,2.2849255945140285,0.15513499839005832,-0.14552223079467613,-0.4083389037433155,-0.346600728741153,-0.8254955124478095,-0.2958657026336118,-0.7133949307694998,-0.30538963236919725,-0.8747853911671732,-0.25387380418727684,-0.5306742661696413,-0.3358046055767095,-0.7731079670595427,-0.47416792932093854,undefined,1497538259240
903d185fccf839df,0.39493287861505916,-0.5411181014276139,2.5127217927568917,2.6435987311904015,-0.12238041488668615,-1.6409827104455763,1.8496943291850907,-0.592759611360016,-0.14750692963016704,2.001913245592211,-0.02999972388863226,-0.1504537443990014,0.12259079768270946,-0.3753015229997481,-0.8402323485834324,-0.3362778807355711,-0.7324335686941446,-0.3458634739663394,-0.8886810575070835,-0.251641028372495,-0.5556653324629415,-0.31868078551916645,-0.8013526209464452,-0.49823241352066255,undefined,1497538260736
903d185fccf839df,0.6194673779801084,-0.4853515596941127,2.6524460334129274,2.7946389298999605,-0.18286031028004962,-1.630978629136988,1.9008756118568098,-0.2501324574050021,-0.12891858473916484,2.176712392834853,0.0009688660902935077,-0.09434723852747767,-0.7042669340463459,-0.3882631891482025,-0.8928639935057153,-0.3645663870348736,-0.7199587821933265,-0.3286442009324739,-0.907404523841266,-0.2755856096817773,-0.5561514375652253,-0.2948504595849589,-0.8222085041117365,-0.5003322351162914,undefined,1497538262320
903d185fccf839df,0.7816310373875807,-0.3380106782536751,2.589920973883238,2.6334239545181726,-0.10708557620261136,-1.6230219475520002,1.905014934555089,-0.19845862744705609,-0.0191370681324179,2.2226854477979936,0.14154292409480213,0.07595355643250153,-0.9653799019607844,-0.42992572725989936,-0.9254956002527546,-0.4049785510044721,-0.7539936793985262,-0.35633816270908575,-0.9304939994467988,-0.27322964653228454,-0.5801831554921577,-0.310053970036558,-0.7661730814976503,-0.5364590968742687,undefined,1497538263780
903d185fccf839df,1.029727590295249,-0.32685739328936875,2.542708173830207,2.625655384011473,0.0801552544541312,-1.6149907318124639,2.0212549858702085,0.6010418721175138,-0.007774871641216693,2.814754470984049,0.1515312324703801,0.17681531341614704,-0.22555982620320855,-0.48547578239241995,-0.945495608979063,-0.4090197702279041,-0.8003910849906626,-0.37603994953714565,-0.9332997206144634,-0.25566001994151394,-0.5908851448353506,-0.3070867486203149,-0.7561676245149856,-0.5551536178950864,undefined,1497538265231
903d185fccf839df,0.9271625372164638,-0.430759106412839,2.8572481392556113,3.0037518265739718,0.16503283170495142,-1.609708018460539,1.9319415131697955,0.07287867130744875,0.0251441407875529,3.0652833337807626,0.18753664468388279,0.20566766201490455,0.549075311942959,-0.49751162357005413,-0.9412850738514081,-0.42720520727008543,-0.7902473591667567,-0.36827575978030985,-0.9148351366130393,-0.2853020262274699,-0.5904590354798485,-0.2745112543564884,-0.7363757747104571,-0.5265780596282701,undefined,1497538266784
903d185fccf839df,0.8952841623466821,-0.22236860671179243,2.905736452657798,2.959703970196886,0.366622205203178,-1.6440270273106325,1.98369083810351,0.4564709837045089,0.21665821285749137,3.043171355404285,0.11143367464931171,0.18336245324107658,-0.4083389037433155,-0.41326073532661484,-0.9402324437506113,-0.2999069218570438,-0.7211052303496737,-0.3226152364753471,-0.9148981078497588,-0.19515952548099919,-0.5471174260321272,-0.30692043173659084,-0.724304085282476,-0.5550679361264358,undefined,1497538268228
903d185fccf839df,1.3235626855602662,-0.2634597734922589,3.013560406874411,2.9843333580123717,0.8141734472750775,-1.6517833930462567,1.9686641306370187,0.5284107041831505,0.2686954019392547,3.56995742069228,0.024531535862111535,0.04852318147221215,-0.9523242535650625,-0.39474404164859156,-0.9423377186766726,-0.2756595782517302,-0.706004603519114,-0.30367340177016766,-0.9419477786561735,-0.12063105043640934,-0.5330981800516504,-0.3875350403092123,-0.6908307589812076,-0.5560638343322315,undefined,1497538269736
903d185fccf839df,1.2251556723761285,-0.2892884334095999,2.9542257826077827,3.233488259903191,0.7507929771187306,-1.6504883366046919,1.8649051286554066,-0.11479397445317208,0.14836510889741575,3.4841956569014165,0.03303720522436813,-0.05774505522982158,-1.013250612745098,-0.3299356850047703,-0.9423377113144388,-0.2554535245316525,-0.6315938133137351,-0.3148130502468302,-0.941325062378042,-0.03506189062609856,-0.5203614263333493,-0.39705673093270666,-0.6162201713362753,-0.5181338191655319,undefined,1497538271261
903d185fccf839df,1.2043653348812533,-0.41843184990827453,3.083742104416329,3.155280398888534,0.4011512752834419,-1.6193091410732086,1.7650724284826267,-0.7892679808269122,-0.08275245174776308,2.9144694409005476,0.055053795138227835,0.010827036414287297,-1.017602495543672,-0.2271681289848568,-0.9128640022320238,-0.1685674030882094,-0.6122452971465762,-0.26475113158437985,-0.9380505553098343,0.014690484322260586,-0.47939269117907646,-0.43021007067806954,-0.6308183502335399,-0.5528443101136699,undefined,1497538272732
903d185fccf839df,0.9285484124930407,-0.4348682698556734,3.050565033943003,2.9569299669474955,0.09199408275306623,-1.6313186991527768,1.7697929246523496,-0.9026092499159613,-0.1449168025964013,1.3990234359351807,0.06224756267375753,-0.027950716579250447,-0.8087121212121212,-0.19476399599065705,-0.8939166383309797,-0.08572245847111595,-0.6254944064015303,-0.24155356047757962,-0.923602140849496,0.026993842072295885,-0.4576538046572356,-0.3751732171959379,-0.6586444263541789,-0.5850295164736851,undefined,1497538274250
903d185fccf839df,1.0089372528003737,-0.41725781991203176,2.988678366430265,2.8893360557216092,0.0965712134840255,-1.6109471740053158,1.7919516763963574,-0.6933880702465991,-0.01532174098709746,0.8762396276142053,0.03764925688861205,0.03856700188267171,-0.8043602384135473,-0.2003189587663531,-0.8739166075179698,-0.05137217279992814,-0.6280278089967078,-0.2545804256496582,-0.9350279333475482,0.04613410876581906,-0.4614063012389703,-0.40681497193920035,-0.6655698938278606,-0.5783319332592098,undefined,1497538275781
903d185fccf839df,0.7733148540820569,-0.3773407415837927,2.9771941718227706,3.0237502978821094,0.22607842500141054,-1.6288031208083626,1.8185942404270778,-0.5575367819113313,0.2121693788784731,1.186088937782624,0.08397271236455006,-0.0005957771331093129,-0.6476924576648841,-0.23642649525003023,-0.883390285787375,-0.08774310341373388,-0.6598328246198996,-0.2675439604603397,-0.9567390368861715,0.022651480873774707,-0.4841959268212357,-0.403136368508029,-0.6564421942063945,-0.5583795528054342,undefined,1497538277232
903d185fccf839df,0.8273693727124712,-0.376753785041656,3.0460990853307854,2.978605119948135,0.2508258139364506,-1.6289917886826029,1.7485546145958355,-0.9839147256612909,0.14020594993767102,2.212933788794785,0.0890579887930424,-0.016431490525323562,-0.7042669340463459,-0.2262423169648111,-0.8465481291882133,-0.03924851512963212,-0.6446273690231031,-0.256125661980182,-0.9248685639668469,-0.056173160409942025,-0.48020604977848974,-0.4028220738205731,-0.6455555678001241,-0.5479899742138296,undefined,1497538278750
903d185fccf839df,0.7649987742927624,-0.31570407909707005,3.6356220917299424,3.6278105002503134,0.3450119423958838,-1.6800207617845602,1.808929701175439,-0.6571945346386666,0.18256189644656767,3.3653201660093752,0.09390970971946044,-0.10478547382548606,-0.6607481060606061,-0.19568976915837913,-0.8486534041142746,-0.1402788402594638,-0.6760877410250672,-0.22881801002811442,-0.9235181793269559,-0.08435231384000855,-0.4813257194491907,-0.3830209917032465,-0.5908402906471412,-0.568774546426774,undefined,1497538280241
903d185fccf839df,0.5626406947316236,-0.41080062570470416,3.720477402594618,3.6381710335579585,0.411241549589615,-1.714852203560674,1.8542018107504972,-0.39758440236254633,-0.0006818305607788604,3.681547517760071,-0.030592283783962376,0.029025510072893685,-0.8913978943850268,-0.2836439961374231,-0.8928639787812478,-0.16250558131924175,-0.7297712499485163,-0.24629693283920312,-0.94533423529788,-0.12347976203623387,-0.5093786059822052,-0.3902389269215319,-0.586418913397966,-0.5426830497260844,undefined,1497538281739
903d185fccf839df,0.8121234334645564,-0.31570407909707005,3.6904910215213027,3.6287079341886472,0.6439451618765761,-1.702789074114832,1.8544411296745809,-0.24681166122683362,0.11612149941132259,3.978729930374599,-0.04796067758762457,-0.09279877972580852,-0.8000083556149733,-0.29938317605066195,-0.9433903708641708,-0.2130207438841576,-0.6978217220888037,-0.30993668448449485,-0.9677590142616205,-0.07161779683077918,-0.5463596747448797,-0.4290086963798017,-0.5598239559454187,-0.5480370703098392,undefined,1497538283241
903d185fccf839df,0.9839892204649486,-0.3562082308794151,3.0958641827668756,3.261944826272752,0.5845658269939659,-1.705069399258829,1.745648679673463,-0.9801000770252454,0.21024477570556258,3.6999059580283267,0.13727000549114912,0.03724050493951146,-0.8826941287878788,-0.28642149695143293,-0.9676009294426017,-0.13421708915230002,-0.6857141405551267,-0.2604827280939475,-0.9836627652007958,-0.010054813498153651,-0.5135922580825093,-0.40963785916116713,-0.5468278711142938,-0.5621890144637567,undefined,1497538284738
903d185fccf839df,1.5051305656481688,-0.32744446674347477,3.033977261117188,3.2943614765020155,0.8118694373828779,-1.6611911919238365,1.6497922585743037,-1.4614655649871244,0.39233735114730917,4.018529534953083,0.2896320161686129,0.0422199572637838,-0.847879066399287,-0.2956798502658318,-0.9939167334981586,-0.1321964442096821,-0.7208361449965006,-0.2617429834151319,-0.9890782966052467,0.022297319576755896,-0.5042335394326312,-0.42162776678503905,-0.6164026104625213,-0.5597401205266552,undefined,1497538286239
903d185fccf839df,1.5785893394644233,-0.3016156899141644,2.8712841229722654,3.0860131221391462,0.8537630830029722,-1.6509495270086174,1.7278291162147321,-0.9583204951430441,0.5296669565210113,3.83707879763478,0.33458765625097125,0.0013506255134511,-0.7826008244206774,-0.33086150997559055,-0.9939167261359249,-0.11805215572912893,-0.7167167978820953,-0.2589058253452802,-0.9732724998744545,0.025546390340852036,-0.5007235345840011,-0.4067795902095589,-0.5877996645878916,-0.5521180923089511,undefined,1497538287785
903d185fccf839df,1.646504129098634,-0.3415327682424034,2.591196995506293,2.8154134585972272,0.7054639087718092,-1.6278877284221682,1.8281115023045775,-0.359238968296386,0.5293080864192636,3.1656301198687706,0.29372649558647124,0.024898383595457426,-0.9044535427807487,-0.3095673672866556,-1.0033904264920313,-0.059454554717349076,-0.693848770508682,-0.29368002017963607,-0.9733494649347902,0.00341882602502548,-0.515662447055115,-0.42075644353710795,-0.6230558090304008,-0.5576703858505224,undefined,1497538289238
903d185fccf839df,1.5647293445039046,-0.4612838863151511,3.020578907006637,3.0855614607453665,0.8168271507973581,-1.625556158347335,1.8081460181719902,-0.40534915933281,0.4635994956126995,4.12960681081072,0.24576753293853884,0.01850346695474837,-0.8696384803921569,-0.3530815423892184,-0.9939167334981586,-0.012980540714061396,-0.726155729064758,-0.27998819391715823,-0.977183717662233,0.018509302050818667,-0.5010768693150114,-0.45194224750125644,-0.6128148844372497,-0.5891983282363212,undefined,1497538290727
903d185fccf839df,1.1544689251563056,-0.38555895155749215,2.784514652604533,2.8885271279216855,0.7632900968979168,-1.6560412425063862,1.788646000872293,-0.6078255366070949,0.4934302487201957,4.2278775581132315,0.23782004737570098,0.016236459413610023,-0.8913978943850268,-0.3216031437104171,-0.9981272907125148,-0.00893939215243323,-0.7197174027591013,-0.284592243527689,-0.9764910334527298,0.01735441783460865,-0.5045800844917933,-0.47165945245186164,-0.5858282980729003,-0.5998675886506841,undefined,1497538292278
903d185fccf839df,1.244559858551149,-0.39025507154246325,3.3472406966456383,3.6544527060743013,1.0537273230188533,-1.664580234056663,1.756772765608795,-0.7170901399849309,0.40510494545254244,5.052817777995678,0.15026599250063052,-0.05470623635870771,-0.8957497771836007,-0.29938317605066195,-1.014969401774199,0.06178190892672494,-0.7191926592107692,-0.31621896445744113,-0.9825572684766918,-0.013873627968832555,-0.5288517050615743,-0.4498279627365934,-0.5891579946907819,-0.6052676504931933,undefined,1497538293733
903d185fccf839df,1.18218926013144,-0.2851792407387732,3.316616177692321,3.5125999736796554,0.7410112814497237,-1.7034016649383525,1.8559401181726198,-0.3072661622118794,0.34935102564175496,4.242537862064504,0.12605356039342994,-0.12003209835624366,-0.17333723262032086,-0.34011986328998944,-1.0181272994388233,0.07996736010126705,-0.7751412092241042,-0.3317536775902632,-1.0082215706622364,0.01659989540782075,-0.541682300367333,-0.4740910666131631,-0.5859827473954324,-0.6000952581926532,undefined,1497538295231
903d185fccf839df,1.1530828428472704,-0.39260310230695644,3.1047965882652093,3.220138207744733,0.46066432320928696,-1.7175238424997028,1.8389568390242201,-0.5205923118566551,0.2048892757777689,3.0925473504763468,-0.023518470981999384,0.015940376136609785,-0.23861547459893048,-0.3595623819388329,-1.0181273031199403,0.0294521551392689,-0.7435380260875832,-0.3379282969947105,-1.015743142795093,0.004635304426890091,-0.5500717326458706,-0.49752155085163136,-0.6269579843811744,-0.6028351309491596,undefined,1497538296742
903d185fccf839df,0.661047638904942,-0.5029620096377543,2.6932787253506842,2.7732927110118384,0.14934712551854568,-1.7280310399106298,1.7995334175899196,-0.9555702031282562,0.09841651678770542,2.808067949499745,0.06389521880392328,-0.055073262075209926,-0.38657948975044565,-0.4354807418386936,-1.0297062563154065,-0.0412690894104462,-0.7851601572478901,-0.3582000492132788,-1.022341134986903,-0.04077471049416889,-0.571719220298469,-0.5040847734951741,-0.6240023760747919,-0.5905588251606011,undefined,1497538298225
903d185fccf839df,0.4808659101368942,-0.5229205780298661,2.2485848085106306,2.473690942449455,0.07450838444819517,-1.7179035065881438,1.765359077583925,-1.209662506527903,0.22150311237479342,2.1634145457104714,0.07200479589908645,0.10555816669414363,-0.5780623328877006,-0.49195664784358356,-1.0370746854265687,-0.14634069029315297,-0.84337824037642,-0.4219094630286287,-1.0235235960189442,-0.14064902752416023,-0.6220690776622553,-0.4905153388084069,-0.7147725571973332,-0.5583499309886649,undefined,1497538299765
903d185fccf839df,0.8121231574212785,-0.5434661029641147,2.3704450005808475,2.651371631797661,0.14716654629540787,-1.710615316711685,1.8086246460686997,-0.8890236322902166,0.3835172034767512,1.9315765758853378,0.20435887022894358,0.02160221441086456,-0.8000083556149733,-0.5188057792097636,-1.0276009850704622,-0.2473711284818708,-0.836365557656141,-0.39436748938109123,-1.010229655677462,-0.24181681574866445,-0.6220232313008747,-0.48784252107419973,-0.7121331426872434,-0.5466677457944428,undefined,1497538301248
903d185fccf839df,0.5931331253140091,-0.5939495097145234,2.8145012878147977,3.073410510832357,0.2633126375818801,-1.6818608593650044,1.855448340734831,-0.499930986200723,0.3014007262286601,2.0402043609210083,0.19558676295738775,-0.0021774232826538738,-0.8391753008021391,-0.5225091179453683,-0.9928641107595956,-0.27768022319434815,-0.8289705077600716,-0.404531864121722,-0.9938641153244159,-0.231191890410073,-0.623986969078968,-0.4565911095997879,-0.7129122221909209,-0.5139346266105591,undefined,1497538302738
903d185fccf839df,0.460075572642019,-0.5493362529453286,3.208792223475708,3.238825641853531,0.18475048850333384,-1.7040911192811277,1.773353678542126,-1.041976594759766,0.2158549164921933,2.239142016488077,0.13398465902536075,0.015756833376690454,-0.843527183600713,-0.49565999952996276,-1.0149693944119653,-0.2352474708115748,-0.799714531210249,-0.3853113783389342,-1.011461094862771,-0.19917852409080603,-0.6102868900631931,-0.47808588336743607,-0.7073191355612148,-0.5283669829604257,undefined,1497538304231
903d185fccf839df,0.3921607830078082,-0.4671540947523497,3.169873436904059,3.129946000910867,0.27613890719425843,-1.7166666824331012,1.7741136964569677,-1.0481833188902068,0.1543069345498971,2.345115664720273,0.0988545145462079,0.03236006424754466,-0.5388953877005348,-0.43733244358343226,-1.014969401774199,-0.23120625158814279,-0.7712730209221753,-0.3802513558368615,-1.0135531409906928,-0.21610141696904342,-0.6064773562429304,-0.4653306478137404,-0.7152596674940674,-0.537054913724746,undefined,1497538305727
903d185fccf839df,0.7192604734732815,-0.4876996781425829,2.8011029337042466,2.8092725999917074,0.4498129023109622,-1.708581892473225,1.771562788144753,-0.9788233398925098,0.3177515597717611,2.5698946883237754,0.05267323591263053,0.037992464257893176,-0.5432472704991087,-0.386411539206562,-1.0002325435518746,-0.20089715687566542,-0.7201437589718968,-0.349403588330375,-1.0252937900883028,-0.1369380083508051,-0.5795477524181448,-0.45403511553925197,-0.7097775926126486,-0.5449815286273639,undefined,1497538307237
903d185fccf839df,0.9867612470613801,-0.5105932046133324,2.6817947848801396,2.6958490785574836,0.41213638915177375,-1.7334511785544477,1.7973927450002503,-0.8609233994995948,0.35531550565662484,2.1199107917126336,0.0042615451722616765,-0.03696135720387645,-0.41704266934046347,-0.3234548584059303,-1.0265483476074315,-0.0028775703834656064,-0.6546210126015187,-0.3400181658779935,-1.044143198002833,-0.07820833770137689,-0.571945128749303,-0.45411618563513456,-0.6802775847179303,-0.5315127444335397,undefined,1497538308733
903d185fccf839df,1.0047793509273655,-0.5657727313487121,2.747510025535941,2.810765762125102,0.5355441824373761,-1.7070562398844584,1.7306903465732661,-1.2167101596728687,0.34963810784895044,1.8351141941986695,0.0611736768584722,0.049180263320442286,-0.45620961452762926,-0.31604815503317196,-1.0876010554227904,0.04359641535510054,-0.5925248577642703,-0.33569909923124547,-1.076517442057677,-0.021311082840870483,-0.5655075777796139,-0.47450399244477537,-0.6993624703706717,-0.5090668851384864,undefined,1497538310240
903d185fccf839df,1.0560619119721677,-0.5692947628814558,2.8272615040453464,2.9497174258095926,0.5033396733140938,-1.7420507296398664,1.8373000555094705,-0.6208577474921473,0.3430751599414191,2.314922935725008,0.09682357291502595,-0.050043550838794644,-0.7390819964349377,-0.3243806574752015,-1.0991800233427242,-0.09380486865325843,-0.563184873730065,-0.329195165210844,-1.0936806189057178,-0.070154947905884,-0.5701337534605346,-0.5136969643019776,-0.6921395873450106,-0.5404858545470838,undefined,1497538311770
903d185fccf839df,0.9091443643396591,-0.5105932922973093,2.9976102636546997,3.0930177229677898,0.29025088972264995,-1.76854582702824,1.904357480022851,-0.3074342117007651,0.27580384649138334,2.229079954001701,0.11808030666748125,-0.21050844080925543,0.1878690396613191,-0.3466006769380548,-1.1097063464373937,-0.16452614146769506,-0.5927191997007769,-0.3526650548225318,-1.0974728899053947,-0.10406232409202923,-0.5926450385731548,-0.5029241843587959,-0.6844354940530579,-0.5381571651900939,undefined,1497538313241
903d185fccf839df,0.5667987346262708,-0.5563804913787699,2.6837089443831967,2.4643772798981862,0.13501915265877024,-1.761779387678876,1.7602914573084585,-1.2967405028400458,0.17579603994795706,1.2862838184276373,0.1480196366675723,-0.2327707566766804,0.26620293003565065,-0.3928924046577256,-1.0823379012376895,-0.17260857991455908,-0.5833350241261166,-0.3291381681142508,-1.077720892782184,-0.08815572934021128,-0.5805011028784418,-0.505556768873483,-0.6396964180653023,-0.5411731710292738,undefined,1497538314738
903d185fccf839df,0.5044280671957425,-0.43134617986694507,2.2855899438531213,2.5458122520787283,0.10637348356789597,-1.7816291635024801,1.808067143447234,-0.9926890135660852,0.3024969905499708,1.158988374685972,0.18136846261336,-0.24902592975598484,-0.24296735739750447,-0.3882632539020753,-1.0549694413135173,-0.22716503236471078,-0.6043325336007671,-0.29917701150453285,-1.0588504931749088,-0.1447604161873784,-0.5714735101380695,-0.48360283007564936,-0.6567971157439285,-0.556089334619008,undefined,1497538316285
903d185fccf839df,0.4101791629170714,-0.4765463639502842,3.019940769126635,2.868419483711153,0.12859058086482464,-1.7757618091058553,1.8685921241104175,-0.5816000249150597,0.23398666132421636,1.4064417591532905,0.1337343851945974,0.02438598259714198,-0.3909313725490196,-0.46881077750836087,-1.040232583091193,-0.21706200550467192,-0.6368982095402906,-0.29333803745612397,-1.0432056240363075,-0.13130217482693693,-0.5672231367727342,-0.47011808887278383,-0.64057429544163,-0.5673556338551168,undefined,1497538317742
903d185fccf839df,0.6568895299994753,-0.448956659038579,3.308322164210939,3.196245242663263,0.24181553416036364,-1.767637423250349,1.8659202343636567,-0.5240993717718291,0.20872435369912046,1.8496427189385631,0.05748035864841178,-0.0057282182366430725,-0.3996351381461676,-0.4391840676235237,-1.014969401774199,-0.22716501823235,-0.6371799832500121,-0.2662393700431773,-1.0357960011282774,-0.17691236824641599,-0.5578191826645861,-0.4660131086918476,-0.6286173720600086,-0.6005676514456415,undefined,1497538319245
903d185fccf839df,0.6624337212139773,-0.4178448349101531,3.2764216236345667,3.1367277417474706,0.10545805260444936,-1.7808372218041753,1.8572944774316151,-0.6399850292725411,0.1887155587343367,1.4695196344663175,0.05679399482627627,0.04114776750600383,-0.47361714572192515,-0.4132607612281639,-0.9718114424835551,-0.17260860817928061,-0.593943946075452,-0.22884333944420432,-1.0060735490930395,-0.1100677166852468,-0.519427853377766,-0.4385640458646676,-0.5920933211043198,-0.6152064749565992,undefined,1497538320749
903d185fccf839df,0.8911260534412153,-0.4454345690498507,3.3102360695770465,3.0496891543424662,0.2673857881809093,-1.7681568432393995,1.8593457267520637,-0.5178249397192829,0.11393201009887316,0.8376407328816399,-0.06623382237676688,-0.011621651923903764,-0.6999150512477719,-0.36882072230245727,-0.9718114388024383,-0.04328974848542489,-0.6227351752503048,-0.17925639013463524,-1.0075988546104364,-0.03332186489058784,-0.4790740293962067,-0.442397243143272,-0.6118165079222797,-0.6183814126759589,undefined,1497538322226
903d185fccf839df,0.6956981783927942,-0.45600086824402797,3.2572812992887434,2.9335451650962003,0.19911962171583825,-1.7696661902344506,1.9250409188326458,-0.13552629335485805,0.05861884980551755,0.597463827300861,-0.009880590782593492,-0.03522745766575946,-0.8087121212121212,-0.28456982110824336,-0.9833904104034891,-0.06349575980842032,-0.5990786074827047,-0.15868698882685292,-0.988966346836002,-0.011332884941376194,-0.46095343884196344,-0.4255636646400476,-0.6085533735619971,-0.626974550271557,undefined,1497538323757
903d185fccf839df,0.5044279291741036,-0.4859386039202264,2.8795781364536475,2.7121453248114404,0.1713070972759109,-1.7975099147397968,1.828053667578813,-0.7946848830827649,0.037455906200746826,0.4085259043787046,-0.014267859238441764,0.12554944996067224,-0.7782489416221035,-0.2419814839272754,-0.9686535595433985,0.011266689832366028,-0.5778051959700655,-0.10518628102781213,-0.9624344401996221,0.06773813476774697,-0.41285680427899507,-0.3900689801259551,-0.5625862381650129,-0.6419513631999044,undefined,1497538325275
903d185fccf839df,0.4850237429990831,-0.5287907572390724,3.5143997834027783,3.338221260163362,0.17001110157361707,-1.8229987796625504,1.9745259704138993,0.061266227681963034,-0.008669019090143129,1.3223738793711672,0.030611066158369105,0.0071453820376277425,-0.7390819964349377,-0.10032891651122404,-0.9549693461463384,0.005204868063398404,-0.5314592035872521,-0.08904360736713676,-0.9616857816315636,0.06872363687832418,-0.39958406085752085,-0.40943556740816306,-0.5642404977053205,-0.6448148515490368,undefined,1497538326738
903d185fccf839df,0.34919430175230043,-0.4982659481087679,3.18327179101461,2.97810150494163,0.11369690583684243,-1.7814008960572065,1.906561262658039,-0.3506025207887668,-0.02720615324853679,0.9764000101067678,0.009039828490377348,-0.020124597274267346,-0.6868594028520499,-0.13365887447624403,-0.9654956766032418,-0.006918775474536844,-0.5588210120841259,-0.11659824628745895,-0.9560463524564539,0.060993616833494455,-0.4136753796746995,-0.4109663788651339,-0.582345987001117,-0.6229271663577745,undefined,1497538328242
903d185fccf839df,0.31592998259512234,-0.568707806339319,2.9803840988119332,3.0404598316678513,0.13710715112809257,-1.7526324641024447,1.8533287317133937,-0.6246521060987482,-0.047173005189800485,1.231261826267945,-0.04300041102260407,-0.035345780234286736,-0.6172292780748664,-0.12069722127856414,-0.91707455944638,-0.021063063955090014,-0.5584196936836149,-0.11976471711848191,-0.9132678498939437,0.12799225148943313,-0.39358624296626843,-0.4023497315050525,-0.6119179771556982,-0.5074960279251083,undefined,1497538329739
903d185fccf839df,0.43096922436866875,-0.5129413230618026,3.2961998317234427,3.1820031576511774,0.14740312608357337,-1.7175541219857178,1.9959615246341218,0.34420742968690976,-0.0548856983919056,1.363815050932193,-0.022775886078565528,-0.0027745724276842655,-0.8739903631907309,-0.08366385982406677,-0.9286534979173788,-0.08572245847111595,-0.515066963626892,-0.05354112338977438,-0.9077893470998468,0.13107194263842376,-0.35608195305896284,-0.4277754826205528,-0.6116230857650412,-0.49043099498202314,undefined,1497538331232
903d185fccf839df,0.3699846392471756,-0.43017220832668696,2.866817920223099,2.767960723162206,0.14068656284665348,-1.6511102443207544,1.8242614878416703,-0.5800748755683023,-0.027239149499110465,1.0032581458934131,-0.0030232715499538643,-0.03423085037858979,-0.8870460115864528,-0.058666404301076315,-0.9212850798495673,-0.015001213921400854,-0.5279830998518366,-0.05506103110702485,-0.9091327347514664,0.24192535000616033,-0.33493329117290194,-0.42737154574702485,-0.6581480372739021,-0.49701458725460096,undefined,1497538332775
903d185fccf839df,0.22168114732727068,-0.32157425830627623,2.745595866032884,2.7348950191262795,-0.12534270419599527,-1.6834517300774339,1.9208253286913555,-0.11037148007246879,-0.06552671219067513,0.6594646142435648,-0.08801978550510595,-0.016655667397585693,-0.7651932932263815,-0.08829303648126621,-0.9518114190327791,0.01530786665871573,-0.5518642707133646,-0.12926413074102994,-0.9335795923216003,0.21072809716261737,-0.3806290129049964,-0.4721756227430416,-0.6924298555130877,-0.44114412975207956,undefined,1497538334241
903d185fccf839df,0.18980270344666944,-0.35738214396368856,2.7143332091995647,2.5364553960432565,-0.2587070475196125,-1.6933044125570023,1.8165877066694462,-0.8987575895908635,-0.012100259296226747,0.8119702831190653,-0.030872221738295826,0.04171414285418968,-0.7347301136363636,-0.17346978854784945,-0.948653514005921,0.1527092354612393,-0.5840746985541732,-0.123342829305145,-0.9236091369936129,0.232131933613569,-0.37250465167581237,-0.43033385023127446,-0.7468858763232751,-0.419602361602889,undefined,1497538335732
903d185fccf839df,0.1260460917287448,-0.4618709305412649,2.5133596764999444,2.557568082541909,-0.3742154197441773,-1.7416174913673277,1.8194331506126658,-1.0600457315352596,-0.1501019531964147,0.7542533930453821,-0.05420843752817795,0.11019571749933706,-0.3038937165775401,-0.1799505892451403,-0.9749693401481794,0.15877108549492847,-0.6431739921520878,-0.1330132346493326,-0.967430163593764,0.2028594905433539,-0.39545412951869047,-0.44733170388559534,-0.7458355051728239,-0.5303694100311566,undefined,1497538337294
903d185fccf839df,-0.023643482500195368,-0.46421901976174273,2.439350422362761,2.3535400274899065,-0.12781126049036406,-1.7391089011686767,1.8119592392175268,-1.0338954612575586,-0.11232859573748716,0.7379461480164773,-0.011203621839016442,0.1682006136515589,-0.13417028743315507,-0.2604981646545241,-0.9728640578598844,0.1951419313145696,-0.6556515560845367,-0.17604558732477749,-0.9942979172684485,0.20393737971870993,-0.41958112508568385,-0.4439520517113335,-0.767739622094131,-0.527712327444642,undefined,1497538338737
903d185fccf839df,0.04149914251594499,-0.4712631997391994,3.0161127042574702,2.887958627568132,-0.04703768381783559,-1.7389598308010286,1.9226924768421627,-0.27352652111638565,-0.16539438498722,0.6474627425183467,-0.08082648879621102,0.07956815620196059,-0.6650999888591801,-0.292902349451822,-1.013916779035636,0.15068864704806445,-0.7170623613833844,-0.2524018922384288,-0.997180604187677,0.16741226796824368,-0.46933154201654953,-0.43341825767060493,-0.7578848066112376,-0.5504746690734664,undefined,1497538340233
903d185fccf839df,0.02348096963914021,-0.5863183147389454,2.5950250603754577,2.5196993540924457,-0.0659839430080609,-1.7362346219499407,1.9063403455493093,-0.41156323228258457,-0.16366599896005732,0.3912665230048233,-0.03345380704703469,0.05395220951105728,-0.9175091911764707,-0.35308155533999297,-1.0223378345664782,0.031472800081886826,-0.6646805099483405,-0.31006967825616316,-1.0149804909478364,0.01724662800298214,-0.5360786951494233,-0.40608414559685196,-0.6762726977044822,-0.5433479189757706,undefined,1497538341738
903d185fccf839df,0.2050488497270427,-0.600406703921851,2.8342794959036737,3.0099604019501527,-0.08518734395807442,-1.798555745787041,1.9435968173097404,-0.2875807058856984,-0.07984006651604664,0.7873067191012648,0.046551969860211706,-0.023997147845206294,-0.8913978943850268,-0.43918413237739645,-1.0402325794100762,0.047637606313811004,-0.7280089074109767,-0.36436200436368776,-1.0497336505661752,-0.006821143198850068,-0.5804045050570215,-0.4115082928447962,-0.678908563273543,-0.5605402126554946,undefined,1497538343242
903d185fccf839df,0.033183131737469944,-0.6479549187696834,3.317253807298424,3.25157043872896,-0.10067760432617184,-1.8040690543728668,1.9568352584209519,-0.20795790851534302,-0.045143236779960405,0.8903605212052594,0.016788747229031124,-0.059055985360497144,-0.852230949197861,-0.3975215424626014,-1.0381273155273656,0.011266718097087564,-0.6637470727866353,-0.346243453454976,-1.0558628567045152,-0.010963325266222745,-0.573666938475729,-0.43010709070181385,-0.6465735505390883,-0.5766727548300071,undefined,1497538344733
903d185fccf839df,0.11772994292863084,-0.6279964088335562,3.559698423952752,3.423943401601413,0.08619294715072594,-1.7926068683507654,1.913125262054756,-0.3852977913621784,-0.08083249420717371,1.5824304172105625,-0.12241817743988194,-0.07731983763232812,-0.5780623328877006,-0.3734498989596567,-1.0328641576611477,-0.11199033396016131,-0.7005694962767287,-0.3803083571966873,-1.0493908066068864,-0.040713121747287466,-0.5978028402364173,-0.40727362474264334,-0.6409312303089336,-0.553389292414211,undefined,1497538346241
903d185fccf839df,-0.015327402710900852,-0.6250613338429493,2.9063745905378,2.7917808430969897,0.029765620763658147,-1.8001303106448112,1.792769557843813,-1.1843832732690762,-0.08464044867730307,1.850942790447259,-0.1458488933254091,-0.050088386132686014,-0.8870460115864528,-0.3253065342491199,-1.0318115128358833,-0.12007280067174685,-0.6273062823929246,-0.3624684550401841,-1.0517767191219507,-0.08228892350989936,-0.5950942943492727,-0.41137785416752,-0.6480983418177072,-0.5630319994508104,undefined,1497538347722
903d185fccf839df,0.10386980994647331,-0.27813506076131655,2.617993703727395,2.3554541342310626,-0.025962282153817243,-1.7235262905774098,1.701662543992128,-1.5992250394760603,-0.2579484531603904,1.5670204335557847,-0.15086605338066147,-0.11177613204153297,-0.8000083556149733,-0.26975649206737384,-1.0339167914430614,-0.07157821238764508,-0.5884459854718308,-0.32589570187604944,-1.0425409282325524,-0.056481127164898205,-0.5671195525939698,-0.4494112777494966,-0.6042583014990484,-0.5216981456631072,undefined,1497538349279
903d185fccf839df,0.4697775967187098,-0.20593224522037826,2.6186318416073973,2.424159476381397,-0.06766049964821182,-1.6805541549809342,1.7806329965274559,-1.0122546871826663,-0.32041456149068404,1.5219209176243826,-0.015061794268299109,0.05010804109503835,-0.6825075200534759,-0.21605811277804285,-1.0339167877619444,-0.031166006020964268,-0.582859764296784,-0.26646102601185573,-1.0277216826734088,0.012642495776250469,-0.5173700527998228,-0.445779230941187,-0.6528829109864364,-0.5195756308325904,undefined,1497538350730
903d185fccf839df,0.4420572617435753,-0.17071122842112565,2.3966035709219473,2.4398096357494925,-0.13847753526306436,-1.6563347259007957,1.700579068631432,-1.4489157236103585,-0.1783030944865667,0.24492426980103008,0.0522338482722656,0.03391484469622013,-0.669451871657754,-0.12254889712175374,-1.016022031874996,0.025410950048197663,-0.5049453596355893,-0.16403199657381448,-1.0079416983800962,0.08402968980759667,-0.4488137660025624,-0.4411550894878427,-0.5683603006575131,-0.5168378072302062,undefined,1497538352233
903d185fccf839df,0.5460085351530346,-0.2740260434584439,2.7392157579176097,2.6285627185922964,0.02303875767601327,-1.661233117373538,1.6773631353712775,-1.5371109038686808,-0.04093076672124407,0.5026396840256477,0.17152081542121403,0.043937827077058,-0.6607481060606061,-0.089218874402861,-0.9939167261359249,-0.055413349626277836,-0.5142615862657223,-0.11890343811269305,-0.9870702115961385,0.09878139971047595,-0.4145352172039143,-0.4103740270881033,-0.5954926165827605,-0.5283832684465668,undefined,1497538353724
903d185fccf839df,1.0047792129057265,-0.2669818342529949,3.2687652397592877,3.2826432913017802,0.5820561080982823,-1.6810828954658983,1.8115910575668006,-0.5181922093727195,0.4880490315522252,1.5500161868616802,0.16330440699778573,0.08943652115757332,-0.8739903631907309,-0.13736222616262322,-0.9897061762838024,0.025410950048197663,-0.538014196899175,-0.11299480243128292,-0.9523730267461983,0.13190345469421733,-0.39344926253410095,-0.40297277004417076,-0.6166676370708966,-0.49132295046897767,undefined,1497538355234
903d185fccf839df,0.8925120667394311,-0.26698186348098724,3.316616177692321,3.4954026662995,0.6210903346669138,-1.66186434287098,1.824358771190672,-0.393705275988021,0.4262515278892184,1.5962997600796531,0.12776314949817658,-0.055499691148065376,-0.8696384803921569,-0.16606308517509105,-0.9991798766399089,0.09815275474636607,-0.541540190711522,-0.103856363796793,-0.9464327345626989,0.19121826485706186,-0.38019619974897384,-0.41044717888782095,-0.5861945407950362,-0.5048708547630594,undefined,1497538356726
903d185fccf839df,0.8245974151268592,-0.30220276336827046,3.245158966801247,3.29773127880538,0.658591991658626,-1.6523703637446934,1.8150834580407191,-0.453635816567563,0.3232135850161637,1.2730859718420808,0.05708436379487371,0.022573531985580566,-0.7390819964349377,-0.1373622779657214,-0.9686535595433985,0.02339030510557974,-0.558025055431285,-0.12269053859233674,-0.9207614355662773,0.22586476649194043,-0.37852313255319653,-0.34948609731330005,-0.6140967759371284,-0.5494523234611288,undefined,1497538358247
903d185fccf839df,0.906372406754047,-0.26756882002312393,3.386797621097289,3.4724908676649733,0.39743814712876246,-1.7042611544829172,1.7902922793147327,-0.7445952905647475,0.25314282216029493,0.7836932259789013,-0.05170469784286296,-0.007381073503962573,-0.6825075200534759,-0.0994030397373056,-0.9549693093351695,0.059761235719385485,-0.4790264330306715,-0.11421705961424958,-0.9203066429143468,0.297852500649581,-0.36043644002832415,-0.3444665363955373,-0.5730478280729928,-0.5816886518314878,undefined,1497538359720
903d185fccf839df,0.7552966121944327,-0.3010287041440353,3.620947461859387,3.5287423559016693,0.3400233865921175,-1.694788137987252,1.810494441568961,-0.6440451489910853,0.17049851243522957,0.5832417373504607,-0.0816266208568629,0.0305261922200972,-0.7695451760249554,-0.1586564465562054,-0.9507588036564498,0.031472743552443755,-0.5445176091313779,-0.15021984494620616,-0.9101752606486941,0.3102328490517575,-0.3716477490496644,-0.3253742815961591,-0.6710867285962927,-0.5892069189594752,undefined,1497538361304
903d185fccf839df,0.5972911652086563,-0.41314865646919735,3.493345299553898,3.445772075114426,0.3079525890636931,-1.6911452078740792,1.7197766522476783,-1.2036051435722834,0.21953307804695407,0.5428882641907095,-0.15645284441150467,0.11395425166782064,-0.678155637254902,-0.21883565244437636,-0.9739167321340839,0.03753462185085445,-0.57040640934554,-0.14575511896156168,-0.9562072798773671,0.21570179193197433,-0.4050342851284965,-0.3693144930287749,-0.6145907185266204,-0.5903201268652876,undefined,1497538362741
903d185fccf839df,0.5529386706549329,-0.4583488113245442,3.447408521123922,3.406829725535506,0.36555248385287004,-1.688352450585985,1.8411842741777538,-0.4844137794886448,0.259864666687192,1.7071655348882928,0.009260330106467743,-0.020726141287961103,-0.40398702094474154,-0.2632756654685339,-0.9591798518250582,0.04157579867720415,-0.6134198981695231,-0.17004195679058653,-0.9343212557976762,0.2156709964276996,-0.4124239477038666,-0.3774252676658347,-0.6321632543383383,-0.6001317589400275,undefined,1497538364242
903d185fccf839df,0.9382506436021898,-0.5070711730805887,3.417421885913657,3.2904300850034938,0.25600981343797286,-1.6988130639319607,1.7894849228425012,-0.7828075182905061,0.300928674908667,0.4561351961560112,-0.13978359490261894,-0.014214829570299119,-0.33870877896613194,-0.18272809005915014,-0.9528640491335759,0.14058564845274713,-0.5679064234002003,-0.14341826261726065,-0.9353777741666498,0.2739541164402001,-0.3863809670374541,-0.3879130509799741,-0.6419232867821175,-0.6074926586284094,undefined,1497538365728
903d185fccf839df,1.121204675009947,-0.5147023680561668,2.9127552069269735,2.8091824599950144,0.2768691994540135,-1.7170533350913382,1.799572855999819,-0.7934423950082288,0.25126611472931326,1.4226910882558341,-0.009855076461478094,-0.1221380201963244,-0.12111463903743315,-0.20679974651286942,-0.9812851502018954,0.1708947290328637,-0.5845359906765257,-0.11923908334692497,-0.9574107306018741,0.2115134168841669,-0.3899579900475323,-0.4063167053091265,-0.6602723275916047,-0.5877191520337883,undefined,1497538367239
903d185fccf839df,1.0117093484076247,-0.3626653374027657,2.7373021066884515,2.6541202624191023,0.07320211429379213,-1.754388710680649,1.77735363187017,-1.0556575193352777,0.0786886163778203,1.00265436186215,-0.16231010573085697,-0.11368196852862437,-0.7129706996434938,-0.14662060537857122,-0.9528640491335759,0.11835897805477302,-0.5661319633582805,-0.10098120494773405,-0.9590130004149745,0.23017633153999617,-0.3757379676070992,-0.42018257487623223,-0.6168481035978616,-0.5720505635418417,undefined,1497538368746
903d185fccf839df,0.7996492447697952,-0.43369421063143826,2.973366106953606,2.871131306544253,0.07987753118163028,-1.7475570527908386,1.7906499286575814,-1.0122369404135843,-0.11973265060017486,1.979974743528264,-0.18183247622081616,0.057401768401294,-0.6563962232620321,-0.09569973985402459,-0.9781272525372712,0.09613225112735584,-0.5169000713844132,-0.10988532545790373,-0.9802903023827056,0.2643454853239587,-0.37505372519976904,-0.46017825337521423,-0.6389889422228576,-0.5730271712632262,undefined,1497538370252
903d185fccf839df,0.7594548591215383,-0.4624579747673786,3.0059047854099803,2.883525474321307,0.08834266252698865,-1.728203403365399,1.7880280195800549,-1.025638844881701,-0.1441184740094589,2.148882032073321,-0.17974690163913865,0.09683567364282751,-0.12546652183600712,-0.09569973985402459,-0.941285081213642,0.0840086075894206,-0.5368568517491414,-0.11179154158784865,-0.9659468398530691,0.2806832373560112,-0.3687589553458203,-0.4476403187946812,-0.673921753743228,-0.5907159492266131,undefined,1497538373263
903d185fccf839df,0.5238323223815825,-0.41256169992706065,2.842573763522005,2.9377985324535962,0.15222712078534195,-1.7007393438975837,1.7665004238098874,-1.0466638139865683,-0.013538821080715673,1.9137998173493402,-0.19746472112848898,0.07133206042943421,0.2923142268270945,-0.08088633310850782,-0.946548231717626,0.04561708856244,-0.4741402057539635,-0.07605474121914221,-0.9767988931007182,0.2654079802271842,-0.358379921318785,-0.4390316788441958,-0.6531770114450215,-0.5738242370554179,undefined,1497538374786
903d185fccf839df,1.0255694123789627,-0.3937771615311916,3.47037691033891,3.1718427674444363,0.290765170863607,-1.6870131367450443,1.7791024619105924,-0.877009751007149,0.14639315045530443,2.114677679584643,-0.06569323056004005,0.016445725980143523,-0.5388953877005348,-0.11791974636610338,-0.9128640243187252,-0.02712480092989303,-0.49438462614279866,-0.07347090011571633,-0.9536394497901446,0.2067552994625455,-0.36213531553539696,-0.4683275421953027,-0.6387440412736103,-0.5816095000152177,undefined,1497538376312
903d185fccf839df,1.1295206857884221,-0.5070711730805887,3.2732314425084548,3.2770557631361323,0.6011875114216133,-1.650611786087078,1.8035780495556373,-0.5702781670820793,0.27671185025652,2.790489517957244,0.06114598167128949,-0.1555507645155126,-0.5388953877005348,-0.14754645625094054,-0.9412850664891744,-0.09986677521639066,-0.5527785419540233,-0.12687661437416609,-0.9755534620798378,0.15715690778396596,-0.40075942044887874,-0.48989435249034574,-0.6781109964133879,-0.5835227746481374,undefined,1497538377738
903d185fccf839df,0.9978492844362866,-0.43721632984815895,3.0409952529755153,3.1382720924225302,0.49735339929613703,-1.6792847226864216,1.7238975553227334,-1.1505235683333856,0.3910079514043626,2.610701852236835,0.0683716084154733,-0.06812736892225789,-0.8348234180035651,-0.1540272569482314,-0.9970746385250167,-0.05339273294838145,-0.5704751947985418,-0.18376544934940117,-0.9866154203205469,0.17885331630041207,-0.4321900438724179,-0.4947691541151134,-0.6475770701086905,-0.5824848263966161,undefined,1497538379245
903d185fccf839df,1.1433807497597601,-0.5563804329227853,3.1679595315379516,3.188444519482042,0.48071115168855216,-1.7198996662790293,1.795620252751905,-0.8138012599751823,0.2132433023291567,2.6543603417609116,-0.033804460549435256,0.06337116458728591,-0.865286597593583,-0.1419914157705972,-0.9760219849734437,-0.07966063670214833,-0.5412832400385664,-0.1664448481591943,-0.9491405010264985,0.1859519976183413,-0.4148975449193376,-0.44302209007939514,-0.6434168934716562,-0.5758357383789797,undefined,1497538380743
903d185fccf839df,1.179417164524189,-0.4712631997391994,2.9497593257216663,3.0346449628348156,0.6970707851417611,-1.7231373077888519,1.825179279822787,-0.5433010049692172,0.18963913304878832,2.4329266907362426,-0.13757127335479286,0.015258866520520884,-0.6563962232620321,-0.13551057622098273,-1.0044430713172958,-0.008939307358268622,-0.5211404589224717,-0.2087172470562956,-0.9724048971975673,0.21108225957700777,-0.4409257595205698,-0.4623367890029535,-0.5673960097251858,-0.6176738944999495,undefined,1497538382244
903d185fccf839df,1.0366577948079667,-0.5141152946020606,3.1162802745988043,3.1357855296838784,0.574773847054292,-1.7449273405165278,1.7441496985080767,-1.1327204860851523,0.13335044903033028,1.9435733896774454,-0.16485811796200944,-0.0036928878655373087,-0.8043602384135473,-0.13088141251455782,-0.980232505376631,0.06582319881196079,-0.5340394134272094,-0.2308255537496609,-0.984166536330198,0.23240910549697913,-0.44860258830026767,-0.4648899500921422,-0.5775939306186029,-0.621153843657764,undefined,1497538383722
903d185fccf839df,0.9285484815038602,-0.4753723047260491,3.1162802745988043,3.0501121191210885,0.47986771631725794,-1.720426072960535,1.8098133188055503,-0.6907421191265328,0.056171974333974146,2.2644220491140814,-0.20027423027929286,-0.004442793905298186,-0.7042669340463459,-0.10588386633614555,-1.0097062218212798,0.06582317054723925,-0.4991248545218768,-0.18087129228941673,-0.9809549997463113,0.21106686102386302,-0.42326731253922734,-0.3906117346757733,-0.6164322711456072,-0.6230139851808715,undefined,1497538385230
903d185fccf839df,0.633327372940627,-0.5833831812923538,3.1941181018790514,3.243003118392682,0.27406120033951586,-1.7070841896478763,1.8546331079462315,-0.4550294709113257,-0.08299449405252826,2.1223714265540186,-0.18844170127427112,-0.08466829282395236,-0.847879066399287,-0.1540272310466823,-0.9749693401481794,0.08400866411886367,-0.4718293634761445,-0.18355012731546344,-0.9661217602901466,0.26628568437489997,-0.41255616130273387,-0.3770610180779794,-0.6177657953467416,-0.5992322299213443,undefined,1497538386730
903d185fccf839df,0.435127264263316,-0.5710558663318046,3.253452980282629,3.196719046938657,0.21966013938262785,-1.682103098772232,1.7510187598204248,-1.056185900098761,-0.12042597556668645,2.266539555953861,-0.2452592648761933,-0.047649889531711585,-0.9218610739750446,-0.15865643360543086,-0.986548285981412,0.08602911120843083,-0.4571717702274304,-0.14615409547074057,-0.9552697066448886,0.23709023544356425,-0.4043183656906553,-0.3592582110277004,-0.556856405714655,-0.5619300925401768,undefined,1497538388284
903d185fccf839df,0.6250113621621519,-0.47772042317451935,3.7995907432240212,3.5956627690375824,0.4052758270705533,-1.6203922352631925,1.8232542773051812,-0.3586736045919984,0.004252497787982869,2.3271801495169884,-0.2519865778718698,0.033988923931963635,-0.9262129567736186,-0.15865643360543086,-1.0002325214651733,0.13048253679854366,-0.45492481786346933,-0.14810464184100727,-0.9830960232934536,0.24135560231473388,-0.41306068318314154,-0.3837793753266675,-0.5296867001292778,-0.5689068583565793,undefined,1497538389732
903d185fccf839df,0.7469805324051382,-0.4747853481839124,3.8659438676228755,3.764840813743341,0.7818454848288328,-1.569966534231182,1.83265845501494,-0.09375129920381985,-0.016723937439723866,3.2672647401028767,-0.14896343121356556,0.04669583167307177,-0.9697317847593583,-0.21513227485644806,-1.016022031874996,0.22343042348151135,-0.4522929093675134,-0.1557485062880792,-0.9828441381080104,0.3684543740843272,-0.3927232808113523,-0.39017790541514985,-0.5308836067760807,-0.5613360612427115,undefined,1497538391245
903d185fccf839df,0.7691569522090486,-0.5152893830542882,3.7855547595073666,3.7535178410124925,0.7271667196304016,-1.584023494723515,1.8135502684798694,-0.22939542975268742,0.14108817408204666,2.577212190285514,0.006543624624709097,-0.06121311579057205,-0.9175091911764707,-0.18180225213755533,-1.0023377890290006,0.2759662875184882,-0.3839975856711205,-0.16681215930773283,-0.9793387361524141,0.43144941379928137,-0.39024744875847606,-0.4055511388853607,-0.4270210188872716,-0.5686467606351009,undefined,1497538392745
903d185fccf839df,0.8966701066340783,-0.5229205195738815,3.6069114781427327,3.7897789815589435,0.669381680594089,-1.6320104806757647,1.798591932498988,-0.4782288865472009,0.13994905877283104,3.040104996935381,0.09558867741000096,-0.0636757598394745,-0.6955631684491979,-0.14847222941866262,-0.9981272612635796,0.16281220579183509,-0.43870182793847434,-0.19150430391540452,-0.9808570438557365,0.45199093909572835,-0.40093377022326293,-0.4512618464341967,-0.41463801024641284,-0.5598455568919647,undefined,1497538394232
903d185fccf839df,1.060219951866815,-0.6350405595830205,3.2343124017998566,3.478131444628044,0.7683815134110419,-1.677505182874769,1.8564634493237657,-0.14955094370271713,-0.013055514935296105,2.6876019447851607,0.07512049778545096,0.00875866712790262,-0.7608414104278075,-0.12254893597407737,-1.020232559640417,0.1931213711661163,-0.4003058992800814,-0.22436595014675456,-1.005716713249243,0.30361151981190904,-0.44055917375040754,-0.4509546198297978,-0.45284264149398595,-0.5536655925230651,undefined,1497538395733
903d185fccf839df,0.9701289494611521,-0.5827962247502171,2.2013722625945493,2.2778564363781486,0.7262615850427749,-1.7019575356864218,1.7293885984416693,-1.011618019114953,-0.019268354797540636,1.6769016888676467,0.13682236418100424,0.018533802690299105,-0.6346368092691622,-0.14106556489822786,-1.0402325757289592,0.24363656199575368,-0.4402233659475616,-0.24446038017489596,-1.026742130135521,0.3713954763972163,-0.4408180771634514,-0.47271862975449863,-0.5273689446783927,-0.5322833509480998,undefined,1497538397231
903d185fccf839df,0.8384575481090167,-0.6080379281254213,2.5829032361618602,2.541989221932445,0.6645474003473217,-1.6883664260638769,1.8170742167748348,-0.45362061318293717,-0.07547388033869086,0.7767871171868413,-0.014222299689412136,0.031684042887556454,-0.6563962232620321,-0.22068727648446776,-1.0528641811119237,0.18503904577813843,-0.5470876345355522,-0.236398542358666,-1.0331652021410527,0.21426974102880578,-0.46078124482119515,-0.4604719534485747,-0.6327214754165771,-0.5428510209104781,undefined,1497538398732
903d185fccf839df,0.5501663680152235,-0.5147024265121514,3.1201085936049187,3.0272742277606675,0.6271588884176563,-1.6965117766035729,1.8890651583473852,-0.028549117789130444,0.004236112736808874,1.0575799505888113,-0.09842747501704885,0.10059418740397562,-0.7913045900178254,-0.23364898148524585,-1.0497062797661827,0.09007045762310975,-0.5817508970752946,-0.2356449225482831,-1.0550092454411222,0.10469440173871443,-0.47787662045045437,-0.4435221462608891,-0.7332740854026202,-0.510103604480685,undefined,1497538400238
903d185fccf839df,0.5903609606959387,-0.6033418081404502,3.2942856722203855,3.355386766061921,0.3393959495202829,-1.7221730051845043,1.8635849681022978,-0.34055078871100203,-0.0012020516288847962,1.4879268368546947,-0.16585393769272125,0.00120304650102651,-0.7129706996434938,-0.27623735751853745,-1.023390464667275,0.007225484741294791,-0.6412865831929525,-0.22994527455635674,-1.0213685788561655,0.09482399906923245,-0.4702815010477419,-0.4419192624044685,-0.7885487722577013,-0.4939460318929562,undefined,1497538401781
903d185fccf839df,0.9119164599469101,-0.5792741347614887,3.0307873341280254,3.1540710640997904,0.365315908361824,-1.7280566626995086,1.8330686972844967,-0.56952651087244,0.01077528077672886,2.6224973393207565,-0.11691452656939326,0.0237008484601505,-0.7303782308377896,-0.34660071579037843,-1.0128641415726054,-0.06753704969365616,-0.6807105373650407,-0.21886262467118717,-1.0149315123908431,0.014259332682733666,-0.4797599008079964,-0.4522349199667781,-0.7803237516023193,-0.5066969625873271,undefined,1497538403234
903d185fccf839df,0.850931736803778,-0.5710558663318046,2.621822022733509,2.6779447704661483,0.4166621020343109,-1.7194897188724232,1.8280852134357568,-0.5959058141792978,0.1171363712283494,2.2390806236297367,-0.04431998155571479,-0.024678227444576546,-0.7521376448306596,-0.3623398957036173,-1.0023377890290006,-0.02308359583882179,-0.6504774610918177,-0.2868024444477849,-1.0197803022427414,0.08098079791886492,-0.5100653506886217,-0.44964102558233526,-0.7203296374687319,-0.5248013349753421,undefined,1497538404743
903d185fccf839df,0.3297901155772799,-0.4653931082139702,1.8479135105974962,1.6484283600383516,0.05094386041911772,-1.70325957804486,1.665726251116437,-1.7284472103112896,0.08321791043267308,1.8082413563582003,-0.11290062643519855,-0.056257191910537865,-0.7651932932263815,-0.26883062824423,-1.0128641268481378,-0.13017582753178572,-0.5685547567948042,-0.23779179364957517,-1.0073679596129408,0.007160648335784773,-0.49609921748140573,-0.4439497911240424,-0.6993564764263293,-0.5426606231741774,undefined,1497538406278
903d185fccf839df,0.33672018206835863,-0.232347861679856,2.1445889191631826,2.3095986156354944,0.0042673650379690155,-1.6274731229602533,1.7925539076746635,-0.8049347499366881,-0.05131890063584642,1.5383493731983766,-0.04445807425095559,-0.06799027987012433,-0.9740836675579323,-0.24846229757534077,-1.0118114893851071,-0.16654678641031298,-0.5624729157149286,-0.23953335236357803,-0.9839636274262015,0.0025565133492796285,-0.48962861345253245,-0.47031643399536566,-0.6926289351629252,-0.5233877229218284,undefined,1497538407779
903d185fccf839df,0.31038592940225934,-0.2523063716159832,2.3328027439061523,2.6140730783165678,-0.08417933879652002,-1.589033689102465,1.7850458109295406,-0.8155598764900596,-0.01503456063831918,1.1072129409704305,-0.013334889381366122,-0.025660251955220453,-0.9044535427807487,-0.2716081420090144,-1.0033904485787326,-0.16856743135293092,-0.6125037833879046,-0.27552980314068737,-0.972160007177511,0.0488596362349622,-0.49847905466824616,-0.4620382646213625,-0.6993437441255455,-0.5347526032344477,undefined,1497538409223
903d185fccf839df,0.34226430427204113,-0.057417187643736184,3.100330131379093,3.061992054929127,-0.20555055787889362,-1.602480389792248,1.7936636873551266,-0.8342562650595229,0.03000535631580529,1.0953016636948667,0.20241935025184313,-0.08272946003118564,-0.6302849264705882,-0.30956735433588106,-1.0339167803997107,-0.10188733536484398,-0.6026439187174578,-0.29509859807400873,-1.0244191885880258,0.016153340166783013,-0.5257774143832954,-0.4713317008001805,-0.6976990357645382,-0.5532281169032691,undefined,1497538410738
903d185fccf839df,0.4711637480385645,-0.20651920176251495,3.1105385585004814,3.0401238046855106,-0.025005715227994663,-1.6724763561876017,1.7273163097769302,-1.3674605143366434,0.09150658222531304,0.9487852320910489,0.1647323718910843,-0.04436497222841963,-0.7129706996434938,-0.25031396046775584,-1.0054957014180925,-0.11401097890277923,-0.5832443199474608,-0.28412360551285204,-1.017632282337385,0.009270233759911236,-0.5187305818736533,-0.49024651958864657,-0.682221885401964,-0.5324952605221938,undefined,1497538412231
903d185fccf839df,0.4836379367333257,-0.28517932842275023,2.408725649272494,2.4205083723964442,-0.1153038561884449,-1.6508027861664998,1.73376196592274,-1.3728559238600044,0.07161171331149985,0.6363327685701804,0.20952403747135515,-0.031689361958643074,-0.7782489416221035,-0.34011987624076395,-1.0276009997949298,-0.18069099009670156,-0.7124732385407329,-0.35693979123449493,-1.0459763633150283,-0.03352204574491201,-0.573220849972706,-0.4814410535668667,-0.6782200407513537,-0.5135552447528076,undefined,1497538413759
903d185fccf839df,0.1371340600928319,-0.18597364760027404,1.853017851226665,1.8378206074931687,-0.1893403085486639,-1.637698484878051,1.6931945742203833,-1.662541008809285,0.1684584662170207,0.2049908973730373,0.15714501667721642,-0.010388891652683209,-0.8304715352049912,-0.4410357693682624,-1.037074681745452,-0.10794914300145084,-0.748074637035778,-0.4238536751928581,-1.071759611212072,-0.02782462165675088,-0.6139752851390303,-0.4607548405672291,-0.6757055587986305,-0.5073940596081871,undefined,1497538415288
903d185fccf839df,0.16346858880220907,-0.23528299512644762,2.0137968298685305,1.9172442213762195,-0.1744980449094213,-1.6060068573202577,1.7796625959068049,-1.0320261688300147,0.1640231712963168,0.6608032677585324,0.1133870210614846,0.008623837726664078,-0.8130640040106952,-0.3984474062857453,-1.0707589296366387,-0.19079404522146196,-0.7594918679659651,-0.3929425778066646,-1.0790852719675046,-0.06627453823987728,-0.611580812544381,-0.4493331935259284,-0.6876432157521449,-0.5088059056969327,undefined,1497538416737
903d185fccf839df,0.5071999557705351,-0.21004123329525862,2.47061333333303,2.249338169099106,0.11887061482007055,-1.6080752201111967,1.7207864993965232,-1.2529107899197764,0.15608123344703567,1.1048217271649323,0.11220777063474933,-0.08164571645785335,-0.8348234180035651,-0.39566993137328454,-1.0465483894637921,-0.19483527857725472,-0.6711114496450015,-0.38206891403856585,-1.0603618063551354,-0.006959726825037693,-0.5928372145223337,-0.42410468713451877,-0.6552496909577824,-0.5034368423875819,undefined,1497538418239
903d185fccf839df,0.7261904019427213,-0.31276903333445544,2.558020687443815,2.4442814692999355,0.22105901713983986,-1.627566291588485,1.7659139682097977,-0.9227333162559719,0.17264550391112513,1.7198058984904507,0.039071027306079115,0.0907612573612547,-0.7477857620320856,-0.3364164857020611,-1.0518115362866594,-0.0796606084374268,-0.5729166506660922,-0.34689574568483067,-1.061824139748839,-0.005789445105743048,-0.5724620957597916,-0.4180099391452051,-0.6738393464729319,-0.4938443419221512,undefined,1497538419736
903d185fccf839df,0.9146884175325221,-0.4243019414335037,2.9293432338897376,2.6953903245339874,0.3783890335408225,-1.6260662633297926,1.8273883207554995,-0.44253624266668107,0.09065053038661446,1.0686154752481019,0.013268364468078477,-0.05733997867831776,-0.6563962232620321,-0.2558689750465501,-1.0623378667435626,-0.061475199659967,-0.6061806832934475,-0.2608500406155795,-1.0588994728819099,0.003326437250533542,-0.522507992258228,-0.4119433910729153,-0.706810027173487,-0.5157626852837353,undefined,1497538421240
903d185fccf839df,0.8883540268447838,-0.41256158301509127,3.117556804495758,2.807062610918434,0.1674602369610173,-1.6273962612830042,1.7544296083657622,-0.9762401692100489,0.1867726769590242,1.068210783414732,-0.010441152482864188,0.002508514780242388,-0.4779690285204991,-0.21790978862123245,-1.0728642045626997,-0.05945458298207061,-0.6130075444713455,-0.18872414613126554,-1.040427891659766,0.045010026946586186,-0.47212127722522423,-0.4411492747464878,-0.7107276196887344,-0.5315125317068278,undefined,1497538422746
903d185fccf839df,1.110116568624221,-0.37323157814095836,3.1641312125318373,3.1872377149240934,0.12866258663562824,-1.692635923545792,1.9139220911948387,-0.07064897145575134,0.2540246651850633,1.2634112734827427,0.08744108934526426,-0.15732573084034437,-0.19074476381461675,-0.21235477404243822,-1.0297062599965234,-0.027124857459336103,-0.5391853628626082,-0.12555936587081148,-1.0088652777461387,0.03848108603697389,-0.42722447520187057,-0.46343941383389725,-0.7450814112219075,-0.5373161918636331,undefined,1497538424244
903d185fccf839df,1.1863472310152678,-0.48241654315949045,3.9240029785403476,3.687661644222713,0.40662326962082235,-1.6957431280961321,1.9244965364216486,0.10082943200740255,0.1503309460076236,2.138805074850777,0.06246483487570084,-0.13803284373292135,-0.5911179812834225,-0.14569472860465277,-1.0002325435518746,-0.04935154198967098,-0.5329737439631876,-0.07375588794069166,-0.9833339152486356,-0.030734923538159868,-0.4011383405518063,-0.4713193214141167,-0.7025363873517526,-0.5584670698051788,undefined,1497538425736
903d185fccf839df,1.1877333823351226,-0.3796887431202936,4.089886043674433,3.7906838442347235,0.5894618281787235,-1.6672099487800345,1.9021247771440966,0.08828912745054554,0.16536443298999282,3.0163099458011704,0.08174034969234514,0.015695212145764727,-0.7042669340463459,-0.09107053729527606,-1.016022024512762,-0.059454554717349076,-0.5584508597613358,-0.07956952988772745,-0.994976607917369,-0.046040979738773594,-0.40540162084419334,-0.4980428662288579,-0.6799320550328837,-0.5773600101959048,undefined,1497538427312
903d185fccf839df,1.0227976618258092,-0.3532730682048312,3.5507665267283173,3.4749490479421414,0.6077909375805661,-1.5974119663650093,1.8095161627987786,-0.3106749762955256,0.1407628046411367,2.3451847629036076,-0.07182980463518261,0.02299834134840724,-0.6259330436720143,-0.20217062165876817,-0.9939167482226262,-0.06147518552760623,-0.5576037673824741,-0.09950563446915113,-0.967703038881516,-0.005620062165447122,-0.404239205588073,-0.4972284481569162,-0.6364365581989042,-0.5635180521443195,undefined,1497538428740
903d185fccf839df,0.6568898060427532,-0.2781350315333242,2.9369991094911176,2.7131552333982865,0.1823436483817145,-1.494503849383695,1.8199117779856149,-0.17841124346110404,-0.21872254207089603,0.7609009544998349,-0.1546503707944188,-0.028851756996665957,-0.6955631684491979,-0.07996053403923666,-0.97602197761121,0.005204868063398404,-0.5482078732931819,-0.12357081873241067,-0.9587821047874213,0.0625950491557182,-0.4053571799292387,-0.46729386656687066,-0.5999462274868228,-0.5918101781823379,undefined,1497538430239
903d185fccf839df,0.40879314961885566,-0.2640467300343956,2.7602699876295405,2.4051702634071175,-0.03933369822441053,-1.497590090210714,1.6887502136994745,-1.022549198233357,-0.2252517913173016,-1.029345082373796,-0.18817002335440405,0.026493161497849554,-0.865286597593583,0.023732846951497064,-0.9791798605513666,0.18301837257079898,-0.4755246081615976,-0.10198814653590563,-0.9682138057574262,0.09704137390765374,-0.39125643101347923,-0.4621941751919621,-0.5080184007763059,-0.6234307338139106,undefined,1497538431752
903d185fccf839df,0.5113582026976408,-0.33096649827621843,2.903184917685587,2.677887334481467,-0.09279875139035967,-1.5894646004974124,1.7226983738472461,-1.0631177596738928,-0.18729731083680953,-0.9805161500351125,0.06510261359764381,-0.0434289020644126,-0.8174158868092692,-0.03181719523024899,-1.012864119485904,0.10623530625211623,-0.4942521717211343,-0.10695950529623867,-0.9975584310696923,0.179115087530557,-0.3922715755715205,-0.46387646641936436,-0.4763035296888291,-0.6171622501506007,undefined,1497538433235
903d185fccf839df,0.7525247236196401,-0.40434343149737656,3.4958973428000077,3.300389109119623,0.2175310078956966,-1.6862444892695974,1.773969077693142,-0.8490666730177854,0.07151667923450007,0.0475506986327583,0.11235187147756288,0.014015358736179649,-0.9218610739750446,0.06539537211241933,-1.0118114893851071,0.10017342795370554,-0.4942521717211343,-0.09896099807948248,-1.0079766828259713,0.23219352797423345,-0.3753523369601831,-0.4559969603114952,-0.5235159577567627,-0.6150971793205414,undefined,1497538434737
903d185fccf839df,0.6582756123085105,-0.4248889564316251,3.4320962616472634,3.3585495386231536,0.34948622425856873,-1.6869595666087376,1.711695263061329,-1.2745958999331035,0.13822282350532858,1.3026596253445761,0.1541328142489834,-0.029816501824100117,-0.9131573083778967,-0.07070220662638686,-1.0118114893851071,0.025410921783476127,-0.5051568185220264,-0.10320407199879826,-1.0150364652329869,0.12746869897279772,-0.39860016501881795,-0.46235767672342976,-0.574054707963598,-0.6113109427165112,undefined,1497538436241
903d185fccf839df,0.6319413596424113,-0.340358767474153,3.220914555963204,3.1819223945464414,0.4283363799520406,-1.7172280303104945,1.7144434150134915,-1.3117074146856669,0.2135922606964867,1.8482650469468407,0.03555447849592991,-0.07483388820030536,-0.847879066399287,-0.11421639467972418,-1.0402325941345436,0.0031842796502235537,-0.4686063989546869,-0.11781417363835464,-1.0435064889226346,0.09628684530166587,-0.4240545295107628,-0.47220446234604524,-0.5025237465138881,-0.5948735426633063,undefined,1497538437742
903d185fccf839df,0.7525245855980012,-0.4401513463827812,2.9331712987589023,3.1970270190536394,0.34947594536530213,-1.693621189635622,1.6793170895581035,-1.510263955998999,0.16364374394576287,1.6729946512582001,0.09391126537256612,0.007144664904018804,-0.8174158868092692,-0.10403221639450505,-1.040232583091193,0.025410921783476127,-0.4677579257781605,-0.11646525736037347,-1.0402249846337073,0.07639205607365618,-0.42386713388911934,-0.4728865017968983,-0.5265413485924387,-0.5928932163199452,undefined,1497538439262
903d185fccf839df,0.7566826254926484,-0.4401513463827812,3.448046150730025,3.6262709702805256,0.4326152328007939,-1.6887670562331878,1.848326839535024,-0.30858436339244194,0.11087273451009665,2.0029471469768674,0.06549967077971555,0.0036402937896016976,-0.7564895276292335,-0.05218552589913818,-1.0170746619757927,0.02339033337030128,-0.4502628724124594,-0.1236214827967399,-1.0271059639524356,0.10680398607239365,-0.415898947141849,-0.46408972133469384,-0.5684857424388019,-0.5925468609268598,undefined,1497538440783
903d185fccf839df,0.7511385722997854,-0.44191244983313,3.428905826384202,3.4353663477924705,0.4865431350295716,-1.664528992902255,1.8582438352053243,-0.15172571257182244,0.1417614132809728,2.5685600464246,0.036133782127560424,0.09242342998595408,-0.5519510360962567,-0.15773059568383604,-1.031811520198117,0.15877100070076386,-0.5059418693731004,-0.1596749329515486,-1.0206129236301569,0.14172766042534546,-0.42640442482555413,-0.46018131517237354,-0.6022321233240678,-0.5827854986253057,undefined,1497538442239
903d185fccf839df,0.9437947658058723,-0.41373572992330343,3.6158433753671675,3.4816758080523957,0.5387327572215679,-1.6499922118048047,1.7428584637307594,-0.7348347033971824,0.23146318665524018,2.1514322022100765,-0.03562105198118241,0.04060787929946482,-0.5954698640819964,-0.1558789068898719,-1.013916779035636,0.3002136311238017,-0.5197623080863848,-0.1291058149613308,-0.9950255859421784,0.2276201878458123,-0.3921101327216299,-0.46503790667004297,-0.4968184513564377,-0.5954773587419789,undefined,1497538443737
903d185fccf839df,1.1544689941671251,-0.4659800063001222,3.797676583720964,3.714657665702352,0.7495689704548825,-1.6583215693306583,1.8530736355398112,0.028490490045921454,0.40293369439637317,3.086640204313414,-0.04443097939856932,-0.010528973010093519,-0.6389886920677362,-0.11143886796416524,-0.9844430552287534,0.3830585757408952,-0.46393641193066343,-0.11707322019147978,-0.95000810423557,0.23117722774769356,-0.38059413263494557,-0.466554538511679,-0.3692733843020369,-0.6081484542862597,undefined,1497538445250
903d185fccf839df,1.3097024835672892,-0.4501306598068294,3.768328340527651,3.791925625905732,1.1101752344515534,-1.6326976064611265,1.9441490838935196,0.8187868336213324,0.22601567947902468,2.5971905202089207,-0.07872964063704811,-0.020348659249521592,-0.6868594028520499,-0.07347968153884762,-0.9854957074162517,0.45175921774507466,-0.3985277596180761,-0.07758731516148422,-0.9463977500250677,0.2938950960369564,-0.34847985708796814,-0.46699908987866334,-0.34546568786745857,-0.6242355077159978,undefined,1497538446741
903d185fccf839df,1.3291068077639487,-0.4501306598068294,3.473567091465022,3.667681353707258,1.2267636099604848,-1.634707739848604,1.7698902457121355,-0.29607618429778,0.1002779345250235,4.0087381696866125,0.044364969902242174,-0.032802261404108864,-0.865286597593583,-0.11329058265967848,-1.0149693944119653,0.20524501470405154,-0.4390474485937142,-0.1230958487262029,-0.9637988189383975,0.24960916737769254,-0.38699936136993707,-0.4531621928825268,-0.35927883301460023,-0.5877486197627821,undefined,1497538448234
903d185fccf839df,1.1156604837954451,-0.33683661902943995,3.164131466668787,3.220505546365654,1.1148655162621273,-1.6791286605687321,1.6490033191064923,-1.2136611632137815,0.3171357545085524,3.6015644183229805,0.03788902656613612,-0.006717131131444876,-0.8957497771836007,-0.2040223104527323,-0.9918114880210326,0.1648329496609784,-0.5170401781631194,-0.16478561702091415,-0.9613359414180512,0.2302379219965907,-0.41072790874204274,-0.4750945931793081,-0.42920572359040415,-0.5746213581440127,undefined,1497538449740
903d185fccf839df,1.3346508609568117,-0.4207798514447754,3.5022774509152823,3.4783645822625946,1.219172761060927,-1.673999675666946,1.6857127791762234,-0.898501814461108,0.37743737098030344,3.6388170243374605,-0.03447588218625663,0.008328614387996203,-0.8783422459893049,-0.16421143523345055,-0.978127259899505,0.11633836137687663,-0.46099141312545555,-0.15521653841568162,-0.9629731949674476,0.20618555318466167,-0.41046654511097513,-0.457743693388785,-0.48658914248292906,-0.6027503251634118,undefined,1497538451239
903d185fccf839df,1.3471249806407537,-0.49826588965278323,3.761947978275427,3.465653992878837,1.2186378904511854,-1.6571033726835653,1.7966379908824226,-0.1737035309662696,0.44031531001113655,3.1108225555057842,0.03163106951318079,-0.03412856197769845,-0.8696384803921569,-0.09199637521687085,-0.9865483227925809,0.07592619740727811,-0.35756655463754744,-0.16049187949127594,-0.9728247046940433,0.1513208935269345,-0.4242220200345938,-0.42614405029003755,-0.5444051855554785,-0.5601172834296818,undefined,1497538452737
903d185fccf839df,1.2639640447261695,-0.45893588477865027,3.946333484012283,3.6565199596697417,1.1719716867666379,-1.6437242225763211,1.8063840498513475,-0.062256574228201106,0.34853256469463106,3.7400144748866446,0.03169337969953461,-0.0836944230262584,-0.8217677696078431,0.013548668666277923,-0.9812851354774278,0.07390552419993866,-0.33497725063192935,-0.13389985010277689,-0.9755114802174967,0.2730456051836988,-0.39133539737512957,-0.4188558498324645,-0.5102422914201209,-0.5424518872168496,undefined,1497538454309
903d185fccf839df,1.3263346431458785,-0.4548268382477852,3.917622870425073,3.8806571284216456,1.4665129068801508,-1.6319871868329956,1.8028075187120713,0.05143713339944865,0.2946709972606741,4.086131235766034,0.07065384474487452,-0.06941464017052654,-0.6999150512477719,0.03947203981551045,-0.9560219394359664,-0.0372279125840965,-0.35113780235042463,-0.09891033643467634,-0.9747138436490973,0.2574623788363129,-0.3709928627668687,-0.4437491077289745,-0.610566135979001,-0.5420786045810512,undefined,1497538455740
903d185fccf839df,1.556413126692971,-0.3532730682048312,3.839785297281775,3.5332911394671216,1.602222391649195,-1.6319359432431177,1.7596182150515034,-0.13409374959467463,0.28058133483268544,4.285528623743003,0.001766553946050452,-0.05502703755925242,-0.7260263480392157,0.05984035753362509,-0.9318113661330678,0.029452183403990438,-0.36930368319419604,-0.10797911186375156,-0.958775108001013,0.23354859340825013,-0.3757189444269532,-0.44223499753989365,-0.5987021860094347,-0.5531994274042771,undefined,1497538457242
903d185fccf839df,1.4995865814661253,-0.3908420865405846,3.2138963099679274,3.1739961772944647,1.3697965074359852,-1.6777940063990457,1.7081949925561728,-0.7237112594090468,0.41715430681693055,3.2861428753821533,0.03402448243874998,0.03587542041182135,-0.8217677696078431,-0.01978131520029116,-0.9560219541604339,-0.01904244727719363,-0.40393864681708513,-0.11842213617601774,-0.9627003186275611,0.22467908702723957,-0.387944664840745,-0.4157015546431537,-0.6133448149757481,-0.5646668601515642,undefined,1497538458742
903d185fccf839df,0.8952842313575016,-0.41784477645416845,3.289819723608168,3.319808924276435,1.162344282484753,-1.6848306388318435,1.7639573960041284,-0.46944996350856905,0.20915130850221944,2.7341092219527017,-0.20665600330287945,-0.013427474062135819,-0.7129706996434938,-0.07255390837112556,-0.9865483007058795,-0.017021802334575706,-0.48446222184821147,-0.13604671648682976,-0.9839706241881416,0.1618534307776114,-0.40802507385723963,-0.4361425915377847,-0.6787683498215199,-0.5547756037677483,undefined,1497538460244
903d185fccf839df,1.3485109939389694,-0.49063469467720516,3.1545614315643498,3.268687121880181,1.0594564579517187,-1.6652836652182876,1.847424815081095,-0.07238680734250623,0.10746648010815683,3.6355905887803597,-0.08969748314012285,0.0038698534531090415,-0.847879066399287,-0.2827181582158283,-0.9970746311627828,-0.09178430850480512,-0.6354472317176006,-0.1944491220886753,-0.989155261396432,0.009224037790843718,-0.46695736328045656,-0.4783281096521786,-0.7325092428077802,-0.5587908648899642,undefined,1497538461737
