UUID,iqrAccX,iqrAccY,iqrAccZ,iqrAccXYZ,meanAccX,meanAccY,meanAccZ,meanAccXYZ, covarianceAccXY, covarianceAccXZ, covarianceAccYZ,pressureDerivative, pressureIQR, iqrGyroX, iqrGyroY, iqrGyroZ, iqrGyroMagnitude, meanGyroX, meanGyroY, meanGyroZ, meanGyroMagnitude, covarianceGyroXY, covarianceGyroXZ, covarianceGyroYZ, class, timestamp 
903d185fccf839df,0.7303484418373686,0.13629784942029868,0.7744597483944335,0.6675706103550724,-0.20988618190503097,-1.4824103607138834,1.8500746765462333,-0.24755307246499175,0.6758708289440144,-0.2006507461826776,0.13613949830186822,-0.4521404183565673,-0.6955631684491979,-0.44381324428072316,-0.7581269651297995,0.7346443513999035,-0.4989975898810757,-0.2837871687935404,-0.694067385530035,0.8240423790942101,-0.3079654138966802,-0.54065111945491,-0.30546005564896583,-0.3406980646925671,undefined,1498060765101
903d185fccf839df,0.11495791633219933,-0.22178162094166337,1.015309020348756,0.9486760069346057,-0.45219963603118374,-1.7259435996116619,1.8343232445891147,-0.9014575967323921,0.19362380244677513,-0.7282185129066024,0.20782362556468997,-1.0751189221287896,2.8773326091800357,-0.3151223689146753,-0.7654953905598447,0.6477581168975742,-0.7480419725417776,-0.3695919610666761,-0.7680222176933751,0.656921137835828,-0.38046672341758203,-0.5665526918354115,-0.5647804964319002,-0.4267254897390601,undefined,1498060766519
903d185fccf839df,0.024174028046362688,-0.46539307898597787,1.2711513557712617,1.2483148499104113,-0.6857037954758681,-1.8069755277036181,1.8664646869317547,-0.9064712798562805,0.09589669004684717,-0.8689942827947817,0.10943639730882193,-0.630748955930048,3.647615864527629,-0.24661068648602394,-0.823390208072813,0.8336540315871173,-0.42888221648022096,-0.2704534272831659,-0.8337056505850559,0.7330026735155176,-0.34820724723207025,-0.5134464475604508,-0.17280034313827256,-0.3736047272177208,undefined,1498060768014
903d185fccf839df,-0.13729671097552598,-0.5352479222184077,1.448518488444366,1.4926942177428055,-0.824224961665026,-1.8715051880705793,1.9398493515641322,-0.5680406025432051,-0.26705184301198387,-0.7406263734619791,0.025788889080107076,-0.4933223325193488,0.9668560606060607,-0.022558816014301007,-0.8970745212711364,0.5346040069061996,-0.3853483358436755,-0.11538493372539181,-0.8799131864121031,0.6949588740740392,-0.2821146889776665,-0.5558238694380264,-0.3334330995874691,-0.43122159233462004,undefined,1498060769506
903d185fccf839df,-0.21075551929719008,-0.4970919181125251,1.7145696321936843,1.6083482749439764,-0.8318980896992137,-1.840789510290401,1.8779805408072647,-0.8810351629021095,-0.4490482155415819,-0.6768261781759468,-0.19908293862079438,-0.1598839957706772,-0.7651932932263815,-0.029965571190157584,-0.9097060972051657,0.5507689403293707,-0.4550950031070264,-0.10505836329894536,-0.8806891091628798,0.6240008308339847,-0.29002645359210066,-0.502771983089691,-0.3692179400126666,-0.4850623515070719,undefined,1498060771026
903d185fccf839df,-0.5378549682247953,-0.3462288882273745,1.759868272743658,1.7950543174812592,-0.8668180273438247,-1.7720559910627645,1.938182047788006,-0.38618963557809566,-0.5178554197687244,-0.7213158348156915,-0.06975802962439888,-0.01812396547941456,-0.7608414104278075,-0.06699885494000767,-0.9265482303535514,0.35679067198712827,-0.4777154043455169,-0.1084857457246266,-0.8738897980353222,0.6111184688584933,-0.29817063535959754,-0.5009599527154021,-0.3848755105916058,-0.46642345285862363,undefined,1498060772560
903d185fccf839df,-0.6445780611982276,-0.28987544840772134,1.6730985482389762,1.7319694239927776,-1.0972382159965341,-1.678732693361912,1.9378533202600066,-0.3559954781037994,-0.4448915692304095,-0.6613558653802536,-0.01551584285468019,-0.11150832942027565,-0.8696384803921569,-0.07533138328358631,-0.9423377334011401,0.2739456991053133,-0.3997016307892088,-0.12780755718886605,-0.8948452472104423,0.4518831451850221,-0.3443030660391342,-0.48620119836119985,-0.3109551819068581,-0.49037952316336186,undefined,1498060774004
903d185fccf839df,-0.6348759681107173,-0.24819726662913347,1.544858248053485,1.4895414953833614,-1.1739592307526134,-1.6221251921877626,1.8658071423395022,-0.7574461334035103,-0.3856156194178007,-0.8735370545790128,-0.030037587074612584,-0.03267939886169361,-0.7260263480392157,-0.028113830593095253,-0.919179804923506,0.07996728943946321,-0.5702465279646554,-0.1523793787014403,-0.8703913938570981,0.28944494442792945,-0.3705408351677548,-0.5158428413204277,-0.4825268512046586,-0.5112077471097285,undefined,1498060775528
903d185fccf839df,-0.4228157954620683,-0.24643628009075397,1.836429824263901,1.7203187087076888,-1.0460257351772326,-1.6806659610220842,1.955244216850228,-0.19548374421786585,-0.4293559053201488,-0.9797148835352646,-0.09584055980899182,0.007592092528066816,-0.7129706996434938,-0.07996053403923666,-0.9391798283742822,0.04763773350505792,-0.6377398683789266,-0.1424239911187733,-0.8838742490403955,0.2782656731416237,-0.37508520576985666,-0.5024254580744789,-0.3783400699469417,-0.5258748572067728,undefined,1498060777006
903d185fccf839df,-0.2939164207063644,-0.578100104765246,1.9327693297360704,1.9207683883637645,-0.9296739305181388,-1.78824653214352,1.9254932246017176,-0.5373112473645626,-0.38306870077016447,-0.8607524939723094,-0.094616158673285,0.047916936158302816,-0.5911179812834225,-0.04200134761391904,-0.8907587333041217,-0.015001213921400854,-0.5676594658908374,-0.12792788250970324,-0.8640802712966068,0.3887803176308633,-0.3544555699620449,-0.503976039123635,-0.3334688733370506,-0.491028525762023,undefined,1498060778522
903d185fccf839df,-0.058293952977228114,-0.7225058819870842,2.108222684111542,2.046446344750893,-0.6009327639447265,-1.9232911641244674,1.963036340749599,-0.3651001858182137,-0.37796544307123825,-0.8120965878248154,-0.11186126349663619,0.0988458039788252,-0.6433405748663101,0.0487303542775857,-0.8844429158881718,0.31839901163654,-0.48358843861249606,-0.07076040326142215,-0.8602530158755226,0.5070403790891377,-0.3008736922643394,-0.5202485696436218,-0.23067606360346174,-0.46098282184275824,undefined,1498060780005
903d185fccf839df,0.4157232161099344,-0.6209521996281072,2.5701425116574126,2.425465226017715,0.18613905850176105,-1.8080194445176356,1.9596044461820192,0.1379667328832426,0.193316826932757,-0.30482745256818444,0.415853079020894,0.0882787507119537,-0.8261196524064172,0.1894570967228168,-0.8349691686305132,0.43357373830581103,-0.32914871553981134,0.1407915797669463,-0.8135073207384846,0.9231679700008057,-0.1013687032658316,-0.48539634268123294,-0.3253733798106356,-0.3728923489237044,undefined,1498060781516
903d185fccf839df,1.2847543132102253,-0.5223335922597371,2.4176578006338785,2.460107813208478,0.7057621910391575,-1.764476646625202,1.928446504890371,0.2598155975006944,0.6106654858854504,0.30143525864678294,0.5660730739977349,0.002617500963128063,-0.8087121212121212,0.2644496705041809,-0.7360217035641311,0.47398590227540954,-0.28326571053651617,0.3247319298180292,-0.7421048658153987,1.1901000211794541,0.052742880281180675,-0.5191337959489092,-0.43963433855936623,-0.3257884962921032,undefined,1498060783021
903d185fccf839df,1.5508691425109276,-0.4965048738864114,2.6262877172087773,2.523944291526509,0.805235166211956,-1.7619587386777897,1.9431865721594987,0.41434290557279,0.49239687055061465,-0.017385254892973163,0.6245857828737295,0.014090955269723064,-0.7129706996434938,0.19964119730338867,-0.7412848098947125,0.6053254493089655,-0.31166544578267286,0.3660670523587932,-0.7216182037703509,1.3664584149102768,0.10371161872534604,-0.5494022033093369,-0.44700691435708045,-0.3296507066969004,undefined,1498060784528
903d185fccf839df,0.37275680386524607,-0.7178097327741209,2.3430104086166925,2.471350540623278,0.5220802100333283,-1.8959831630848953,1.8920079255763746,-0.28755242429847555,0.17543130481881858,-0.27839334954847833,0.45743565536644765,-0.08879706312821561,-0.7651932932263815,0.28944715192872045,-0.6381268391496108,0.6861497772481625,-0.26034710136253175,0.2971899565026916,-0.6629499437558435,1.3801168337594645,0.08729863927990822,-0.5609860542796924,-0.4814865040557126,-0.23992432214024373,undefined,1498060786004
903d185fccf839df,-0.041661586366180677,-0.7547917361117529,2.4508348711072045,2.2090505766123614,0.41257867506867385,-1.97829847728864,1.9304136156890486,-0.30990346196060997,-0.2706017575678528,-0.5814255431575497,0.03490603846447037,-0.032822875903048866,-0.7913045900178254,0.2996313043123905,-0.6265478565052093,0.643716968335946,-0.1375656773066378,0.2423086690416193,-0.6281618014716944,1.347456732758378,0.06393053714897204,-0.4987187751829048,-0.49657052862786066,-0.28062184295591425,undefined,1498060787504
903d185fccf839df,-0.023643689532653774,-0.6849368636513308,2.258155097752017,2.025446270604313,0.3754164519107499,-1.9293588329878202,1.88073131627776,-0.634521356108987,-0.35536363121823483,0.20957320749937455,-0.04407908954170982,-0.014936095222378005,-0.865286597593583,0.14409120692474078,-0.6212846839145237,0.3668936423177241,-0.2430472692153874,0.17789630096404196,-0.6758870493790688,1.0230114849165284,-0.04593241470705137,-0.4903275328808884,-0.4440858609738652,-0.25749551287363215,undefined,1498060789007
903d185fccf839df,-0.19273744993661449,-0.7019603570528357,2.6428759983084906,2.4043687675923464,0.4375626326449758,-1.8734920304281284,1.9264636315074992,-0.20839625474147522,-0.3352632011661595,0.05383357831529857,0.00005332157709582427,-0.06919681747483487,-0.7347301136363636,0.0431753785511151,-0.6276004792437723,0.2517190287073392,-0.388981448822921,0.019477713628332106,-0.693917830714647,0.8658857490903991,-0.15793133543569243,-0.504061040735374,-0.42763896930913403,-0.32589197318810487,undefined,1498060790516
903d185fccf839df,0.15515244000209508,-0.6708485329244098,2.2045624437206612,2.200645352392315,0.5494710218009141,-1.8753600796239625,1.8344966902548328,-0.7723845234344613,-0.3210645151947646,0.5235959712214586,-0.010743106903301422,-0.02288375854435251,-0.7782489416221035,0.014474519538647269,-0.6065478625033683,0.11229707149164078,-0.3998850421826754,0.034543786299111014,-0.7102413898292923,0.7235579196477847,-0.17905910479575082,-0.47117459781434345,-0.4247007753281294,-0.3696109408526193,undefined,1498060792078
903d185fccf839df,0.0927817035607473,-0.6321054845924136,2.3704450005808475,1.9783803705526455,0.7520992553392346,-1.8999149184338784,1.8191333574697777,-0.8120422486155472,-0.27810423105423643,0.08071405804388637,-0.020969424648813736,-0.05884737349353207,-0.7173225824420678,0.022807047882225907,-0.6476005026945483,0.11027642654902287,-0.4559375001865397,0.05405558626191904,-0.7342964254275625,0.6717421534942664,-0.1860826610762546,-0.43681553764857356,-0.3723381798237059,-0.46970039518803264,undefined,1498060793502
903d185fccf839df,-0.02087152491458333,-0.6737835933010206,2.2587934897689688,2.130420630291503,0.5524538813800074,-1.9554206889886456,1.7955624028370742,-1.1282895356950933,-0.19527415527691783,-0.032975328085770896,-0.07922140574364261,0.1232520512094631,-0.5998217468805704,-0.005893914736438296,-0.6981269095019389,0.13654441509695436,-0.49131903045871916,0.007457783871042541,-0.7274255554216542,0.7213097512167368,-0.19554341162238953,-0.4050484998637222,-0.4517363930270117,-0.4713947366764462,undefined,1498060795027
903d185fccf839df,0.11634386061959562,-0.6702615179262884,2.07887393264433,1.8097830933056063,0.17369337293125772,-1.970858886026281,1.9339007120363634,-0.3721580184455727,-0.19919187490557164,-0.8478999677057563,-0.07180102469149537,-0.06887068751579616,-0.4605614973262032,-0.06514720499836717,-0.7033900747303906,0.19716257625718753,-0.5161973259701708,0.0012958288258303546,-0.7176510100641665,0.6321835492294142,-0.20952425045152495,-0.3959754915350172,-0.4195123030101351,-0.44931350354061117,undefined,1498060796511
903d185fccf839df,-0.09017225883619041,-0.6585212033498645,2.016987010994643,2.002074840550055,-0.47666096556018717,-1.9645000635210157,1.941245767251871,-0.5334467137355057,-0.24163954690916686,-0.6339381887584167,-0.10156726409920179,-0.06505008859491095,-0.2212079434046346,-0.10495811906997257,-0.7412848687925828,0.2739456708405918,-0.46716495748657283,0.0160705875712756,-0.7365983739487937,0.5490011493114031,-0.21835921150516274,-0.4013403410026707,-0.46756269398956485,-0.39805789851727147,undefined,1498060798012
903d185fccf839df,-0.19689542082044229,-0.7236799265973232,1.9582897621971682,2.0035720009114435,-0.4514198699210598,-1.9854259484821042,2.0778615593725593,0.3463418105190359,-0.3231799764834401,-0.2606872998947613,-0.09216382632791364,-0.11774841280283378,-0.04713263146167557,-0.06422132822444873,-0.7728638454388252,0.22747176989619025,-0.5087719765567283,0.0475896493443786,-0.7315326834613173,0.4414122112474454,-0.21143329516465953,-0.42563441648095945,-0.5030071826004878,-0.4782587333346569,undefined,1498060799511
903d185fccf839df,-0.004239296325174835,-0.7665320799161691,2.36342726285947,2.3104339914090173,-0.2533893448734333,-2.0079892893744313,1.949582242136585,-0.4395762849138565,-0.3726328635057082,-0.4437283496689321,-0.04658711211310584,0.0773893178839472,-0.865286597593583,-0.07533140918513541,-0.8328639010666858,0.25373970191467865,-0.5733805165911464,0.08447271388071267,-0.7572249734225531,0.4430906391220909,-0.1978480078878841,-0.463064376242524,-0.565634142042471,-0.4777809476754273,undefined,1498060800989
903d185fccf839df,-0.13868275877915148,-0.7841425152458146,2.5407942684640994,2.550070791920407,-0.39756396119589055,-2.0155546578430217,1.9475862118799818,-0.5149918056785225,-0.3611230795621433,-0.02892357029780826,0.012171678729671781,0.15482467898742905,0.13999832887700536,-0.09199643997074358,-0.8076007123874581,0.21130692126718376,-0.5475281505402506,0.08449804881132171,-0.7755916031911259,0.419838980615169,-0.2146633572659775,-0.48955699956283766,-0.3687869239043802,-0.46248835609236727,undefined,1498060802493
903d185fccf839df,0.21336489501092748,-0.6432587549427238,2.0150728514915857,2.051411401479147,-0.28738357730454056,-1.9347766421337422,1.934831659319929,-0.4344536271033387,-0.15401866248285095,-0.135489760927771,0.008234885693999638,0.18389478018832398,0.37064811720142604,0.039471975061637715,-0.7791796260436061,0.1486680586348896,-0.5270313795099262,0.05328296865032352,-0.7466038162857049,0.668061923040182,-0.1756225496573177,-0.5201843799211979,-0.31242628478390355,-0.5633405267385082,undefined,1498060803984
903d185fccf839df,0.6402575084425253,-0.3456419316852378,2.247308786887576,2.112263013133344,-0.29724755911000117,-1.7827262363741585,1.8374946609657805,-0.8380068743602547,-0.22711200480618077,-0.00785681141692809,0.021425870672868812,0.12739164032657596,-0.6607481060606061,0.0302137253534352,-0.7633901450827187,0.18503898924869536,-0.5101099572077172,0.002537090586888581,-0.7437701077460753,0.72616025601277,-0.19497019761019505,-0.43223126150987334,-0.14382209717520264,-0.5627174578841554,undefined,1498060805525
903d185fccf839df,0.4656196948457015,-0.26932989424548043,2.3136621654233798,2.119896929778668,-0.3240623701149827,-1.7374132175586479,1.8383283118063216,-0.8110478161553519,-0.2516781696197451,-0.43796931552359497,-0.039242629231017845,-0.045840140380860296,-0.7608414104278075,-0.004968012060970762,-0.7739164681773882,0.16281231885072123,-0.537947692155085,-0.06424380072374965,-0.7708687566323527,0.7152735551360948,-0.2435130371693709,-0.410184173534655,-0.12191468627710168,-0.5125196800832436,undefined,1498060807023
903d185fccf839df,-0.1123485061130522,-0.3791017865781569,2.271553451862568,2.0581598076805747,-0.7683839080180277,-1.7835205078693568,1.842112608418204,-1.0158470895915503,-0.3315651707850312,-0.6512164403663623,-0.0635581456838139,-0.060978747532015466,-0.8217677696078431,-0.09940305268808014,-0.7602322400558607,0.18099775589290257,-0.6412593870327132,-0.1667804923691428,-0.7866815491891749,0.6767158502964321,-0.3082833221523626,-0.3799346915567551,-0.06952076626358397,-0.5199823121838985,undefined,1498060808527
903d185fccf839df,-0.6043836065391514,-0.5557934471526562,2.080787838010438,2.092496286381147,-1.0191183441146168,-1.8717101621220331,1.9284938465903254,-0.6986490825546031,-0.4254053028218586,-0.4102066294108715,-0.08337550976251806,0.015008869088919753,-1.0045468471479502,-0.13551055031943363,-0.8044428147228339,0.13654433030278976,-0.6462388365533018,-0.19722928561433672,-0.8166768770443493,0.5552375184786168,-0.3503199570468259,-0.40141484602685573,-0.2933801170764241,-0.5396989803624276,undefined,1498060809994
903d185fccf839df,-0.48795848948902815,-0.6115599304301726,1.816651107901126,1.7864567177500597,-0.9653344346065443,-1.9178197816443252,1.936212326041257,-0.7178020028899036,-0.4455518713564484,-0.25261815455535047,-0.0434830288986389,-0.03887535245155029,-0.7956564728163993,-0.25586896209577553,-0.8128639070648449,0.11835894979005149,-0.7247903632287629,-0.17980735532655517,-0.8261155745927825,0.4045329303514339,-0.37703380164178063,-0.34468798974506193,-0.3616424963805889,-0.5076664734085474,undefined,1498060811497
903d185fccf839df,-0.38677941520304904,-0.6315184988222845,1.9142668891333,1.9487821534872836,-0.8550409080457708,-1.9349722992573182,1.9386317399902022,-0.6790292600270085,-0.43845235664830773,-0.2902741089500544,-0.0287731934183476,-0.004201134996831225,-0.6650999888591801,-0.2660531662825438,-0.8623376469602697,0.029452126874547364,-0.7170309946180637,-0.1663181853989069,-0.8554811896219825,0.2737539351685443,-0.3982076542343003,-0.4340175833261312,-0.6376455377311423,-0.5624741836244849,undefined,1498060813026
903d185fccf839df,-0.33549678514742726,-0.7090045370302923,1.9091628026410803,1.943026472561688,-0.8076444196854433,-1.9837139593721362,1.9865047241432845,-0.38311327864330286,-0.4751843593108461,-0.47801293345383195,-0.012070115414069932,-0.04034372049485566,-0.7738970588235294,-0.20587394744359827,-0.8781271058344557,0.039555238528750834,-0.6947976549777598,-0.10502162361187008,-0.8731061560307034,0.21630233594887632,-0.3810971287922856,-0.41753821022011167,-0.6486073126241649,-0.5305225850588746,undefined,1498060814522
903d185fccf839df,-0.6722983616679524,-0.7489216153585314,1.9321311918560682,2.027335426693387,-0.9952246775742547,-2.000885110558196,1.9176327389063148,-0.9034275344300048,-0.47441683480791264,-0.44985066920964456,0.018384471007139015,0.028483952091200734,-0.9392686051693405,-0.20031891991402948,-0.9233903106022258,-0.04733091117941383,-0.6732412238818996,-0.05546633884905143,-0.8907870975687293,0.17549645750863885,-0.3665240262863789,-0.41569074910983195,-0.6734971880712421,-0.5287316527367819,undefined,1498060815991
903d185fccf839df,-0.7346690290984808,-0.8152543539882366,2.214132478825098,2.1876060074286143,-1.0924245083061463,-1.9981156447716308,2.020839472732865,-0.25877376571157706,-0.41532592889625547,-0.5851218469736233,0.03206471062972564,-0.0039463658093226005,-0.9610280191622104,-0.26883064119500455,-0.9297061206559418,-0.09380481212381536,-0.7739939446180866,-0.058328829701285854,-0.876464625404435,0.18502809397443315,-0.35984855102548,-0.461292702579336,-0.6661864878408481,-0.5574688279574396,undefined,1498060817484
903d185fccf839df,-0.5863654681677563,-0.7935347406017607,1.9417012269605052,1.8875272291780056,-0.9959240985591999,-2.0217946897198953,1.969663452286878,-0.6054393455901228,-0.38061566414818304,-0.6547724499040668,-0.040940711108310976,-0.06453825700671396,-0.8913978943850268,-0.2725340187829328,-0.9570745842612307,0.049658265388789695,-0.7083401011451986,-0.04912073051898113,-0.8800609861705789,0.36970164741158706,-0.3241584412739657,-0.5356914027318402,-0.6263585707469067,-0.47707571749374605,undefined,1498060818987
903d185fccf839df,-0.5018185879657759,-0.7647710056938126,1.5461345238134894,1.5882654160481386,-0.9891972507155257,-2.0156315228500143,1.907105626737405,-1.0008259238193489,-0.4096001365952562,-0.646690027306166,-0.016236530381848156,-0.08856286946573814,-0.5084322081105169,-0.3132706801207112,-0.9233903106022258,0.08804975615104875,-0.7160226136527299,-0.09171610861900635,-0.866809026737176,0.3547035588813667,-0.3430441722092593,-0.5228718425209528,-0.5812372709703346,-0.5250787450399554,undefined,1498060820487
903d185fccf839df,-0.2010533744515652,-0.7718151710572732,1.559532623787091,1.6072614083344434,-0.862364320120062,-2.0280091000183766,1.8838292116639124,-1.1055374161617113,-0.4337548205871033,-0.6026298391887446,-0.09109369545831356,0.03181487938456317,-0.5606548016934046,-0.3577107190464178,-0.8633902549743652,0.28606937090797013,-0.7032491359133067,-0.11585095739987034,-0.8365618137393777,0.5160792638197966,-0.32174797630625585,-0.5291675664196456,-0.5522849259658023,-0.521101362847122,undefined,1498060821989
903d185fccf839df,0.051201201098045525,-0.8005789790352019,1.3209165802758265,1.3025300393791743,-0.7140857102851532,-2.0343679232915224,1.9382556817612275,-0.7210221578510213,-0.40743039968265543,-0.5485222308161654,-0.0079190390680708,-0.013007094322218981,-0.6389886920677362,-0.3567848940755976,-0.7949691438156625,0.39518230407299504,-0.7096509511499829,-0.13289924225556285,-0.7871293457336908,0.560642363298948,-0.3065747170962528,-0.4780594252673698,-0.5774067625086285,-0.5959377340804125,undefined,1498060823488
903d185fccf839df,-0.027801591405662095,-0.8146673389901152,1.303052277553058,1.306714149091896,-0.6065281789405612,-2.0136842790659344,1.9696029620933662,-0.5039911024419947,-0.3458128834050821,-0.5461173952442496,0.10367764227019817,0.010060383747009117,-0.6085255124777184,-0.29105064770708333,-0.8065481043733627,0.4133677693798979,-0.6337544553900963,-0.09344500281321093,-0.7685598094100728,0.5772880821936553,-0.2740474684335894,-0.44709089389086076,-0.6246969756551445,-0.5412337930316934,undefined,1498060825027
903d185fccf839df,-0.08878617652715519,-0.739529360774593,1.1390831177850804,1.2662124090596447,-0.5517979831043766,-2.0144016849407422,1.9338691622512134,-0.7736524621543329,-0.28919499693379824,-0.04240931012202067,0.1258487069642025,0.024345715380273948,-0.6476924576648841,-0.2642014645378051,-0.7897059859494446,0.36285243722665284,-0.5775055020553066,-0.10328639769759125,-0.7719742538886412,0.45898182533173054,-0.30264684847022993,-0.42043977080254974,-0.6205397810690925,-0.47830971911567666,undefined,1498060826490
903d185fccf839df,-0.2107555538025998,-0.7994049490389592,1.5614465291531985,1.6754231470574237,-0.5501522714021756,-2.029574350183502,1.9632467234554076,-0.5705026692486725,-0.30919161785620647,-0.5208165439776121,0.17103542373900021,-0.10605326976304473,-0.7521376448306596,-0.22994562979886665,-0.7970743819305548,0.32244030152177583,-0.5672512702015424,-0.11468569675983004,-0.7665097432604369,0.5363744165738664,-0.29572871980408955,-0.43759399068744237,-0.6257358064986934,-0.4625542183833334,undefined,1498060827985
903d185fccf839df,-0.1289806656916412,-0.8393219835252097,1.7649723592358777,1.7975029372815854,-0.6801120538213141,-2.01753917050289,1.9138642268765838,-0.868252678842095,-0.3190198497177783,-0.7371791416535741,0.05858625166710904,-0.008415078091049277,-0.7564895276292335,-0.15032393116340131,-0.8370744361943406,0.21534801329936887,-0.5625521313172687,-0.15104946130432115,-0.7950427372508937,0.378894514429277,-0.3438247171664552,-0.48214983365047265,-0.5867606475332002,-0.45973037244159076,undefined,1498060829503
903d185fccf839df,-0.04304770318062563,-0.8563454623127185,1.9417014810974547,2.0335834387438156,-0.5470871421709225,-2.011438892338508,2.0226645615742442,-0.062237943658127785,-0.3717547774133216,-1.211022343692429,0.09664319869006513,-0.034570923816545855,-0.8000083556149733,-0.18272809005915014,-0.8307586408650922,0.43761494339688223,-0.49868327196358025,-0.16988996878331888,-0.813052528159959,0.6381889303931311,-0.3092690403140119,-0.5109376335664777,-0.5894828676098485,-0.41953132023094075,undefined,1498060830982
903d185fccf839df,0.1981188177413737,-0.7888386206167896,2.1177924650790296,2.1681692921565885,-0.5052037863109244,-1.9950480361531635,1.9017697518433407,-0.8299040959256705,-0.28084575455090055,-0.606676848513147,0.12029861628972913,-0.011710981164815141,-0.9610280191622104,-0.13365890037779313,-0.8707587098533457,0.4376149716616038,-0.5050771099129601,-0.14680638872487864,-0.8497787881702528,0.657991334037216,-0.30652263574555,-0.548505671649083,-0.5551405026016071,-0.4632352267836329,undefined,1498060832495
903d185fccf839df,0.2729636393612535,-0.7976438748166027,2.0871682002626617,1.8790547832402682,-0.588271068783823,-2.014226992104052,1.9960114861860834,-0.247036544050463,-0.2533893325843241,-0.9425829069267586,0.13091259732999996,-0.03269931442233888,-0.9349167223707665,-0.07162805749875621,-0.8760218603573298,0.47600649068858436,-0.3955002662109984,-0.08728938376237896,-0.8664032104706823,0.8714753845316174,-0.2516012980917255,-0.4810804617200107,-0.4019241815413036,-0.4342092713901899,undefined,1498060833998
903d185fccf839df,-0.156700966161366,-0.7853165452420574,2.0520774785601774,2.0680049090410666,-0.8322066537025689,-2.0250486377829433,1.934287306763303,-0.7525055194578503,-0.186064763481462,-0.5698162022435284,0.006316725168349242,-0.09937960188782133,-0.8957497771836007,0.021881145206758372,-0.8423376235094937,0.44367682169529293,-0.34244067697327574,-0.06250224282363669,-0.8420403151571358,0.8134078423649582,-0.2398051801904032,-0.47491447125268776,-0.3803622913855551,-0.4763595847318911,undefined,1498060835524
903d185fccf839df,-0.21075546753907548,-0.7835555294756855,1.7056374808323,1.6343099219199797,-0.946326464634974,-2.006056021882785,1.9347449040887172,-0.7712580402114417,-0.2988950133743509,-0.7030260732123508,-0.03055081897567815,-0.09815111876617162,-0.4605614973262032,0.032065323491977514,-0.8307586408650922,0.4679241087711634,-0.34868482721922817,-0.04436469027680297,-0.8246252537231238,0.7884931573097711,-0.2327261688181772,-0.47644091104054487,-0.35155059783851905,-0.5249916182992426,undefined,1498060837028
903d185fccf839df,-0.2786702744259911,-0.7589008410986026,1.7688001699680929,1.7916845480807086,-0.9858749734588522,-2.003994644777676,1.8700753322163919,-1.2094085846034228,-0.29337099570035496,-0.9077778213492047,-0.08357697455170675,0.04184552555475083,-0.4649133801247772,0.04317530084646781,-0.8423376161472599,0.417408861412083,-0.3608156302734849,0.021010289215063906,-0.8650878104785295,0.7911724878809473,-0.21369664900327826,-0.4978632275426198,-0.3160388374022488,-0.5507934786037276,undefined,1498060838526
903d185fccf839df,-0.4602381545138936,-0.7635969610835737,1.7132933564336799,1.6748325911435837,-1.0096555088327868,-1.9936481637855181,1.9267555396919638,-0.8276021062103537,-0.3120290021443206,-0.8263276595453797,-0.0596617778861402,-0.07623388554661502,-0.4866727941176471,-0.021632991043480758,-0.8381270662951374,0.16887405582552426,-0.40147308561429074,0.00028889555926763286,-0.8364428671042027,0.7030471881458993,-0.23936584554717938,-0.5029653359695294,-0.23615632306438758,-0.5193366632644034,undefined,1498060839986
903d185fccf839df,-0.33411084086003096,-0.7500956161267818,2.022728981229915,2.0481848095270356,-0.7896650138682747,-1.993166009953192,1.9335456959014239,-0.7019378130646345,-0.2747351516106548,-0.781573696645387,-0.10884622942625623,0.07080807566984536,-0.5606548016934046,-0.11606804462136469,-0.8065480970111288,0.1769565225371098,-0.5035361979640556,0.042193982261400566,-0.8280187076589549,0.7212943479921705,-0.20596273433478773,-0.4904816123144382,-0.3379366859335285,-0.5112376463890003,undefined,1498060841492
903d185fccf839df,-0.39925356939240053,-0.6250612900009608,2.247309041024525,2.012275350957425,-0.6743726356140415,-1.9357246418403342,2.0017812760328444,-0.14374452675458502,-0.3745950960015589,-0.7284058411784717,-0.08968051205211934,-0.007911361958664084,-0.6259330436720143,-0.12902969781904458,-0.8170744274680322,0.15270917893179622,-0.6141113170853855,0.037304949947310505,-0.8327765387492422,0.6864014715397846,-0.21410727544924282,-0.5087648599518141,-0.49116309389233664,-0.5226499209917,undefined,1498060842989
903d185fccf839df,-0.45469403231021116,-0.5992325862416312,2.143313151677077,2.121928196395849,-0.6129567397556474,-1.9129749619492045,1.8414709363730744,-1.1461963378650772,-0.38295894805284775,-0.7852786744561278,-0.1024341841933416,-0.07430772228798602,-0.7564895276292335,-0.20679979831596762,-0.8339165385297164,0.3163785362822513,-0.6794096967852428,0.054112581082942354,-0.8423131918946314,0.8296224159339616,-0.18622169769347305,-0.4978649969810022,-0.48195446765819516,-0.5043451670959304,undefined,1498060844484
903d185fccf839df,-0.44914997911734816,-0.6056897804489588,2.404897838540279,2.3908212797049755,-0.6528652479138556,-1.8959505527926441,1.955262644853627,-0.3974105556001263,-0.3972177022306684,-0.8756411507319739,-0.16573992829415035,-0.07017689380729432,-0.7521376448306596,-0.17161806090156165,-0.7812849304186025,0.4295325049500182,-0.6262297481915823,0.030883342234735506,-0.8211828241970739,0.8721683220617442,-0.183875312898081,-0.4801830922008432,-0.424948940748251,-0.42293388978228424,undefined,1498060845987
903d185fccf839df,-0.22322967348654157,-0.6567601437415042,2.4240381628861023,2.3318704643333055,-0.6489052558283773,-1.850250881157166,1.8162011276553345,-1.252595723564773,-0.43900904536355667,-0.3722959418723745,-0.26711602190624784,-0.29598691454113474,-0.4823209113190731,-0.19291226834436928,-0.8223375706097825,0.40932650775938356,-0.6227990901901888,0.055474164815154915,-0.8565796897003706,0.9122042824972197,-0.17425572138039308,-0.465751316974234,-0.46151092695750334,-0.43566263962490254,undefined,1498060847493
903d185fccf839df,-0.2661960857312299,-0.6661524129394387,2.5401561305840974,2.6990149739094464,-0.638228697849287,-1.858855091626167,1.8964706910552025,-0.720336403824102,-0.4626138918622622,-0.32797703790088406,-0.2936438180769792,-0.17004412841769903,0.6361129679144385,-0.13921385020271462,-0.7433901069074751,0.4941918994660442,-0.6117067832421015,0.04468283202782853,-0.8265633710149571,0.8826854607592766,-0.17751428222481372,-0.5017707563438665,-0.4210215738834181,-0.44596566895024703,undefined,1498060849021
903d185fccf839df,-0.23986176405431114,-0.6356275745811419,2.30345424657589,2.2401079381617492,-0.7107120007282939,-1.8850031306681532,1.7878728428440687,-1.492251011796942,-0.4244368386779095,-0.12789213043469097,-0.19659152219583148,-0.20403254282949254,-0.5258397393048129,-0.14569475450620187,-0.7844428133587592,0.4254913281236685,-0.5644335811993391,0.05354262029893978,-0.8510032305079827,0.8892144029478085,-0.17448740532825813,-0.5190727755435401,-0.35545761957967753,-0.485487224666603,undefined,1498060850494
903d185fccf839df,-0.38400728509038834,-0.7424643919232115,2.375549595346966,2.3369938726034922,-0.5990093332671442,-1.969540537517811,1.8534602082687925,-1.1454136723458832,-0.34450236764505443,-0.8844799430271895,-0.10942831594146367,0.08416348901056685,-0.6999150512477719,-0.04570467339874914,-0.7728638454388252,0.49621260093810515,-0.4969930417951708,0.08953907509566869,-0.8256048081389495,0.8679491538117174,-0.14409701379110174,-0.4732219751341055,-0.3985587090934631,-0.42484218541093094,undefined,1498060851992
903d185fccf839df,-0.33411080635462126,-0.6538250687508973,1.9742404136907785,2.0202829624288423,-0.581441365886263,-1.9133592874362892,1.9508366625788314,-0.4650078260185133,-0.2935979386232081,-0.48789436620394416,-0.0673080114838748,0.15078492166425245,0.013793727718360084,-0.04663052427111848,-0.7791796481303075,0.3830585757408952,-0.5363750621164576,0.020047684549970017,-0.8065245042848959,0.7712161179699798,-0.19209432693768674,-0.4894163414323994,-0.4536790033560048,-0.4858909038364769,undefined,1498060853486
903d185fccf839df,-0.36321708561715205,-0.6315184988222845,1.6348178995473295,1.834554191824707,-0.5741179592293829,-1.9011913422360633,1.9084783773365364,-0.7142651308833087,-0.2663309854823955,-0.42413668189695275,0.0032988885293188234,0.06800695990478309,-0.49102467691622104,-0.08829301057971711,-0.786548066198119,0.8134480343964826,-0.5130314318038655,0.04049675774643559,-0.8204901384888905,1.0172986756567581,-0.1542567978192021,-0.426129079389797,-0.4559536293515926,-0.4451363078512787,undefined,1498060854984
903d185fccf839df,0.37968659431304697,-0.6667394279375601,1.4804195372946372,1.7578556120370519,-0.25874820238291146,-1.8958969803255166,1.9391787401581624,-0.39857960148513794,-0.35477404659845657,-0.31688384565350225,-0.023380263096384506,0.0038373071654458283,-0.5519510360962567,-0.045704647497200046,-0.814969152541971,0.9124578841720256,-0.43113729910741194,0.03400548666234588,-0.8391086526232204,1.2235762491185744,-0.12762717931253265,-0.4271656524664157,-0.1843131361914063,-0.3548442356281059,undefined,1498060856494
903d185fccf839df,0.3672126816615636,-0.5070711730805887,2.039317008192679,2.0502869097921606,-0.20037686783059716,-1.8468595071303868,1.851009241392132,-0.8673294387241848,-0.5236127320239625,-0.40695572135510366,-0.079137024372673,-0.030342081929985994,-0.6346368092691622,-0.11699386959218494,-0.8170744127435646,0.952869991612181,-0.4021696805426994,-0.046163248052915364,-0.8328395099920788,1.3405274461737282,-0.14885259587949856,-0.3974508177241758,-0.16503483114957765,-0.35742815473529477,undefined,1498060857983
903d185fccf839df,0.0955537301571788,-0.5728169113261687,2.213494340945096,2.199056280322994,-0.3262017978757076,-1.839513087168209,1.8989348331372264,-0.6111293263309527,-0.492899906673051,-0.5647195724147754,-0.19088860662273385,0.02848313160750176,-0.7651932932263815,-0.16884066369374817,-0.8476007740134778,0.6315932682685678,-0.4485348010978538,-0.08301464803142587,-0.8673197925487176,1.3974247000918725,-0.16704618726496426,-0.4583602781863202,-0.17580854634193574,-0.38222950578754283,undefined,1498060859483
903d185fccf839df,-0.08462817113791768,-0.5305518022334366,2.274105495108678,2.263383191029801,-0.6210104413149707,-1.84852258568968,1.8919421710620874,-0.7637712821841085,-0.4106297858712213,-0.27140368216558947,-0.1652054028020037,0.08839816323234378,-0.852230949197861,-0.06236973008590642,-0.8633902696988328,0.5952223941842051,-0.4516238806860502,0.03387249270243113,-0.8750232814156951,1.4457296210067332,-0.10018680312373726,-0.4281309400443521,-0.1552491072640044,-0.37191147083385073,undefined,1498060861034
903d185fccf839df,-0.21768562029367858,-0.6197781696318644,2.135019138195695,2.290951735676022,-0.6739303548884935,-1.9295102326019344,1.894934887927477,-0.8381807908201285,-0.455319756570654,-0.6561086082670426,-0.06328207137652464,0.01170337207086026,-0.9044535427807487,0.005216114421150191,-0.8591797198467104,0.874066308615602,-0.4240383487415512,0.0563227803254285,-0.8662142971764839,1.2895893794695794,-0.10583313194503412,-0.41713777176920747,-0.17875855079469383,-0.492550586729384,undefined,1498060862483
903d185fccf839df,-0.5239947662318183,-0.6039287646825869,2.4655089927038607,2.3225393554978706,-0.7381439520191835,-1.9446456296946535,1.9655057303920498,-0.36743898592771645,-0.4463380213608906,-0.877421072674267,-0.08094318726633078,0.02272745965021077,-0.9218610739750446,-0.06885055668474636,-0.8476007961001791,0.920540237824725,-0.45459302271332774,0.015779277050991598,-0.8447270912678273,1.123547940970277,-0.14140690468863132,-0.4174918396471431,-0.400968914554611,-0.5446983957387355,undefined,1498060863988
903d185fccf839df,-0.5932955691642448,-0.6403237091801092,2.2957978627006113,2.2511889387341477,-0.9184522188829589,-1.9555045432010307,1.917964099380343,-0.7757980194362785,-0.3537779290475515,-0.6090888525442487,-0.0649001138175011,-0.013383713313775655,-0.8000083556149733,0.021881222911405655,-0.8486534041142746,0.5891604593563513,-0.5026592771253962,0.11132439897066734,-0.8475118230916988,1.07202473631434,-0.10436259425272215,-0.360759765151655,-0.36763411863224216,-0.48947726098215366,undefined,1498060865501
903d185fccf839df,-0.4214296786476234,-0.7336591815653868,2.300264065449778,2.375982053783945,-0.8122421125300624,-1.9679822772770312,1.9541186703954836,-0.5428602081679513,-0.2873902483269566,-0.2815202249116979,-0.09916638899945766,-0.0658370818912799,-0.6433405748663101,0.01632622128338596,-0.8591797272089441,0.42347068318105063,-0.42501547630864256,0.15334981190718724,-0.8187829177788717,0.9257856970030977,-0.10387351475701792,-0.28562498938819997,-0.25525503979345676,-0.4874001078670887,undefined,1498060866987
903d185fccf839df,-0.5184507820497747,-0.7166357466198665,1.7011710239461837,1.7276984799715958,-0.7634570553396121,-1.9639130953808186,1.9418532492331686,-0.667501039278445,-0.3239725552821845,-0.23740143321102145,0.04785651090178796,-0.08912116344722767,-0.3822276069518717,0.01910367029429762,-0.8307586408650922,0.14058559192330405,-0.3812358733398933,-0.018215964343488524,-0.7981353282945595,0.9084162575131631,-0.17952411191408238,-0.35037148363206383,-0.3268008181682034,-0.42644049467281975,undefined,1498060868490
903d185fccf839df,-0.6612102552822264,-0.8264076243385469,-0.21860515983006987,-0.2858262076464739,-1.0820976658808472,-1.9753263673653016,1.9155499282779764,-0.9737951280557856,-0.2823739640803075,-0.6674803349278917,0.066647687128049,-0.015165445175680586,-0.669451871657754,0.056137005847245895,-0.9444430009649676,0.31839912469542614,-0.35614932615343586,-0.25185092400687914,-0.8727633124323216,1.1472307502686003,-0.24024486155782362,-0.24781210642842502,-0.5265281965188374,-0.5001705181849692,undefined,1498060869989
903d185fccf839df,-0.7513011886770697,-0.8739559268703563,-0.7047696523509325,-0.7630840063716721,-1.29445616878355,-1.9682338345236257,1.9538451682164601,-0.8058494410748135,-0.2531516737773295,-0.6206319610039568,0.11843821337120886,-0.168938471798444,-0.6302849264705882,-0.3188256752733436,-1.046548393144909,0.18099775589290257,-0.46991319390704295,-0.4780700058433741,-0.9697251178121136,1.2125047619828009,-0.3442097741284345,-0.23455390505167834,-0.5627360995163447,-0.44353273725657333,undefined,1498060871485
903d185fccf839df,-0.9453432747124384,-0.9954680899374682,-0.7564489092900797,-0.8045498923842455,-1.5049735307440617,-1.950310338326781,1.9648272505261253,-0.7671956091844112,-0.2718131925683614,-0.7163297499577947,0.08682078977538549,-0.04060821744635966,-0.6476924576648841,-0.8409959901918769,-1.0686536767972787,0.42145015129731883,-0.7287556550434356,-0.8453364090080562,-1.0523574538068916,0.9904591817975293,-0.5775843022723891,-0.3771305743370346,-0.6543275816024944,-0.45678527358254767,undefined,1498060873034
903d185fccf839df,-0.7138787951198348,-0.979618714216183,-0.6830775388959488,-0.7413169626863009,-1.3425726624222591,-1.9080579378040117,1.9246911586383073,-0.9457290448223484,-0.32910166803860696,-0.7368215744293491,0.07038323463406827,0.010717815332879937,-0.8043602384135473,-0.8678451668857678,-1.1012852835443179,0.6538199669312634,-0.6442408226631766,-0.8452857441962771,-1.096703241186091,1.187420696881714,-0.5443832417682481,-0.4277819434894545,-0.6378649292829044,-0.3952542597638565,undefined,1498060874495
903d185fccf839df,-0.7152648429234602,-0.748921586130539,-0.08653679477541401,-0.1255218484511167,-1.3096275738217877,-1.8997728351822651,1.9852529523598943,-0.5018864490450599,-0.35143407752079037,-0.587978776787997,0.06379240443323535,0.0961375801713039,-0.6476924576648841,-0.6391641909861056,-1.0812852674557756,0.6275519783833319,-0.6605057876234425,-0.7627611568414756,-1.102867431696902,0.9890733221516196,-0.5468097043993553,-0.4126688948919182,-0.8408313075811441,-0.528817390867203,undefined,1498060875987
903d185fccf839df,-0.6085417499500279,-0.5510973563956775,0.9374714472054584,0.95281300482766,-1.274131633912181,-1.8921748565953862,2.0029068350578503,-0.34136954140307313,-0.3956408605312666,-0.6547500161234793,0.03341302315755388,0.011617179512915196,-0.7260263480392157,-0.46695908223900945,-1.0412852205542236,0.7306031745735538,-0.6563888351293904,-0.6824974293939764,-1.0753139895592223,0.6066067338740466,-0.5985207216142381,-0.42967616257287006,-0.6848136283322888,-0.5567081394776346,undefined,1498060877486
903d185fccf839df,-0.8594103812122422,-0.5088322180749528,0.8264573118627335,0.7905343970115407,-1.4241588070142674,-1.8802072256797715,2.019180060985935,-0.25885150386289096,-0.36944455642628315,-0.5494468653347302,0.07756032246426205,-0.08966461294376474,-0.5650066844919787,-0.3391940253683946,-0.9897062020516206,0.5164186546581829,-0.5610978884671721,-0.5891625063569036,-1.027665707544104,0.3950936857699252,-0.5991313085692863,-0.4472760471394076,-0.6251374999479258,-0.5528521865160443,undefined,1498060879002
903d185fccf839df,-0.7540732152735012,-0.6209521996281072,0.8264578201366324,0.7598923362356645,-1.2542288079001604,-1.909327373737232,2.011174934004987,-0.32746372463825474,-0.37462395588061936,-0.5647478830175501,0.09009106884925995,-0.14853529105100777,-0.23861547459893048,-0.3104931404543777,-1.0065483462433569,0.49015069437497294,-0.6137883219194841,-0.4675256570511128,-0.9660727813538953,0.5248409903582145,-0.49805938486056106,-0.5034303047106926,-0.7091449897670242,-0.47889468400694407,undefined,1498060880501
903d185fccf839df,-0.23293173206864212,-0.6139080050366544,0.2681972164338455,0.14283439729039063,-0.8830180083995537,-1.9168647925511302,1.985557986516198,-0.4295419863131627,-0.42993648007221325,-0.5287947638661766,0.08279957981051025,-0.03635072012966181,-0.5998217468805704,-0.2854956978821618,-0.9297061059314742,0.6659437235280848,-0.5142538957199434,-0.48067918213763244,-0.878409738100221,1.1518348958364808,-0.3561086945412066,-0.47899260336830124,-0.12015311256233714,0.020294203286179487,undefined,1498060881981
903d185fccf839df,-0.18303525333287501,-0.7547917653397452,0.2158805840255444,0.10978635801618002,-0.8326283806146189,-1.9466394583523368,1.9732899434068327,-0.5298813483477587,-0.397523427737727,-0.5616060036645499,0.06929424954216078,0.15437457019248238,-0.5911179812834225,-0.4271482458720513,-0.9191797754745709,0.9144784160557574,-0.4263765898765952,-0.565249310543845,-0.8632266579778812,1.3254677630270593,-0.357470524407579,-0.45265505087346225,-0.02090498545947282,0.002163009440033382,undefined,1498060883498
903d185fccf839df,-0.1234366124987782,-0.7577268111023598,0.07551820548950648,-0.04378052802077312,-0.7406228239923996,-1.9590473153419536,1.9870596058652221,-0.4126429483182991,-0.41796404116017805,-0.49956277379682207,0.03088697798654959,0.14386527163190815,-0.06454016265597147,-0.4178898990330397,-0.9507587889319823,0.8316334997033855,-0.4524399707033829,-0.508556799574332,-0.8701814888579211,1.390880359861764,-0.3289441154377013,-0.4255703931010707,-0.024163658622838105,0.028715843269878437,undefined,1498060885019
903d185fccf839df,-0.4962745002675032,-0.7706411410610303,0.7817965550558124,0.7093912812855331,-0.8213141116397219,-1.9718604594671159,1.931591752975457,-0.7660242066072642,-0.4321770645928331,-0.3597730259623058,0.07342745305389496,0.13205375896135077,-0.36917195855614976,-0.2993831630998874,-0.8665481894501583,0.8700250752598092,-0.415165688093059,-0.3846780866841613,-0.8391996098310979,1.5499001071837104,-0.23327957775929828,-0.3961205576956732,-0.12774945004385907,0.060706955586965025,undefined,1498060886489
903d185fccf839df,-0.13313870558628849,-0.7547917653397452,1.3432468316108124,1.3993667040278712,-0.4343456193108881,-1.989814234740439,2.0089869464271697,-0.14579717050365565,-0.3888505635421287,-0.1847186626993758,0.1358164885456887,0.15526121873217022,-0.6085255124777184,-0.2984573251782926,-0.8497060489395389,0.5527895852719886,-0.5047370604098023,-0.3445588884878833,-0.8270181619785787,1.3439304967747152,-0.2594527030830396,-0.3778940801326626,-0.42042220046020173,-0.2582943445041694,undefined,1498060888000
903d185fccf839df,-0.11927860710954069,-0.7389423019344831,1.353454750458302,1.4976799019222449,-0.581009373630476,-1.9660070809706032,1.885961978606603,-0.9777481809936736,-0.33344378222244214,-0.1769393321744122,0.10507753959555963,0.01987719758389286,-0.6259330436720143,-0.28919898481466827,-0.8949692463450751,0.32850217982018654,-0.5594107629578907,-0.25383313650184613,-0.9012473292054214,0.7570495435956732,-0.36617421061454986,-0.36976846221444637,-0.2593253938393019,-0.4035796393045697,undefined,1498060889483
903d185fccf839df,-0.2620380803419924,-0.7371812569401189,1.5097680346248996,1.5380446234927234,-0.7441096725037153,-1.9228579240108297,1.9574611432651252,-0.5114514737957909,-0.37683923494920507,-0.4674041708133328,0.08700039985362955,0.03815182098015154,-0.9392686051693405,-0.27716316953858317,-0.9128640095942576,0.5871399557373411,-0.48957788155369913,-0.19120665570652037,-0.8958737792045318,0.8271278677312762,-0.3211350458675405,-0.3708631157259874,-0.20992815365158699,-0.34131710772114765,undefined,1498060890987
903d185fccf839df,-0.4283598486549313,-0.9320704409123659,0.25543700020329657,0.023457788785768298,-1.0991410712649938,-1.9221405177391708,1.9558464428909248,-0.6686328370265016,-0.3160151987564203,-0.6127156229512101,0.03803166964770673,-0.07159716369593444,-0.847879066399287,-0.3178998567779106,-0.9665482993418049,0.7932418958822403,-0.49090120843193763,-0.41013018482656327,-0.965918853374195,0.806647932366394,-0.430956117295543,-0.37980766619169154,-0.33042773949327675,-0.377424613311727,undefined,1498060892498
903d185fccf839df,-0.39648152554326416,-0.9596601458240711,-0.6390549199690297,-0.7000652773930265,-1.061505700367822,-1.9204844293379844,1.9915092427534073,-0.45640767504882046,-0.30670776675921235,-0.727155948228648,0.06353362869473984,-0.020853797209991594,-0.8000083556149733,-0.503066605771912,-1.0844431688015168,0.8437570301824346,-0.39710955795108743,-0.6083449891845742,-1.0618241396632002,0.8455290052200818,-0.5346999737200019,-0.39103420650496296,-0.23925152568393512,-0.39733522568429863,undefined,1498060893992
903d185fccf839df,-0.6847725331100087,-1.0835204273396533,-0.8521507851561458,-0.8946933154441759,-1.3726068927852881,-1.913217203742975,1.9571481929866248,-0.7460170930617429,-0.2960108074522179,-0.8037024536915204,0.0956411050579658,-0.07396156215876439,-0.7782489416221035,-0.7919267875597453,-1.1718116806724326,0.8316335562328285,-0.4157811628822027,-0.8388641392963284,-1.122157639895607,0.327864068024233,-0.7619283957878688,-0.3753286078108579,-0.325152747884249,-0.29442900653591125,undefined,1498060895485
903d185fccf839df,-0.7277389798601068,-1.0036863583671523,-0.8106797012014377,-0.8713870692009174,-1.3699634701207857,-1.9615186381697693,1.9450773940409685,-0.8604067407211189,-0.26924124866188837,-0.806217166506614,0.09710480507996007,-0.024272974365188025,-0.7216744652406417,-0.8956201912143346,-1.1865485536192244,0.3628524796237351,-0.6240261573413437,-0.9797531385164072,-1.1530135757638804,0.15624839274455565,-0.871940192699321,-0.4202922737455898,-0.4922997364746766,-0.318943328435989,undefined,1498060897037
903d185fccf839df,-0.6528941927456368,-0.9256132467050383,-0.8342859741594785,-0.8777595676170161,-1.4173085331027298,-1.9957305032942818,1.945177327620109,-0.9124019095627124,-0.2857908879236066,-0.6932357244065905,0.0949815827820844,-0.054805777979090545,-0.8696384803921569,-0.9974619157880404,-1.226548602361335,-0.11199037635724361,-0.9692261318706017,-1.063480986864133,-1.2020332324416767,-0.17900656159276845,-0.9804441727163674,-0.46165653162352316,-0.6143000826519616,-0.5752435195360638,undefined,1498060898495
903d185fccf839df,-0.6002256356553236,-0.8868702129870383,-0.49614049818688205,-0.5413838454893657,-1.1136541850690442,-2.0098619977889465,1.9414850835571498,-0.895637571117603,-0.2644510835051196,-0.712305422349446,0.05955711351627839,-0.005205508747837777,-0.8217677696078431,-0.9770935624552958,-1.1749695967426412,-0.10390795910892076,-1.0212419630688974,-1.046698686423561,-1.1705335897158322,-0.3261695043998334,-0.9979748243141526,-0.4633618198012507,-0.6461413795130234,-0.5669292348570695,undefined,1498060899993
903d185fccf839df,-0.2745122000259341,-0.8381479243009746,-0.06229212980042167,-0.10527913309770316,-1.0429811585311572,-1.9759832131726616,1.9223716531279786,-0.9544800425039414,-0.31669391360702165,-0.4792862697973478,0.07201549682260645,0.06348602677663799,-0.8696384803921569,-0.8326634812744601,-1.0802326410360958,0.061781894794364176,-0.959149883788113,-0.8681286742719064,-1.1052883283397539,-0.045917794383021994,-0.8443146866849851,-0.424044198203871,-0.4392965280379065,-0.5321739893084351,undefined,1498060901497
903d185fccf839df,-0.11234847160764246,-0.7935347844437491,0.6082578684572967,0.6389116739058615,-0.765833051683584,-1.9529982805341413,1.950284416421727,-0.6638437292469201,-0.3067125081239602,-0.04701568958959941,0.061330509797896095,0.09626501326537452,-0.8609347147950089,-0.587317506966126,-1.0054956940558588,0.44569733944666395,-0.717742487690793,-0.679001645779636,-1.03152095111402,0.2811451866941691,-0.6737010161894198,-0.37143208986949916,-0.2965457690457084,-0.47252574828273475,undefined,1498060902987
903d185fccf839df,-0.020871455903763863,-0.7242669415954446,1.1218569529423141,1.2171743811106845,-0.7981404258553546,-1.9396820197883786,1.8402901551416586,-1.3595049490047935,-0.31480905140225796,0.2389342055816735,-0.03399665776132465,0.050599812560313845,-0.6955631684491979,-0.4095573901156229,-1.009706214459046,0.29617242603273053,-0.6534684477197357,-0.5039337505348092,-0.9979012746191376,0.36243358048782426,-0.5841439653815104,-0.4224770618813218,-0.19986602271356071,-0.42555403549735266,undefined,1498060904486
903d185fccf839df,-0.1774911656346023,-0.7360072561718685,1.579311340149866,1.552762126263298,-0.8312603712834747,-1.9684923799345577,1.970486587579891,-0.5159616993644677,-0.31893761485758604,-0.12034294577628453,-0.11294541375083922,0.01726726950298265,-0.852230949197861,-0.1003288517573513,-0.9812851428396616,0.5669338172230988,-0.35615698686315617,-0.2107437891825509,-0.9600135450676842,0.6583455044078315,-0.3802635372882982,-0.49202097589667415,-0.22548898261373476,-0.37494336437318526,undefined,1498060905979
903d185fccf839df,-0.18164920552924954,-0.7483345565184215,2.016987010994643,2.263321974013067,-0.611876743121013,-1.9973749468303708,1.950571059761656,-0.5561782260777021,-0.3623273449661665,0.4191110034833521,0.030320786350156424,0.02323434646788166,-0.9131573083778967,-0.032742968397971056,-0.9633903648660116,0.7346442666057389,-0.3481122010819903,0.03166229530365456,-0.9302980888034224,1.0100152004466008,-0.18844578723757535,-0.4910627159217906,-0.31870170265693587,-0.3667748265372276,undefined,1498060907530
903d185fccf839df,0.09000971146972553,-0.875129956866599,2.0035886568840917,2.184978657755695,-0.5376345836538042,-1.9975263475290301,1.9456191351257621,-0.5597500913182435,-0.35320079714245384,0.45733088939995487,0.06249076412671071,0.03698796967684928,-0.7303782308377896,-0.06607295226454014,-0.9454956237035306,0.512377364772947,-0.40128375768787544,0.05366294277393083,-0.9411361484721377,0.8752480020774053,-0.20853077887077295,-0.4778069821414625,-0.32435041133408754,-0.3413312187203034,undefined,1498060909041
903d185fccf839df,-0.026415578107446342,-0.8845221676085488,2.13884694892791,2.1063600410068988,-0.5410288635544671,-2.0261620131478244,1.9794121494394408,-0.35842301517418396,-0.33838698859358507,-0.33709146416290336,0.02693765515873471,0.06369821627420026,-0.6476924576648841,-0.0031163621193302593,-0.960232518737024,0.8720456919377055,-0.4655623439601026,0.16403348415369798,-0.9579914664245885,1.0073204662066018,-0.11938421888710046,-0.5330074800468648,-0.2747655432418161,-0.3656531555395791,undefined,1498060910497
903d185fccf839df,-0.10264634401472246,-0.8446051477362946,1.7726287431111565,1.7476451184243955,-0.7207302713622098,-1.9851254774167026,1.922455816266512,-0.8123370106487607,-0.3160438858440106,-0.8033212740680914,0.039612001766125955,0.02655806430477904,-0.9392686051693405,0.09039291829083161,-0.9476008839051242,0.8174892112228324,-0.35243512403614,0.11528881438216912,-0.9353148025506725,1.1434119251761592,-0.1112106323687674,-0.49643843156845735,-0.2367752814502042,-0.3707744677669056,undefined,1498060912008
903d185fccf839df,-0.01671345051452634,-0.7495085719006681,2.039317008192679,1.9248926757525586,-0.47638325674745274,-1.9369917482561785,1.9495770071464198,-0.4855187381592915,-0.3145519292796158,-0.44546981673118313,0.049807804669679864,0.03685118564273872,-0.8957497771836007,0.10520616962705381,-0.96233776421415,0.6194696247306325,-0.29854932396188844,0.0431439215872696,-0.9388761798252026,1.0823724952217564,-0.16319516323027236,-0.41878298515028684,-0.13116646053825648,-0.35232376468426385,undefined,1498060913482
903d185fccf839df,-0.051363817475329886,-0.7401163319307259,2.108860567854595,2.0232687036743804,-0.46769184531261415,-1.933330184939608,2.009862678836977,-0.07408250403899012,-0.2608108339007243,-0.9059469231169955,0.10740305638965655,0.030238924602099412,-0.8348234180035651,0.04410115171883716,-0.9223377173125978,0.8053655676848971,-0.36355129839858197,0.033859824511823275,-0.9270725597233216,1.1304926365548242,-0.1548874425923031,-0.4518108792228417,-0.12805843833303282,-0.3529441837984379,undefined,1498060914981
903d185fccf839df,-0.3313387797581897,-0.730724121188776,2.0354889433235144,2.0512340374204765,-0.5963144857924068,-1.9510929624095144,1.9158076615876753,-0.7451998889159085,-0.28856179085583616,-1.018534011881359,0.06969054951649652,-0.015016027237952156,-0.7826008244206774,-0.04940802508512833,-0.8770744978203603,0.6053254210442439,-0.429897298807949,0.006330520638379995,-0.8940056312387604,0.8601729330860117,-0.21281042517526386,-0.3557900695293798,-0.1023397386025414,-0.343294230928877,undefined,1498060916482
903d185fccf839df,-0.4103416757781265,-0.6931551028530225,2.150331143535404,2.14598455114071,-0.7599393529440164,-1.9470936586334913,1.9764878037977793,-0.4031165330039674,-0.3057609188482649,-0.8019819704052058,0.003797078302072304,0.0004940715412363447,-0.691211285650624,0.04687865253284701,-0.8644428997996296,0.6881703373966158,-0.33436865732240323,0.0797040082107231,-0.8886320796046154,0.9185484434077077,-0.1720878729997229,-0.38241025629774655,-0.02565429663053896,-0.34226366894915605,undefined,1498060918028
903d185fccf839df,-0.4172717077637956,-0.7553787364958782,1.8281355566455695,1.7432365356996933,-0.8896214229354789,-1.9753729516363798,1.927715417432434,-0.7682371940784108,-0.3167918726500655,-0.7046720455378397,-0.08596780457596039,0.004249508971679145,-0.7042669340463459,-0.05774052752715788,-0.8476007813757116,0.6477580886328527,-0.36229930411524913,0.07558759511386152,-0.8805927440969423,0.7018769143962917,-0.21542072320236666,-0.35805117468632275,-0.028447314336738982,-0.35551727738613437,undefined,1498060919479
903d185fccf839df,-0.4366758249279966,-0.7765113202702366,1.3751473721871845,1.3745640736531257,-0.79527072520392,-1.9904454591152816,1.9696318946453142,-0.4965939892298253,-0.2616217445014957,-0.42011752490956183,0.06537295833496204,0.0431157221030902,-0.517135973707665,-0.12532639793576358,-0.865495544624894,0.5487484367103604,-0.453376798905463,0.031605299270101375,-0.8941315722379876,0.5731151132917354,-0.2602461266350031,-0.4595986153574367,-0.06712535861558917,-0.36023731777295326,undefined,1498060921001
903d185fccf839df,-0.33272475855099576,-0.8404960281354487,1.20416022056088,1.1809771520057624,-0.7761084691786168,-2.0002119592952936,1.9181666000084139,-0.8610235271031443,-0.2210583205378275,-0.5188808218432822,0.14078678291787272,0.10054072588528541,-0.7129706996434938,-0.11884554543537454,-0.8444428542621522,0.5406660547929395,-0.3822987171521617,-0.06722028751875686,-0.8957618286461861,0.567448482284633,-0.31810797861124507,-0.4167765756983414,-0.12757572255790844,-0.29771078065769796,undefined,1498060922489
903d185fccf839df,-0.22045764689011008,-0.8563454330847261,1.371957445198022,1.252970673799142,-0.5599031196125761,-2.0062703102726176,1.9926374415333339,-0.283609368050866,-0.2957653444850688,-0.9183596154557544,0.14921913383437624,0.011834081509972906,-0.8913978943850268,-0.0790347090684164,-0.825495490361108,0.7083763911166936,-0.3320894947277132,-0.023902952416585938,-0.8676836264757393,0.7250977654713328,-0.2572573795978199,-0.3916350135738516,-0.18296018822385351,-0.20320271101448062,undefined,1498060923981
903d185fccf839df,-0.21214149808999608,-0.8246466231861712,1.5155097507232225,1.506732408146917,-0.6837223405016448,-2.0273243033911412,1.9633966185865095,-0.5421893084602337,-0.3224151692437289,-0.9246746925436933,0.07783423325546426,0.015674992595263466,-0.843527183600713,-0.017929639357101564,-0.8760218529950959,0.522480504691872,-0.3470720750559184,-0.044345694629353734,-0.9072296018443378,0.5762409950787187,-0.29663931725594067,-0.3894655017895516,-0.26080611916652013,-0.22929875016514328,undefined,1498060925488
903d185fccf839df,-0.20936950599897433,-0.9109378863659998,1.5588947400440383,1.5956559837272444,-0.651034397525968,-2.041889036549759,2.0307538370284197,-0.1175583134249356,-0.3320703389974023,-0.6901840340117228,0.2640451860133894,-0.016982450836300685,-0.9001016599821747,-0.06329550325362848,-0.7991796421321484,0.36083190534292103,-0.43145402273498784,0.0034996965143422832,-0.8921654679840323,0.6172932506115941,-0.25797090710326237,-0.39187889410613075,-0.4374499864309445,-0.2552944452197475,undefined,1498060926982
903d185fccf839df,-0.2079834236899391,-0.8023399948015738,1.1486531528895174,1.220728243262879,-0.5633796857037066,-1.9433179620615808,1.9278468976541592,-0.6390669224041663,-0.3433034442846005,-0.38020097785383455,0.22735113713181115,-0.0415239709038148,-0.8391753008021391,-0.048482251917406266,-0.7149690352880907,0.4840888726060053,-0.4950219196062796,-0.023978947430661233,-0.8260106218362775,0.5174959270608289,-0.2583948218114815,-0.4255404174869814,-0.524350995961423,-0.33928421929546254,undefined,1498060928502
903d185fccf839df,-0.025029599314640324,-0.10672653516990974,0.9955305581229306,1.038860392183224,-0.6440401231877178,-1.7563173220595636,1.8904536871125976,-0.5847386289503698,-0.41795163285696807,-0.2876283723779926,0.11683146785453999,-0.15630287701439702,-0.5345435049019608,-0.09292216133536746,-0.7886533263997126,0.427512001331008,-0.5232488682655602,-0.03135049312923221,-0.8342738555428038,0.39771141861485965,-0.2810836989027867,-0.46052593840008493,-0.5079522320506404,-0.3974764340049432,undefined,1498060930049
903d185fccf839df,-0.07076807266116988,0.01830771788593046,0.7735025415744303,0.8285090282768487,-0.6227487270172282,-1.6723319435291504,1.9525092207242754,-0.04698032856046717,-0.5920388795865175,-0.5674076301381631,-0.09189181519467696,-0.11432827958732351,-0.45620961452762926,-0.06422140592909602,-0.7507585544242218,0.2375747967562291,-0.4644112993617111,-0.10125985776939221,-0.8161661096974253,0.3856082441019774,-0.3150922893243447,-0.4538450434971974,-0.5278084102300679,-0.3472742372845328,undefined,1498060931485
903d185fccf839df,-0.2412478808687561,-0.2088672617550005,1.2233007990436526,1.2265952399480902,-0.7922570117145398,-1.6326813042234305,1.9275865560151932,-0.23504643742081535,-0.42457636002464405,-0.5198522743289146,-0.2150807839706016,-0.004078260015592869,-0.7608414104278075,-0.018855464327921814,-0.7454954039202377,0.28202822234634195,-0.4644163295328066,-0.05613763390741112,-0.781657838618814,0.4617689543504113,-0.27414443223190843,-0.39379851232196583,-0.4409996352171303,-0.4397827922982171,undefined,1498060932992
903d185fccf839df,-0.5461710480140898,-0.42019289490263867,1.3687675182088594,1.4976924339245345,-0.928398495083024,-1.7767866759889839,1.9235813658638212,-0.5768328188586523,-0.4577620917057252,-0.5749046474171106,-0.25587226542728214,-0.010401459212072797,-0.8043602384135473,-0.054963052614697125,-0.7581269872165008,0.37295557714557787,-0.47316135247853464,-0.14395023305313454,-0.7664957483296324,0.4378397692652943,-0.3118530077620332,-0.3761037675945146,-0.4790246448692368,-0.5262638120651232,undefined,1498060934497
903d185fccf839df,-0.5336969283301479,-0.3884940557760914,1.5193378155923871,1.5367851445792462,-1.0513331459927757,-1.790268312335501,1.936057163970576,-0.55357349723152,-0.4132296503030197,-0.8161252932378554,-0.1952775332269858,0.05555258864873273,-0.8609347147950089,-0.009597188718170207,-0.8918113634049185,0.14462676874965377,-0.33071443184168897,-0.17743250512941608,-0.8269062137936527,0.3758918240830089,-0.3688212322957985,-0.318866607997605,-0.3509063627442779,-0.5068435711787195,undefined,1498060935987
903d185fccf839df,-0.5655751996837005,-0.326270349063255,0.8079551253969123,0.963479367204158,-1.2459693937164105,-1.6902996952987688,1.9505500291903601,-0.3508824570973791,-0.4069681623671726,-0.9927824074159212,-0.13448682720489571,-0.03441894034245868,-0.8565828319964349,0.0015128145378691855,-0.9233903400511609,0.053699413950417864,-0.4448437247958693,-0.19593103614133417,-0.8951950868611852,0.2537359587942961,-0.4224940886565551,-0.32114628765006054,-0.32026225768239736,-0.6232531658375975,undefined,1498060937491
903d185fccf839df,-0.6528941409875222,-0.29809365838142077,0.5227639114387203,0.5186741940006186,-1.3205921238520104,-1.527695503136192,1.855708700705428,-0.6867518461595472,-0.41372144469030303,-0.8690150208558767,-0.12382857454142093,-0.05879452964606253,-0.6825075200534759,-0.09014472527523035,-0.9297061353804094,0.025410978312919198,-0.5368796389990078,-0.28894298017480335,-0.9065159282849242,0.050923032421176,-0.5043301321115177,-0.29445165051575944,-0.38274113491829304,-0.5991088069201741,undefined,1498060938995
903d185fccf839df,-0.5849794203641309,-0.1642540049858057,0.23884897324053242,0.003659556261493458,-1.1950654769644802,-1.2281739715820592,1.782481757790095,-0.4194357543769536,-0.13787981347663925,-0.876066300502879,-0.16714482905746583,-0.023662581524054736,-0.7042669340463459,-0.40863155866941536,-0.9791798973625356,-0.22514442981917515,-0.7302401692524467,-0.46104072476295654,-0.9686126241119722,-0.12931577139298475,-0.639891689736815,-0.40393650090068606,-0.472662707184186,-0.5741140400684276,undefined,1498060940498
903d185fccf839df,-0.6542802578019671,-0.6033418081404502,-0.3219631654344654,-0.40597809489990233,-1.17004037861855,-1.0883730344528606,1.711227153854713,-0.5786569790089795,-0.23040284707287764,-0.767851132468545,-0.05721978507284988,0.02812003879841578,-0.7521376448306596,-0.4641816397034851,-0.990758813746833,-0.41710215214532503,-0.772773462279832,-0.5970216903685602,-0.9803532726957489,-0.42371864942281834,-0.7626745694177001,-0.43412093713083677,-0.47975399900496835,-0.5371935426320504,undefined,1498060941980
903d185fccf839df,-0.5988396223571077,-0.557554638286982,-0.410646795305255,-0.4715933188620979,-1.1165444673712275,-1.0823123523635079,1.7188325538517513,-0.53152109538076,-0.2095712752682907,-0.7793819604141579,-0.027862483687580254,0.006254105172417699,-0.7216744652406417,-0.4984374679670362,-0.9791798973625356,-0.4918646583155544,-0.8251419186606189,-0.6558357376416362,-0.9733494650510144,-0.4893006291439697,-0.7979822671456417,-0.44297056439207094,-0.5321198743587898,-0.5248749327776097,undefined,1498060943577
903d185fccf839df,-0.5974536435643018,-0.5945363493446908,-0.3347233816650143,-0.4895677811054797,-0.9579595936169488,-1.1987440358941936,1.7712656245434486,-0.47649301814878053,-0.3580171961305825,-0.8809995593982279,-0.021620640559286395,0.10032560266055972,-0.5954698640819964,-0.5336191600537312,-0.9823377950271598,-0.37264881134937683,-0.7653934418140576,-0.6682103086958568,-0.9499311401050274,-0.2978825557532167,-0.7633464170088078,-0.45197848946125163,-0.5499993228313836,-0.31407456659061717,undefined,1498060944986
903d185fccf839df,-0.7014047444467124,-0.871607896105863,-0.5063481628974223,-0.5749817350819846,-1.0852039502534718,-1.3121942914863995,1.8125299057834965,-0.5931300607037715,-0.35658201250417754,-0.8459504567246946,0.027239469156206543,0.03503530641056233,-0.5388953877005348,-0.5752816722638789,-0.97602197761121,-0.2594947437550845,-0.7451087928077075,-0.7255741114903167,-0.967486138044075,-0.20704712731756736,-0.7804956744186595,-0.42618379176138926,-0.5440924411804361,-0.23967647902222836,undefined,1498060946491
903d185fccf839df,-0.767933451771888,-0.5998196012397526,-0.4419091980016251,-0.6042111975439639,-1.0730462558218634,-1.2734730178806586,1.7640783554407162,-0.791274232178135,-0.3593194431468253,-0.7564102214291626,0.019484282992009508,-0.06463771470792416,-0.27778241978609625,-0.5613941617184425,-0.9854956632428489,-0.24737110021714925,-0.6752925576175812,-0.7776245747941314,-1.0074379283456478,-0.20446018868452573,-0.820457491999487,-0.4042677740260834,-0.5065194798249142,-0.18692730321161236,undefined,1498060947993
903d185fccf839df,-0.8607963427523434,-0.6045158381366931,-0.43425306826329574,-0.6183330598120208,-1.2634550754169565,-1.1528393878719108,1.723466259174521,-0.8035989139271081,-0.23875540995289743,-0.5747803179928667,0.02061316349027316,-0.1472356625342162,0.379351882798574,-0.5799108359703039,-1.052864166387456,-0.08774306101665158,-0.6701730754283718,-0.7594300271439043,-1.053120106950965,-0.15864981412801427,-0.8211882050305048,-0.4124908989844408,-0.4698790053599209,-0.17753572636667228,undefined,1498060949497
903d185fccf839df,-0.7776354758485788,-0.46774110975047106,-0.48848386017465384,-0.7090360087380961,-1.271652776474751,-1.1938735960912041,1.7231612103529126,-0.8878558714651746,-0.2078374179563281,-0.6061491628128182,-0.0033345834286440694,-0.16175786413037369,-0.1994485294117647,-0.7002692250827903,-1.1760222231623212,-0.3382984408840244,-0.7165686784574556,-0.8091689672678307,-1.0928619929690568,-0.19029361985669088,-0.8678651938927184,-0.41029258112624173,-0.4323774821539722,-0.15605073122754315,undefined,1498060950989
903d185fccf839df,-0.8303040501915968,-0.3708835181484728,-0.6709552064084525,-0.7915422206538651,-1.411630829349759,-1.3560608511443597,1.8088797406709995,-0.7603663625128377,-0.19453312244615098,-0.6679000542023629,-0.028361658554240058,-0.009011219547525236,-0.6389886920677362,-0.8817326903819789,-1.2002327706974014,-0.5747095746679264,-1.024727663044314,-0.9408435325237544,-1.1476050405830682,-0.45474652181659253,-0.9976785570632176,-0.4492551437681426,-0.5045320705541824,-0.368847438043698,undefined,1498060952490
903d185fccf839df,-0.9467292966370066,-0.972574592694711,-0.8055756147092182,-0.8821205013880093,-1.6522544265218628,-1.5376413534774718,1.8766288024477975,-0.8276358186619345,-0.28023023373461126,-0.6924647215007571,0.07461031627888431,-0.02402412610903732,-0.6128773952762924,-0.9706127293810686,-1.207601209011356,-0.6050186835127644,-1.0438662241677008,-0.9833249191823163,-1.1871020380063793,-0.6331067142631707,-1.0616670989798993,-0.45919189257732296,-0.5466818009048889,-0.4938492797756002,undefined,1498060953984
903d185fccf839df,-0.9536593717544377,-0.983140862660896,-0.7909012389756123,-0.8487207784235453,-1.59911851595122,-1.6256446677591507,1.9139851988834335,-0.7193168527976804,-0.2625092282362023,-0.5316915295717485,0.09987033107769057,0.06422776013424034,-0.5519510360962567,-0.9854260843234872,-1.201285404479315,-0.57268895799003,-1.0323471161906874,-0.9699180780761408,-1.1731853812705415,-0.6268549455062146,-1.0374922229353956,-0.4628310253439326,-0.6154804036707859,-0.4897376644628034,undefined,1498060955543
903d185fccf839df,-1.0229600884233399,-0.6473679329995543,-0.7647429227714617,-0.8446437417095538,-1.7030966273671126,-1.7263539865502664,1.9215222208478517,-0.8061699669103874,-0.21987734328667252,-0.5389736721024456,0.09137308798029836,-0.06945771988351,-0.5737104500891266,-1.05949278780632,-1.1949696128311835,-0.5949156566527256,-1.0832229614845115,-1.0312779694715881,-1.177271518749116,-0.747686546707828,-1.0882509583793396,-0.45902047449615346,-0.6317473468795156,-0.482411929799317,undefined,1498060956985
903d185fccf839df,-1.2031420069711414,-1.0559307808839327,-0.860444290363629,-0.925074593962097,-1.7700050867663937,-1.8331519358386978,1.9441858995707275,-0.8097554931498523,-0.1872134500245243,-0.5516513486149874,0.10496202605647272,-0.02322795174856308,-0.8304715352049912,-1.0844902967512555,-1.209706474734625,-0.851532858289066,-1.1578516694209227,-1.0923528786064094,-1.2027609007789681,-0.8990070697584657,-1.1531749831691136,-0.4551822732134422,-0.6706961439515494,-0.46829285218667305,undefined,1498060958489
903d185fccf839df,-1.3029350507061999,-0.9543770692969633,-0.9057436933244513,-0.9723281207477884,-1.94902764284271,-1.918574454648958,1.9481805705082451,-0.8943258967854587,-0.28882194317667154,-0.6773324020618534,0.08374152578896216,0.010141265879411701,-0.865286597593583,-1.0983778121532326,-1.269706541405836,-0.9909547872400429,-1.2549519698693996,-1.101649639526181,-1.2319515958482212,-0.9696089417796694,-1.1804676393813078,-0.4566387605136309,-0.6729604164879069,-0.47280230979650334,undefined,1498060959991
903d185fccf839df,-1.259968586703397,-0.890392346817755,-0.8872409985847312,-0.9412410748735031,-1.92418768469286,-1.9727502299328827,1.9595729042532821,-0.8557945681197593,-0.2965381326497709,-0.6643343062034892,0.08242799103419729,0.0074419672110742794,-1.017602495543672,-1.09930364359944,-1.261285482193877,-1.0919851794985882,-1.2829112997766439,-1.09637429734879,-1.229117887559391,-1.0802929681322202,-1.2017359061882658,-0.4567323030283563,-0.6668413288884472,-0.470369848124556,undefined,1498060961499
903d185fccf839df,-1.2183881532515146,-1.0700191116108537,-0.8610826823805806,-0.9009841087621031,-1.8888460302888437,-2.0281977689989077,1.9681828860308677,-0.8399300729386867,-0.2884880540545154,-0.6661131517090481,0.08502412417846303,0.0034178840254130175,-1.0393619095365418,-1.120597821903005,-1.284443414352628,-1.1323973399350966,-1.327607092966765,-1.1585638035410126,-1.2615411089967525,-1.2123038410240083,-1.2766674301649839,-0.47411656199056257,-0.669706119450339,-0.529376174974506,undefined,1498060962995
903d185fccf839df,-1.198983949823789,-1.0729541866014607,-0.8527881606252997,-0.9025924223584729,-1.8805969010019237,-2.033135756209627,1.9690060139912282,-0.8369516523264887,-0.28944865391475605,-0.6628725370106172,0.08599336201076417,0.00031063853270429194,-0.9566761363636364,-1.1131911541448765,-1.2886539347558152,-1.0839027587171752,-1.3305404465995343,-1.15475770444073,-1.2694824893478984,-1.161473572713515,-1.268892544224229,-0.47577654070271386,-0.6691046555413256,-0.5272759157531028,undefined,1498060964482
903d185fccf839df,-1.1684916141312804,-0.9984031941560674,-0.8566169879053127,-0.8974078551655551,-1.807568451180576,-1.9696430248226022,1.9730637970693075,-0.7405064170063855,-0.24364777241607175,-0.6635451845130097,0.08342386391738588,0.03723645774715734,-0.8304715352049912,-1.0872677991841122,-1.265496009959298,-1.0212639102172418,-1.2909981146486302,-1.090440328408844,-1.2491637505253255,-1.0765049504178106,-1.213099489741142,-0.4653664760920412,-0.6691920870840893,-0.5186328660931949,undefined,1498060965991
903d185fccf839df,-0.8164438654513247,-0.6837628628830803,-0.7558105172731281,-0.8103818830724902,-1.529731202261329,-1.921173885654142,1.954237022026566,-0.7758990142810226,-0.27735527919532443,-0.6351879017597087,0.05128306200977708,0.04940161562017402,-0.6346368092691622,-1.002091082732159,-1.1981275178580415,-0.908109870887671,-1.090765570495917,-1.009631967157299,-1.174969567836114,-0.9689622064516591,-1.129676167246636,-0.43692801346934823,-0.6484576593091419,-0.4694618690655389,undefined,1498060967532
903d185fccf839df,-0.5711192873819733,-0.500026993103132,-0.7417745335564737,-0.8039237739935453,-1.2047957487574952,-1.9667734015335756,1.9511548923671727,-0.7739736365871959,-0.3886781212242647,-0.6365294320985886,0.051018037946859926,0.09758905462159591,-0.7521376448306596,-1.0002394133643566,-1.1876011800389044,-0.6737193679140262,-1.0582115534035081,-1.0088023514469742,-1.1707644843585385,-0.7919262802596123,-1.087446836695505,-0.43897927243687523,-0.6790362284848549,-0.4855633024156826,undefined,1498060968985
903d185fccf839df,-0.7388271034985378,-1.0072084410488824,-0.7979194849708888,-0.8340777707000613,-1.0556737142900896,-2.0888628041050183,1.9600515368638405,-0.7932589995819904,-0.30416843847630815,-0.6561002361004046,0.0686710710528523,-0.03651066867840518,-0.865286597593583,-1.0011652545236451,-1.2086538464743863,-0.6797811755506331,-1.0782429838310552,-1.0073901050622824,-1.1659017008787698,-0.7675813385475256,-1.0805251999684125,-0.4408188741062527,-0.6845428513243031,-0.48937404755664926,undefined,1498060970488
903d185fccf839df,-0.8178298614968356,-1.0600398347217959,-0.8789469851033491,-0.9118193420901181,-1.0809148136101756,-2.1495511320373066,1.9673623957303847,-0.8069534368181766,-0.26978288190546673,-0.6663332059325049,0.10061229214536528,0.0343800356203601,-0.7826008244206774,-0.9817227391124953,-1.2202328015104111,-0.7040284767588644,-1.0904168246329216,-1.0116268442772611,-1.1696379977706912,-0.7369076355416183,-1.0760770655510121,-0.43871509319432106,-0.6876477359677905,-0.49579927262722095,undefined,1498060971990
903d185fccf839df,-0.9120789037971457,-1.0723671716033392,-0.8776712176172436,-0.9277405336611264,-1.0849673790395398,-2.1510930882917085,1.9660606362069886,-0.821613998261896,-0.274791328934053,-0.6683495308821741,0.10064517233681726,-0.007425125306741429,-0.6041736296791445,-1.0854161298163099,-1.2560223206465422,-0.760605482291289,-1.1271022783486495,-1.0695922777730396,-1.1946236093317835,-0.7784064460597474,-1.1224517288776945,-0.43542124348468453,-0.6641223814046217,-0.48853697568333043,undefined,1498060973489
903d185fccf839df,-1.0922608395976519,-1.0876295761684915,-0.906381577067504,-0.9387493281047525,-1.0187686307633996,-2.1583393513698064,1.9695083027864582,-0.7951022650321995,-0.2727293982454651,-0.6600135410122707,0.10066871266973879,0.05106523723922962,-0.5954698640819964,-1.1307819904751433,-1.2981276351119218,-0.9444808085676571,-1.2718927460031215,-1.1608183314957008,-1.2751429091513842,-0.8950034762444862,-1.215352618989033,-0.4763779612584649,-0.6731262361153094,-0.5199862298652023,undefined,1498060974989
903d185fccf839df,-1.0922608395976519,-1.0964348084473103,-0.8642726093697431,-0.9087739691597256,-1.0941627909956189,-2.165359678097897,1.9683327717342731,-0.8165182937399832,-0.27631503728169776,-0.658479993604175,0.09925862349023551,0.01685414687810484,-0.8304715352049912,-1.1298561590289355,-1.322338186328119,-1.0475318210371891,-1.3303468352876178,-1.160128040933845,-1.2830003278454145,-1.056933527978756,-1.2545568566466343,-0.47616209834189105,-0.6741664978312639,-0.5287771782815904,undefined,1498060976497
903d185fccf839df,-1.0007838238937734,-1.0623878947142813,-0.889793041830841,-0.9263608507855075,-1.199940898707065,-2.1504129501093847,1.9688902942586537,-0.8197674232311605,-0.2883589606166827,-0.6623244870183287,0.09904160994260086,-0.05497636456600429,-0.7738970588235294,-1.1298561590289355,-1.3307592529023118,-1.0758203132041309,-1.3311125071207277,-1.1627688784639274,-1.301919704376428,-1.041103925427245,-1.2566612241840998,-0.47660472223804246,-0.6745851525255039,-0.5309480649792343,undefined,1498060977988
903d185fccf839df,-0.996625783999126,-1.023057860612156,-0.9019153743183371,-0.9469559664296366,-1.204847177824839,-2.1368474609267762,1.9694767367647206,-0.8132113939480274,-0.29487742245134974,-0.6648824587615377,0.09716540532335435,0.04074222836378543,-0.7782489416221035,-1.1372628235493705,-1.3318118866842255,-1.0717791010468791,-1.3196271447294767,-1.1666319741458933,-1.3050752661429799,-1.045400092151015,-1.260022834589141,-0.47621201955633274,-0.6753649446938756,-0.531505226364782,undefined,1498060979539
903d185fccf839df,-1.0603824647278701,-1.0277539805971272,-0.9574224419896996,-1.0023623404883242,-1.2539613802812917,-2.1435370361670456,1.9678804392533953,-0.832410848758736,-0.29459551101166687,-0.6723347813694963,0.09382359108774614,-0.11418463772389607,-0.8217677696078431,-1.1354111574192618,-1.3307592529023118,-1.0273257319862095,-1.3127220338118333,-1.1658023583691284,-1.3024654557899693,-1.0303404116294967,-1.2540596035763587,-0.47621618316992304,-0.6764248941311222,-0.5333821584018491,undefined,1498060980999
903d185fccf839df,-1.0867167864047889,-1.0606268497199172,-0.9338161690316588,-0.9784781604079689,-1.099110208252336,-2.1550900626876226,1.9676306157807624,-0.81882799266733,-0.2841105804048667,-0.6736636813041239,0.09439747059581279,-0.08124131461628861,-0.5345435049019608,-1.140040335695308,-1.3307592547428702,-1.0374287729786091,-1.3106476693355942,-1.1693931373345496,-1.303305073144107,-1.0339436480254756,-1.2563268160171257,-0.476234420230122,-0.675783161639184,-0.5337319496611528,undefined,1498060982490
903d185fccf839df,-1.2377923739319447,-1.1205024452912815,-0.9504041959944229,-0.9921506297851819,-1.0414383077803782,-2.169640819912151,1.9658055332245141,-0.8285670567109467,-0.27938197949199195,-0.6713066935114501,0.09489132470092616,0.037862703556552295,-0.5345435049019608,-1.1539278389559338,-1.3412855815186566,-0.9970166090090106,-1.291810548315115,-1.188448964677112,-1.3125618539706534,-1.0691290952644361,-1.275179251926205,-0.47638774208791695,-0.6718255543669132,-0.531796595038972,undefined,1498060983980
903d185fccf839df,-1.276600746281986,-1.1070010930274914,-0.9816665986907931,-1.032257789961782,-0.9707858579779592,-2.167292946758805,1.965361105343093,-0.8224687295363385,-0.27935702896259745,-0.6739268852573873,0.09480129179715482,0.01452885124076268,-0.47361714572192515,-1.1687411801381544,-1.3349697825082911,-1.104108830102704,-1.3461332024750663,-1.2014188333173372,-1.3063137019006001,-1.1660007157824217,-1.302179470691876,-0.47612677273180354,-0.6713387210130104,-0.5298965645578915,undefined,1498060985490
903d185fccf839df,-1.2031419724657315,-1.1128712430087053,-0.9976172501844033,-1.0434516693941074,-1.066062269175171,-2.1489408711511175,1.966126368199557,-0.827599346791739,-0.2892033914426241,-0.6770706009947642,0.09405891578245419,0.06711554463315077,-0.6955631684491979,-1.1724445188737591,-1.3412855796780982,-1.1667476680033668,-1.3658769068291632,-1.2064535234854974,-1.3109525874812518,-1.2293653191977603,-1.3196878305487092,-0.47629975136518776,-0.6726218468924136,-0.5298015400149806,undefined,1498060986980
903d185fccf839df,-1.1407713740460228,-1.0987828611327979,-0.973372585209411,-1.0192219962516553,-1.1224587459910822,-2.141585133524441,1.9683222629956365,-0.8184915965797811,-0.2903908970172552,-0.6750244380197015,0.0935282814273741,0.03775125830437836,-0.9262129567736186,-1.174296183385021,-1.343390849082484,-1.1728094933054245,-1.3752494161027942,-1.2105382722293918,-1.316508055298982,-1.2408987549178025,-1.3268243291921442,-0.4764702540806691,-0.6725705896150822,-0.5276970794144814,undefined,1498060988486
903d185fccf839df,-1.296005001467826,-1.0588658120325511,-0.9797529474616349,-1.0252682300387002,-1.183699783961552,-2.120465921575533,1.9680513864299898,-0.8229860544617111,-0.28995655592573144,-0.6746496819044057,0.09355543058369495,-0.06868691194934488,-0.9566761363636364,-1.1789253559951034,-1.3454961129651946,-1.1950361813688497,-1.3827389355460913,-1.2128117990483323,-1.3174526247489826,-1.239959449745579,-1.328073224313177,-0.4766196665751422,-0.6726564285182232,-0.5280427155009955,undefined,1498060989985
903d185fccf839df,-1.2779868285910212,-1.092912711151584,-0.9905990041891267,-1.0358124768253785,-1.185756924441525,-2.11622204783204,1.9705707371006405,-0.8055218538682792,-0.287691008059343,-0.6700997169342889,0.09358439812026516,-0.04954053041107029,-0.9262129567736186,-1.1798511898695812,-1.3454961111246362,-1.1950361813688497,-1.3850190238481819,-1.2131474449912572,-1.3196356297363887,-1.2304278118527798,-1.3268730905660238,-0.47658705316047245,-0.6729192724778488,-0.5279205661479518,undefined,1498060991539
903d185fccf839df,-1.248880480317671,-1.0917386957693374,-0.975286744712468,-1.0138481388164506,-1.2246677162360249,-2.1029057875193704,1.9663393670910467,-0.8297205475709378,-0.2785162761969927,-0.6182511349736618,0.10040596132793386,-0.0155350450661737,-0.7956564728163993,-1.161334512380026,-1.3391803157953877,-1.1485622097626442,-1.3549966170310555,-1.1883349717961156,-1.3132965190454169,-1.1785350506987944,-1.3036753955370843,-0.4745514224716788,-0.662030355032787,-0.5244567821631122,undefined,1498060992983
903d185fccf839df,-1.1282971853512616,-1.0858685311741274,-0.870652971621967,-0.9082223559790726,-1.1674483850333948,-2.106641887032732,1.97240895872275,-0.7697358003508487,-0.27875027035898503,-0.6264016544078922,0.11066776525598138,0.04359716246143337,-0.8130640040106952,-1.141891998587723,-1.3265487251368906,-1.0919851830316785,-1.3078988771676627,-1.1677339060246328,-1.2945590595237924,-0.9874249430802491,-1.2428968077994555,-0.471854597258365,-0.64746295621554,-0.5094577305968576,undefined,1498060994509
903d185fccf839df,-0.7443711566914007,-0.8399090131373272,-0.5452672036060205,-0.5208911431379438,-1.2339968437159852,-1.9769475178482463,1.943299642185696,-0.7814997317476149,-0.2898998798630308,-0.719599820171108,0.004772175982939098,0.11947114315120887,-0.6215811608734403,-1.0428277732091802,-1.2591802183111664,-0.7464612291416377,-1.0184998769788896,-1.0191503816705192,-1.1998012498576556,-0.7331042173085668,-1.09525197706065,-0.3021917558845402,-0.4385526876078915,-0.35176885695687926,undefined,1498060995981
903d185fccf839df,-0.33549680240013213,-0.3914291307666984,0.20631029478415802,0.16286081117282838,-1.1586335389344538,-1.8682954965071972,1.9741972381720516,-0.4201685537032848,-0.28186635818109107,-0.8030498159482976,-0.136077688488668,0.03170779927311116,-0.6955631684491979,-0.7669292705205758,-1.1244432009786014,-0.2938450435586331,-0.6557936944209432,-0.8440444894557113,-1.123424062077048,-0.4109995348169543,-0.9289504298144137,-0.2762951248213006,-0.23267186872569365,-0.32892423776674645,undefined,1498060997493
903d185fccf839df,-0.5253809002989681,-0.3744056958211781,1.0963362663442668,1.080104864746694,-1.2059168891945475,-1.7920921057574175,1.9739921114068437,-0.3328704372259408,-0.30168743189051994,-0.9307746295114608,-0.15985259337084673,-0.025626614441520472,-0.6128773952762924,-0.52898996397037,-1.0233904683483919,0.05976127811646779,-0.3958813614156921,-0.6817818071515344,-1.0579409092902061,-0.10110582228363364,-0.7700532697674793,-0.29001336250876086,-0.2988678850773915,-0.38765171837927453,undefined,1498060998996
903d185fccf839df,-0.6307179282160701,-0.5751649420906619,0.2822337084243987,0.30520610433724216,-1.2202448667435444,-1.848096334624234,2.003716812429609,-0.24975035726773134,-0.27227236378041053,-0.8518277935998216,-0.09641127634701892,-0.030365537000801572,-0.4866727941176471,-0.5539874777718459,-1.0307588900973204,-0.04935155612203175,-0.4860457351430969,-0.6477232360932772,-1.033619994786866,-0.015351878920148389,-0.7307960173450468,-0.3113554159070833,-0.363863595432979,-0.42532999005387434,undefined,1498061000498
903d185fccf839df,-0.6861585291555197,-0.7941217994418706,-0.34174111938639207,-0.38027159820408124,-1.2507625323633333,-1.9481488045246917,2.0045373069201795,-0.39962117664631375,-0.32527401208852375,-0.7759051260130756,0.07431328133414497,-0.08639848396178063,-0.9001016599821747,-0.5002891179086767,-1.0012851736526716,0.20120383787770182,-0.40930667736514065,-0.6240443593236253,-1.0102716370076186,0.25345878166058516,-0.6545654384305727,-0.32982547729945394,-0.3520376364853004,-0.45852882820563073,undefined,1498061001986
903d185fccf839df,-0.7374410556949123,-0.8334518335439959,-0.373004030356661,-0.42847895210896403,-1.2653167916922508,-1.9682967238959796,1.954150227513287,-0.7776801805037853,-0.2565574017527896,-0.7892166831876984,0.11818794572088719,0.15223416182722926,-0.8087121212121212,-0.5280641454749371,-0.9981272686258135,0.2618220838320996,-0.43025513088647666,-0.6015560758435164,-1.024950945315445,0.3041350619894907,-0.6423503625911164,-0.39006758608558656,-0.3719936047208012,-0.45046479909823045,undefined,1498061003551
903d185fccf839df,-0.6930885956465984,-0.6685004729319243,0.04808361352535162,0.03925982253744777,-1.065146843109,-1.9440866114410977,1.9759697278015926,-0.5359833366509242,-0.27193382207161965,-1.1546735916049713,0.11614798080023601,0.14344352213283706,0.39240753119429594,-0.3864115910096602,-0.9970746311627828,0.4032646294609729,-0.32772713977342727,-0.5162196597076099,-1.001889456855546,0.4307102828310011,-0.5764501575967304,-0.29791622899784975,-0.16024600664992775,-0.38461873319160667,undefined,1498061004991
903d185fccf839df,-0.39093748960310604,-0.6409107095642343,1.3770612775532922,1.351100396249311,-0.9562007394613805,-1.8976276059808574,1.977263594772033,-0.41985014617701943,-0.30533772206134535,-1.4181973614167735,0.22793958303516973,0.20355931378578315,0.031201258912655985,-0.229945662175803,-0.9581272180431445,0.6093667391942014,-0.27024623682708143,-0.4180400336610723,-0.9747488271407111,0.6095786263062865,-0.4877503757810981,-0.20600465314030225,-0.050834683844668854,-0.37275804197890483,undefined,1498061006521
903d185fccf839df,-0.46301018111032516,-0.632692499590535,1.3056040666622184,1.2152504133302062,-0.9540510284062432,-1.8872741373462485,1.9438072036818754,-0.6171728476778191,-0.3242854011054824,-1.434374190038029,0.18669113067795332,0.08992830935189726,-0.865286597593583,-0.19661563298152301,-0.961285104664418,0.6376550900375354,-0.3622168655935744,-0.36697750812032426,-0.9584042768043348,0.72348092571084,-0.4361044413163114,-0.25428138627079483,-0.09900770850598367,-0.3846910192411078,undefined,1498061007982
903d185fccf839df,-0.4103415722618973,-0.6820017886607238,0.5948592602097962,0.6511533326245013,-0.9561287375395794,-1.9133825800667597,1.9930345366187354,-0.36185201923964605,-0.28265582527957744,-1.1305603931329877,0.1714455732791427,-0.05907450509218448,-0.847879066399287,-0.2567948000173703,-0.9739167026851487,0.5527896418014318,-0.4865687302153324,-0.3102533312863345,-0.9492874323360145,1.1327408072610023,-0.3183950884661115,-0.2793013857177841,-0.4011253318932545,-0.5420393243765745,undefined,1498061009490
903d185fccf839df,-0.5822073937676993,-0.7277890461981691,0.23310700300526013,0.11496521195067361,-1.0030726550941786,-1.9085144692832703,1.992740004392177,-0.4116411704013203,-0.29904845477963843,-0.6182157455072518,0.046698277076791125,0.014259211544649963,-0.8391753008021391,-0.36604323443922193,-0.9991798913643765,0.4760064341591413,-0.5448739167507235,-0.3572057758987652,-0.9626583380926224,0.8093734582873716,-0.4132052824702199,-0.2952076050707204,-0.29870495691270954,-0.4811203751751341,undefined,1498061010990
903d185fccf839df,-0.551715066701543,-0.7477475269063039,0.1437854893914178,0.11973212933788516,-1.0449868716382276,-1.9498724406452905,1.987640802382145,-0.5022021686193552,-0.2908758943641401,-0.5440366536946153,0.05170106865217678,-0.05128164035624498,-0.8391753008021391,-0.5873175522938369,-0.9907588284713006,0.11633833311215509,-0.688194934591182,-0.4844536128154986,-0.9784991175870981,0.6590384372934617,-0.5054242352284349,-0.3397435156605856,-0.5086472476211975,-0.5458058178574005,undefined,1498061012490
903d185fccf839df,-0.6154718164411066,-0.7706411410610303,-0.1630980921587074,-0.22333744132956737,-1.1914551930808779,-1.9597973282961494,1.9969476794587921,-0.4747809127000768,-0.2793990814080351,-0.5826683217269746,0.05459869121246289,0.013522245585417356,-0.9131573083778967,-0.7243409171511397,-1.0128641268481378,0.678067310536577,-0.5291429739472652,-0.6691475817523411,-1.010796396685596,1.0884394881125172,-0.48172760111299234,-0.45436695943805605,-0.841855600252784,-0.5735496252539379,undefined,1498061013988
903d185fccf839df,-0.8400061432791072,-0.6919810582427836,-0.3691757113505469,-0.41555374785212673,-1.3729771781287379,-1.9582600311970046,1.973358324582018,-0.6574558209532566,-0.2615120592163525,-0.7618430031567769,0.034373549464097757,0.13505917965737715,-0.9392686051693405,-0.8030368037665593,-0.9918114806587988,1.6580619617550434,-0.35846151618407146,-0.7804237352296021,-1.0100827221535698,1.6300336094107342,-0.4017309411503043,-0.4495383106038922,-0.8339370096306133,-0.34557926187229815,undefined,1498061015546
903d185fccf839df,-0.9342551683267123,-0.8328648185458745,-0.6639374686870748,-0.7429247046323274,-1.500859250518307,-1.9305677069970908,1.9711519189522582,-0.6951276552338865,-0.2789592250374969,-0.737239337074605,0.05724330496908346,-0.0576250711122485,-0.8174158868092692,-0.836366826485452,-0.9928641033973618,1.336785549323367,-0.35932811597897707,-0.8477175950390123,-1.0242442669825895,1.161628300961119,-0.5386944281644095,-0.43104754740303874,-0.7343763392680338,-0.22451836848719095,undefined,1498061016989
903d185fccf839df,-1.022960071170635,-1.035972212491821,-0.810041817458385,-0.8789219863752104,-1.6669424012426266,-1.895049137477635,1.9486592041663249,-0.8436939751246217,-0.2698606076911725,-0.7513199093586115,0.06904838385597133,0.037493829199939814,-0.6868594028520499,-0.8808068427473033,-1.0023378037534683,1.4842898319270432,-0.11257646996206534,-0.9430347306928587,-1.0702762861500918,0.9523634253671254,-0.6363032891828677,-0.4062515331419047,-0.5730899085047795,-0.12926869229509033,undefined,1498061018491
903d185fccf839df,-0.8926747348748301,-1.0365592274899422,-0.801747803977003,-0.8609762839935892,-1.566193999853114,-1.8348662544678538,1.9416113172659701,-0.7983733288765948,-0.20249096675292033,-0.7810770824808958,0.05190926838957241,0.04471866704611444,-0.7521376448306596,-0.9780194003768906,-1.0981273932419275,1.5994645303315926,-0.1591899079568156,-1.0229121497498102,-1.1143911791985552,0.8630216417375904,-0.7001397720277401,-0.45200473894519766,-0.515371592655782,-0.05080065243446374,undefined,1498061019990
903d185fccf839df,-0.5946815652097557,-0.9262002909311521,-0.6964761471434492,-0.7411469379800455,-1.3756103218939724,-1.8105583130425538,1.9527827265696251,-0.6717056404810776,-0.20128885888380024,-0.7445247833040008,0.05793143302202795,0.04909090967036857,-0.7260263480392157,-1.0048685867838625,-1.2065485807511174,0.06986429084414589,-0.813923218622881,-1.0438995250745404,-1.1554274752838858,0.19706967350738452,-0.8801264072324491,-0.4530747096099478,-0.5050784935678964,-0.0838511029314966,undefined,1498061021489
903d185fccf839df,-0.7124928508324384,-0.9056547659969035,-0.6020500387634885,-0.6454899771350691,-1.0754736808790868,-1.7633492930225925,1.9395442739356739,-0.6759622149140031,-0.28718954480461284,-0.7638800590095363,0.06514474859352763,0.02739389440246112,-0.9262129567736186,-1.0224594295895164,-1.244443360088842,-0.7767703662511974,-1.177690206639808,-1.0568693940746492,-1.2079105532844665,-0.7109304587603108,-1.1148713147093354,-0.45969338579950736,-0.6188126630448004,-0.47571357751776466,undefined,1498061023002
903d185fccf839df,-0.8732704624362851,-0.9667043842575125,-0.5854615035268255,-0.6242981889426692,-0.9816475498414857,-1.7924927354646416,1.968009301194397,-0.5277848017640071,-0.31151407037010215,-0.6826120847926853,0.08437319659123227,-0.17662834189745397,-0.6389886920677362,-1.0057944247054573,-1.2297064963448423,-0.8030382629387839,-1.1932373736956607,-1.0313602969864075,-1.2005848924066926,-0.8024896158281867,-1.1200393549825145,-0.45988005312249824,-0.6261581200827795,-0.49450348182294296,undefined,1498061024511
903d185fccf839df,-0.7720914226557157,-0.8674987911190133,-0.4814661224532761,-0.525158611657559,-0.9028385371602258,-1.7430779249191304,1.9294090071966952,-0.6968711087630326,-0.3155361505855809,-0.5712658718782776,0.07912446321898445,-0.33262899986128036,0.9407447638146168,-1.0057944214677637,-1.217074903845787,-0.7727291258292243,-1.196179255242605,-1.0096572991977688,-1.1948195199935112,-0.7710151926090123,-1.102136137608371,-0.4634362722133384,-0.6342524290822734,-0.4946855821137669,undefined,1498061025990
903d185fccf839df,-0.6210159041393793,-0.8217115043535758,-0.4074563600421936,-0.47209901926880765,-0.9335310577631827,-1.796843753571577,1.9209909921680204,-0.8149495291612636,-0.26462580192641444,-0.528718762470516,0.06105475258531071,-0.4420569372161054,1.0277824197860963,-1.0335694296078621,-1.2360222971957662,-0.8737595498855814,-1.2557570813506558,-1.046192051416596,-1.2123675215988128,-0.9171310401160564,-1.1526384013053033,-0.4735293444301947,-0.6808454241893412,-0.5263322770872371,undefined,1498061027545
903d185fccf839df,-0.6861585636609294,-0.7952958002101209,-0.4163887655405273,-0.4659297932865731,-1.1090050503517461,-1.8333848586061723,1.9579660602925362,-0.6363837569406651,-0.25514918954603544,-0.5509404177981037,0.057783311940392254,-0.33183304695819255,0.32277740641711233,-1.0335694425586366,-1.2581275845292528,-0.8757801382987561,-1.256902542969579,-1.0453751016877493,-1.2158589303241478,-0.9036112058084931,-1.1517132199654003,-0.47149288609703416,-0.6796461856735444,-0.5256381855074324,undefined,1498061028988
903d185fccf839df,-0.8912886698184996,-0.48828672236869664,-0.3308950626589002,-0.4082084047235689,-1.3184527005404447,-1.7548918279644803,1.9089517382936665,-0.8207374299752175,-0.36510404772755584,-0.5557300977655439,-0.03883138742857703,-0.2501261047797586,-0.3909313725490196,-0.994684411736337,-1.17391694823626,-0.8192031186339708,-1.1901363455716663,-0.9862507388844379,-1.0648747490769732,-0.6419300229788629,-1.0215320669089467,-0.391919412178345,-0.6217957198935148,0.0742413405337821,undefined,1498061030533
903d185fccf839df,-0.9328691722812015,-0.311594944882228,-0.3717277545966567,-0.4392709752948977,-1.431801084353006,-1.6006123385124926,1.8947718390652093,-0.7021515134610883,-0.362210823279619,-0.5973762363426606,-0.014889783853466412,-0.30681973178703503,0.0660163213012478,-0.9761677342467819,-1.192864348948473,-0.871738897876783,-1.1742792917903968,-0.9805890873309729,-1.0846197493770733,-0.7038779696689267,-1.0351970662709489,-0.39472051909265315,-0.6174937757346198,0.10038014171653564,undefined,1498061031999
903d185fccf839df,-0.8857446511310464,-0.7154616727816353,-0.27092179223837093,-0.2854445927146109,-1.4148811138470176,-1.5328966969494542,1.8486345157704374,-0.8786816021566565,-0.3781225793350965,-0.7039484584263512,0.024802001226427013,-0.3906434074421996,1.1800983177361855,-0.8289601619650172,-1.1549695622485145,-0.8131413109973639,-1.000966112362409,-0.8603834832076861,-1.058192795142409,-0.6242834050628355,-0.9513911211958251,-0.3980051857236723,-0.565455787622714,0.12334717272925763,undefined,1498061033493
903d185fccf839df,-0.7790215409049092,-0.1513397627111122,-0.23646946255283832,-0.26866979155474446,-1.3852788796067832,-1.7207824477147255,1.9277732704898294,-0.6361439444176735,-0.306847650247968,-0.6948759204047287,0.07063183933559246,-0.5043119332189852,1.462970699643494,-0.7687809431260717,-1.1465484919932047,-0.8010176533270679,-0.9241817279084596,-0.8182124107062665,-1.0580178748460238,-0.5385910558580802,-0.9119928881000102,-0.4067827619541498,-0.5857256595481172,0.10576961108201687,undefined,1498061034992
903d185fccf839df,-0.6556662020893634,-0.7630099460854524,-0.3028230952255915,-0.33990334538085704,-1.2951144572590185,-1.9225527944765057,1.9279836484817905,-0.8789010077853261,-0.27226315268218654,-0.6488838528827543,0.0699125225589943,-0.5811362731154082,1.6457497771836007,-0.7650776108658544,-1.1360221725796522,-0.7848527764333398,-0.9101264228385282,-0.8208722468348411,-1.0640631196025168,-0.5453817699902594,-0.9153008291675562,-0.4027390711658286,-0.5832548167244037,0.1107128781517726,undefined,1498061036492
903d185fccf839df,-0.7208088961163233,-0.7741632310497587,-0.39533402755469743,-0.41268101532370954,-1.3268766918663701,-1.9573912274653718,1.9401517569644935,-0.8778161486925542,-0.22294723995738036,-0.4900117479896202,0.07755710036369502,-0.41610728952360515,1.432507520053476,-0.7437834293245958,-1.2139170025000459,-0.81920310450161,-0.9405137795971699,-0.777725901937263,-1.1883684615580417,-0.7612371782966909,-0.9697100547496931,-0.4372230660569768,-0.5608004802411021,-0.4726677482489237,undefined,1498061037997
903d185fccf839df,-0.8635684038541847,-0.20710615830465168,-0.44701328449384464,-0.5074858880465416,-1.3760834635856452,-1.7493365944426846,1.8988743293259316,-0.852731750992214,-0.2844524702498357,-0.5717406891429164,-0.007181172407733834,-0.29813760983838833,-0.19509664661319073,-0.7419317664321808,-1.1612853612588798,-0.81920310450161,-0.9670174178310124,-0.7675551942141982,-1.1456459340453147,-0.7686130329788844,-0.9516457724773706,-0.4486845984897786,-0.5621829726068097,-0.49483065523047004,undefined,1498061039491
903d185fccf839df,-0.9342551683267123,-0.8146673243761191,-0.454669414232174,-0.5332328729101995,-1.4836307105715474,-1.573572202148893,1.887350521120539,-0.7308029969304912,-0.2471562942936194,-0.6142911900012652,-0.0013154920460040286,-0.10620937546072078,-0.5737104500891266,-0.8409959837164896,-1.1707590542527526,-0.8858831792911558,-1.1161249338561878,-0.8747592652889259,-1.1601013451880715,-0.9077071907086529,-1.0377997217064947,-0.4626623608024147,-0.6258533909880838,-0.533122869939579,undefined,1498061041042
903d185fccf839df,-0.9813796722241626,-0.9050677509987821,-0.5356969143646342,-0.6330408449606022,-1.562861433324471,-1.4493468843447521,1.8371264979085662,-0.8892168117024163,-0.2616137525039105,-0.693918262457484,0.054043898911363186,-0.16847830991858373,-0.6476924576648841,-0.8437735039566613,-1.1802327619710928,-0.9161923093345351,-1.121762000085849,-0.8890527198664195,-1.1635437762556209,-0.9411064192720554,-1.0536015377225685,-0.46516045223128444,-0.6170524797677756,-0.5321666273500717,undefined,1498061042523
903d185fccf839df,-0.8580243851667314,-0.8674987911190133,-0.5873756630298825,-0.6547001188428847,-1.3619612020579597,-1.5317344023027208,1.8523267744987009,-0.9285643176095023,-0.3512696317922903,-0.6436878695088777,0.06449513811163562,-0.008124895404857215,-0.5475991532976827,-0.8419218086873099,-1.1886538101397013,-0.9404396105427664,-1.1422143402647158,-0.8733090221391098,-1.1456389370631606,-0.9283719044706448,-1.0372001268306903,-0.4764118404520678,-0.6219311216143444,-0.5351703106052228,undefined,1498061043991
903d185fccf839df,-0.6930885956465984,-0.5757519863167757,-0.5165568441557603,-0.5712175755019994,-1.3071487227260092,-1.680714873566528,1.8673692628810177,-1.0049206753188324,-0.34772591326275665,-0.6557432640904599,0.020046468688270185,0.008258736950979709,-0.3996351381461676,-0.874326019386157,-1.1665485191250977,-0.9485220348572696,-1.143750354673338,-0.9240232353512778,-1.1095913668086963,-0.907553208125451,-1.0515241801392377,-0.46325878247659213,-0.6698050487111487,-0.4961975097811826,undefined,1498061045491
903d185fccf839df,-0.7000187311484967,-0.5616636263618624,-0.3009089357225344,-0.38606395979004127,-1.1116793354947672,-1.8797926200307566,1.9704865844373256,-0.5584534478932253,-0.24636408060397247,-0.7087707369852104,0.0033815371033156507,0.009432811861764031,-0.5214878565062389,-0.7724842818616764,-1.1497064007011797,-0.6999872716677932,-0.9959596984823286,-0.7912087404991835,-1.1011951940931222,-0.6468883238261097,-0.9306901212360644,-0.46671277480763623,-0.6181475579380165,-0.4943246642753808,undefined,1498061046990
903d185fccf839df,-0.5420130081194425,-0.8804130772356953,-0.010613381135173327,-0.06809251164110175,-1.1956209074472979,-2.028041709916495,2.000029832163665,-0.5166151591714754,-0.3146819257015828,-0.6424865334465794,0.05794630272301346,0.18709519901830415,-0.5824142156862745,-0.7373026156765304,-1.1412853378081038,-0.5262149722514639,-0.8420296705668471,-0.727214344832921,-1.0951639428972122,-0.4882689381185753,-0.8668768731332894,-0.4637793081664084,-0.6204518417864971,-0.492452778985424,undefined,1498061048506
903d185fccf839df,-0.5544871968142038,-0.9449848000990287,-0.28240624098281436,-0.33591774710564554,-1.275149914396072,-2.0195562912931675,1.9824679931106977,-0.6491239335749897,-0.32115653887410817,-0.5802062320153178,0.075090784370151,0.06917181971777597,-0.17333723262032086,-0.7095275945856574,-1.1339169050158246,-0.29990689359232225,-0.8161142220915928,-0.7658326350565307,-1.1138804118026948,-0.42519690575905805,-0.8733385301438247,-0.4456276951968726,-0.6374847653409569,-0.4967930754653167,undefined,1498061049982
903d185fccf839df,-0.8926747176221251,-0.8886312725953985,-0.4604118927413451,-0.5026631295352921,-1.5125335168490188,-2.074069806618401,1.9599095117639762,-0.8653840003713296,-0.2884752965667268,-0.602297003574202,0.08320630742355914,0.09991079453626332,-0.17333723262032086,-0.7465609366139929,-1.132864274915028,-0.251412333572942,-0.8309443380325987,-0.7870099984590427,-1.1260198785697397,-0.3022865143548843,-0.8613333029270119,-0.4337266968636728,-0.6580005992343597,-0.5144853649767919,undefined,1498061051487
903d185fccf839df,-1.103348963236083,-0.9338315005207263,-0.5695113603071141,-0.6208683844462266,-1.6529538521780247,-2.112106282508737,1.9745075523619573,-0.8076259890064473,-0.2786197862908376,-0.6538866115489594,0.07562141727966643,-0.01105759964158064,-0.7434338792335116,-0.8345151668307306,-1.2518117855188875,-0.28778327831910855,-0.8748990954810394,-0.8264452385886725,-1.2070779330103563,-0.39456939733560015,-0.9265298227121419,-0.42178612630099127,-0.6181128731709531,-0.4914660004188876,undefined,1498061052990
903d185fccf839df,-1.1227531494111034,-1.0418423588195358,-0.6435206144442978,-0.6898663422264238,-1.6539104245212584,-2.165091815880951,1.9673991805057,-0.8787075048527867,-0.28417913680479107,-0.6728383894644621,0.08065596402271988,-0.06384884738376963,-0.865286597593583,-0.9807969044285941,-1.2865486819164555,-0.6535133141939485,-1.0879478990295777,-0.9857441039605233,-1.2472396276076438,-0.5787502032378595,-1.0572984620167214,-0.4426172446874796,-0.6220388913182809,-0.5053470038099913,undefined,1498061054535
903d185fccf839df,-1.0645405218752222,-1.0535826624354625,-0.5605794630826793,-0.6064946461670956,-1.6135493497864233,-2.167078656687338,1.9545920292575705,-0.9603480342394481,-0.2835859164436469,-0.6391069079333451,0.07618248158901214,0.006174628580720978,-0.9740836675579323,-1.017830269120785,-1.3033908003403734,-0.9202335002932456,-1.2260786974797044,-1.064798239508914,-1.2720922997070259,-0.7356449634862037,-1.1345291327312037,-0.47896031771399683,-0.6831236321204824,-0.5356038172912009,undefined,1498061055988
903d185fccf839df,-0.957817411649085,-1.036559216529445,-0.4368051115094055,-0.47040036471701074,-1.5521334548002566,-2.1599814648951727,1.9740078823712124,-0.8196690991418332,-0.29092330893147933,-0.6209782747014055,0.07554119530227241,0.1773538675118083,-0.8130640040106952,-0.985426068135019,-1.2760223514595521,-0.8980068016305499,-1.206172894445632,-1.030923323950181,-1.2576578788929091,-0.7851355670428701,-1.1273616279883505,-0.47488476812259484,-0.6779223511276506,-0.5313571923269386,undefined,1498061057512
903d185fccf839df,-0.7831795290414418,-1.0477125161077476,-0.3028225869516926,-0.33336745173854987,-1.393270862576728,-2.1606802365916704,1.9684195505347255,-0.838798556908655,-0.2912285916025394,-0.5997421024252391,0.07939403926289643,0.12485135032237227,0.17481339126559717,-0.9872777375028213,-1.2760223514595521,-0.908109870887671,-1.2197623629652843,-1.0288904491072512,-1.2570211690603121,-0.8606341454025708,-1.1421622332847576,-0.4750800050056358,-0.6746546103241522,-0.5279854866968265,undefined,1498061058990
903d185fccf839df,-0.9342551510740075,-1.0383202578703103,-0.4789135709332675,-0.5286226047044652,-1.3916457206961947,-2.1557445788090805,1.979861831166419,-0.7639663954429442,-0.2971378433186456,-0.6504242964773832,0.08769831477524699,-0.018412933992705074,0.19222092245989306,-1.0270886030090223,-1.2654960210026487,-0.9222541169711419,-1.267024015981536,-1.057445691683532,-1.2523333056628314,-0.9551806001735238,-1.1736487724570546,-0.4745332380391301,-0.672709004279425,-0.5255638692108515,undefined,1498061060498
903d185fccf839df,-0.948115284056165,-1.0594528233771734,-0.6652132361731803,-0.698255667627149,-1.468850161254572,-2.165152375954741,1.98931598875977,-0.7117946597305307,-0.2835995441468812,-0.6560536025054384,0.09667061901224261,0.002101583679108867,-0.051484514260249546,-1.0335694328455558,-1.2654960210026487,-0.9161922881359938,-1.2397849210439627,-1.0614417790110862,-1.2540545210712062,-0.9957093087631599,-1.1843528108141885,-0.4734852080270374,-0.6671162858900891,-0.5230948494611337,undefined,1498061063621
903d185fccf839df,-1.0756286282609482,-0.9831408115119094,-0.7194440280845384,-0.7628078086830731,-1.6220967600883653,-2.130556185861406,1.9836987222762918,-0.7505663784769268,-0.2988084860443234,-0.6689865626070196,0.0973765908004031,-0.026861080045746968,0.5882422571301248,-0.9798710665069993,-1.2602328520930801,-0.8899244126469485,-1.188886192368899,-1.0307713326596701,-1.2466029175487157,-0.9955861211726651,-1.1672113091947438,-0.47017859485939145,-0.6597280751434854,-0.5169461098475046,undefined,1498061064985
903d185fccf839df,-1.0451363184474969,-0.8698468072695104,-0.7213581875875954,-0.7602832259179682,-1.5535220199954327,-2.0933116506808713,1.99511471744361,-0.634412402208775,-0.3122286508829564,-0.5689205436960231,0.08707123641113051,0.08685290646698386,1.0234305369875223,-0.9613543890174443,-1.2507591554180906,-0.8474916319994537,-1.0777654535478887,-1.01281110460098,-1.2279284293494495,-0.9191636365842927,-1.136719697686658,-0.463821160458797,-0.629511396329842,-0.5056569239463399,undefined,1498061066489
903d185fccf839df,-0.9495013318597905,-0.785316516014065,-0.7028560011217743,-0.7402868961855813,-1.4875187017294835,-2.0073813573482773,2.0063334684472203,-0.5084035120150927,-0.32636437373073,-0.5745067563049898,0.07862406524287752,0.22471618928893544,-0.4823209113190731,-1.020607760221714,-1.2549696905457455,-0.8535534537684213,-1.192229328081207,-1.0435068824170521,-1.2322804457697962,-0.9330222372570914,-1.156102583118021,-0.4667864030662511,-0.6294874470228727,-0.509345818252749,undefined,1498061067984
903d185fccf839df,-0.6917025823483827,-0.8991975425615836,-0.7137020578492661,-0.7670554123367462,-1.2856207540292455,-1.9781167955922168,1.9999614520360014,-0.5147500866048015,-0.3581229566675725,-0.5433904554136426,0.0735967281929574,0.1745038621392936,-0.12111463903743315,-0.9798710794577739,-1.2476012540723496,-0.8535534537684213,-1.1294594077608986,-1.0186120811368142,-1.222547881907626,-0.9361943170728756,-1.13956232716742,-0.46523527650250474,-0.6299514177932601,-0.5110276178031429,undefined,1498061069542
903d185fccf839df,-0.6598243109948301,-0.8428440881279342,-0.6518146279256798,-0.6936047829661387,-1.255967089461339,-2.0039946433216493,1.98200776022045,-0.6525399409993793,-0.3062891746589268,-0.5851251854483694,0.12803723243931922,0.17355451287257925,-0.691211285650624,-0.9169143630425122,-1.225495966738863,-0.6191629578609569,-1.0248973934730703,-0.9621475553811643,-1.2008507711588359,-0.7272836082281363,-1.0587094171746574,-0.46291390520686726,-0.6261580082941863,-0.5093127699914777,undefined,1498061070988
903d185fccf839df,-0.718036835014482,-0.8393219689112136,-0.168202178650927,-0.16499651893517067,-1.1017433491228166,-2.006801377227449,1.9979890900105703,-0.5106638644200855,-0.30759144206458405,-0.5298482549936366,0.06297693243797278,0.0431716555062126,-0.8174158868092692,-0.8613643370492343,-1.1970748693516602,-0.5524828336081484,-1.0150278437838676,-0.9017376071097387,-1.1700997875515855,-0.5704812384101483,-0.9882315201201252,-0.4676771739959533,-0.6246270499003194,-0.5156270084382449,undefined,1498061072507
903d185fccf839df,-0.6750704917806131,-0.6778927275158626,0.07743185671866468,0.05946140048271975,-1.149911270904629,-1.967972958658459,1.9775476062134538,-0.6047303998443544,-0.3298586657902243,-0.5851165573620825,0.03842369363641408,-0.026315366894535175,-0.8043602384135473,-0.7456350792662364,-1.1707590579338696,-0.22514442981917515,-0.8098286481869965,-0.8229431221469246,-1.1377465342229907,-0.2620503754075266,-0.8855421088934967,-0.4451807887678538,-0.5334728773447218,-0.4336963987823162,undefined,1498061073988
903d185fccf839df,-0.6251738405177973,-0.6896330128642942,0.10103812967670543,0.08063746205816281,-1.142608426335402,-1.912551040163296,1.9455744284668801,-0.7402393816493291,-0.3316439891532015,-0.8389835576628054,-0.019604887388667253,-0.02813643595697066,-0.9349167223707665,-0.6623100613213282,-1.1339169197402923,0.7892006907911691,-0.4692877337539732,-0.7625965012637066,-1.1048335359141548,0.2649922180402808,-0.7342854571893281,-0.4206115200021854,-0.4400365008103209,-0.3687542661441881,undefined,1498061075489
903d185fccf839df,-0.4477640003245421,-0.3744056958211781,0.0506356567714614,-0.19838065248119158,-1.0015606594980104,-1.7258997862224499,1.8505884702191442,-0.9124044095996748,-0.1525840091532187,-1.2297371499995164,-0.11642813755620414,0.04858856914468084,-0.843527183600713,-0.5252866576117017,-1.071811567099669,0.6517994350475316,-0.5714265307697409,-0.6437334813882736,-1.0371253971094863,0.5770571159317885,-0.6003351010407826,-0.43349938935637206,-0.4711200323352715,-0.4133287406929015,undefined,1498061076975
903d185fccf839df,-0.12482266030240369,-0.3685355166119719,-0.13247357320539005,-0.2544758057839432,-0.6049133215007388,-1.511525928657287,1.7398078846094231,-1.100421447413755,-0.10704147509359004,-1.0367199864400793,-0.11577038556692013,0.07998233642915797,-0.6128773952762924,-0.47992078076440026,-0.8623376322358022,0.7932419241469618,-0.524254117215354,-0.5523871014865919,-0.9277582467671588,0.6938851250464272,-0.5043709763094503,-0.39455415690180484,-0.4851138254931759,-0.4342156725820798,undefined,1498061078493
903d185fccf839df,-0.16778900353627255,-0.25230643007196785,0.3383791681127127,0.17348666987536293,-0.5300025936645347,-1.5563498080361857,1.8197066499110042,-0.6334477929732102,-0.08409765498200797,-0.9132362407682552,-0.18452011112440608,0.11672818191439954,-0.8304715352049912,-0.41140908538497434,-0.8718113105052073,1.035714964493996,-0.608512207725903,-0.5020591981543346,-0.9313196233198756,0.9547193947227429,-0.42536347359490617,-0.40014305954282353,-0.5535216682407519,-0.4123061954475119,undefined,1498061079989
903d185fccf839df,-0.1262086045898,-0.3333145290407117,0.5489224817798202,0.4531580943369379,-0.5634516813518737,-1.7531844965424173,1.9590311469319006,-0.2339878366278095,-0.1898753610283897,-0.3623806599648762,-0.10738864921257738,0.015368484835813684,-0.865286597593583,-0.46232991205719726,-0.8412849786842292,1.1367453178885492,-0.7088726862825324,-0.5081894874236568,-0.8985325670012309,1.2008635453835677,-0.36629051795701123,-0.42284961190796855,-0.6135679197647442,-0.432231868117749,undefined,1498061081508
903d185fccf839df,-0.2537220005526979,-0.49591785888829,1.0835763042506674,1.1013434275596736,-0.7547656481078684,-1.8616175679753906,2.0295572869276786,0.03604077186688084,-0.3844389153875155,-0.41242614293571805,-0.09777864166326936,0.04818516876517592,-0.9088054255793226,-0.4160382361406247,-0.837074458281042,1.1124980590774003,-0.5818493714221457,-0.4572536215149799,-0.8828597106802933,1.067158838767417,-0.3678009065009518,-0.4340632793183202,-0.5496999298160155,-0.45128833848128774,undefined,1498061084346
903d185fccf839df,-0.2440199074651876,-0.4824165139314981,1.1601376016339608,1.2261024458358676,-0.7652982016191937,-1.8579792961440396,1.9999035947885182,-0.14996549684666857,-0.3932344624207732,-0.3752817128860375,-0.12455511187541907,0.07142454090229303,-0.9436204879679144,-0.438258255603478,-0.837074458281042,1.0579416066272487,-0.5728589213916798,-0.4518516205803112,-0.8836853343759753,1.038486934234944,-0.3740736382245383,-0.4363700705756523,-0.531092418750549,-0.440254511170414,undefined,1498061084553
903d185fccf839df,-0.1913512986167598,-0.4254760591137235,1.6590625645223218,1.6540791973669373,-0.5994310484681439,-1.837118630273825,1.9941232773477282,-0.0744108283418035,-0.41262392428786804,-0.25882438406015335,-0.23696274201854614,0.05854850292510462,-0.7347301136363636,-0.34289733820245016,-0.8170744053813308,1.1226010859374391,-0.6248067204249783,-0.3546409352320045,-0.8530882805713096,1.006350375101806,-0.332552004954857,-0.4226423970862588,-0.5558353399186088,-0.3810545937848281,undefined,1498061085992
903d185fccf839df,0.22306702260384748,-0.441325464063001,2.172023511127337,1.9192364685780643,-0.3579845982456692,-1.8194676541480916,1.9676516563035156,-0.0678490863758542,-0.2838303781850385,-0.33848213507697883,-0.4061768335834111,-0.029414450353573214,-0.6476924576648841,-0.22439062817084696,-0.8170744127435646,1.114518534431689,-0.543620363080343,-0.22240273732439306,-0.7977784906584641,1.24651992390803,-0.21653673993372097,-0.3885855927072029,-0.4887575483004449,-0.39604391290868185,undefined,1498061087494
903d185fccf839df,0.4670056391330978,-0.4108005964767118,2.283675784350064,2.1228870527492534,-0.18938145274318435,-1.7394326650810952,1.8449317488272976,-0.6649951832332689,-0.17458856168534556,-0.13590558713390372,-0.36565444255904356,-0.09193232477924951,-0.47361714572192515,-0.1373622779657214,-0.8391797332071033,0.9306432364200423,-0.49059419691448064,-0.09699778679077735,-0.764424694408288,1.22520847255636,-0.1554332003140704,-0.31303022641785067,-0.27359584139041476,-0.36918253525327305,undefined,1498061089003
903d185fccf839df,0.25217350889883666,-0.4419125082891147,2.2020098922006524,1.9550029124326649,-0.19182945157110354,-1.6957407950111734,1.8048876911567717,-0.8573790842717507,-0.17136356564282776,-0.4504521903307111,-0.31950343266497516,-0.15693146173322056,-0.09065145944741532,-0.11977142220929297,-0.7886533043130113,0.9407462350153597,-0.34389561875053387,-0.0022316180784373828,-0.7068129526220617,1.339926894065978,-0.09079802588860217,-0.2936729162520479,-0.08830847517332437,-0.36440902589104923,undefined,1498061090495
903d185fccf839df,0.2175231074326234,-0.35503414242718767,2.1949921544792748,2.0190493259970896,-0.1393106835309536,-1.7451998593771525,1.8347307354304452,-0.7484912862177895,-0.14684224617305025,-0.5348912076906386,-0.3375566670010845,-0.05643625743082873,-0.5998217468805704,-0.14939805438948286,-0.6865479415820049,0.8801280738551265,-0.3644563858854467,0.06593618828511634,-0.7019711601376925,1.4323175681976268,-0.04769043047665048,-0.3457580806526775,-0.03118554874821069,-0.357919150465719,undefined,1498061091992
903d185fccf839df,0.22029506501823545,-0.43662928562204517,2.3857575141944554,2.3079026889483214,-0.39234911037875714,-1.80882768874901,1.8204219643095298,-1.0170164290189558,-0.3173552477606766,-0.23506946308133142,-0.36626439892210366,0.044398045971772125,-0.5388953877005348,-0.17254401538012737,-0.7423374694444445,0.6901908975450691,-0.35618425945164445,0.07789911834911646,-0.7243609539337443,1.4113756844907972,-0.05727750537848181,-0.36057130788868635,-0.03311951039826058,-0.37938147347566475,undefined,1498061093526
903d185fccf839df,0.07199153859292075,-0.40845253648422625,2.544622079196315,2.4553150718044274,-0.5875613546659025,-1.8218830754380875,1.8355275664036903,-1.0245466741360199,-0.32223879556001617,-0.08896180095832837,-0.3443836148102739,0.1018776405779929,-0.5911179812834225,-0.1614339085178916,-0.801284939144911,0.7892007473206121,-0.42310868595043777,0.05036347740717982,-0.7590861248894181,1.532946414560571,-0.058762974425786936,-0.35098424516821014,-0.038666086690397165,-0.3661763379928767,undefined,1498061094986
903d185fccf839df,0.1052558577500988,-0.4853515596941127,2.6652062496434765,2.4938024800512943,-0.49579236358813866,-1.8740324130074808,1.8130874272603552,-1.2317444361868728,-0.4379023918407976,0.08376463016091847,-0.25312162793147286,0.045668648341552986,-0.9088054255793226,-0.2651273154101744,-0.8139165371656417,0.7568709935331561,-0.4489653862658784,-0.09782107142881812,-0.8061816583436796,1.4270051138480382,-0.16309798078642068,-0.4316774491839782,-0.19010364800717597,-0.39453938345890854,undefined,1498061096491
903d185fccf839df,0.2840516077253406,-0.4243020291174807,2.5720566711604693,2.4846277282896874,-0.33867834682896497,-1.8376403787663786,1.8198618072678376,-1.097408260787652,-0.5031116271719268,0.03137413010602009,-0.04420506350265269,0.01680395312052117,-0.9914911987522282,-0.3558590173016792,-0.8486534041142746,0.7790976921958517,-0.45143398769276916,-0.21459421687876554,-0.8088544410405978,1.5254319789177266,-0.19911146521204237,-0.425530866656119,-0.18383003798708525,-0.3360134794116102,undefined,1498061098053
903d185fccf839df,0.18148662365737492,-0.3896681003863304,2.2096665302128806,2.176437596981152,-0.29676413240346766,-1.8536795204966814,1.8733941478538392,-0.7585974908804746,-0.5294907773675057,-0.23197962918666074,0.003992898395591885,-0.006590036932183388,-1.0088987299465242,-0.3984473544826471,-0.8939166088820446,0.6699848438249915,-0.5519276475995296,-0.266125381486317,-0.7998775326307673,1.3139189298039322,-0.2631370261748174,-0.3835311796733473,-0.21293699093689822,-0.34861906026858425,undefined,1498061099489
903d185fccf839df,0.05397326219988676,-0.410800611090708,2.089719989371822,1.9832092152840146,-0.33033664464827656,-1.8692434969875584,1.9210620172882142,-0.49889103706765486,-0.41790605613062215,-0.2995808541174785,0.09972698372521784,-0.0216595710784227,-1.017602495543672,-0.44566497192701093,-0.8823376556865782,0.8215304445786251,-0.5271063123046393,-0.31764387767625746,-0.7837848672779715,1.3536931129242988,-0.2728937284355468,-0.33971924479694665,-0.2191335943098841,-0.3335945176467081,undefined,1498061100996
903d185fccf839df,-0.005625240612571118,-0.5786870759213788,2.0916344030118283,2.220243250688125,-0.3159160893142377,-1.9199906323385032,1.9859919276569398,-0.15133951629193548,-0.47428359155938093,0.06961140690698817,0.04699737348821295,-0.04020026193556556,-0.9088054255793226,-0.4188157110530854,-0.8591797345711779,0.853860141836638,-0.4812656585002578,-0.2824643744299385,-0.7542793159761844,1.3856294838526915,-0.23990846737233731,-0.27522333243216934,-0.16626436750944154,-0.3369006408974909,undefined,1498061102488
903d185fccf839df,0.1260460917287448,-0.6097988708218124,2.4323321763674843,2.4591663347655968,-0.23558479427949475,-1.931115078472872,1.9655004781177745,-0.2670693268030467,-0.4361702264143831,-0.4075761461300137,0.12439309953361116,0.0231741484695288,-0.9175091911764707,-0.361414070732797,-0.8433902462480567,0.8275922663475928,-0.5324512869180882,-0.22332101492721154,-0.7337856557806235,1.3186000488729717,-0.2216514375796102,-0.2625984090565989,-0.22469954670879708,-0.2989126507478048,undefined,1498061103982
903d185fccf839df,0.9618130076934965,-0.642084724946481,2.596939474015464,2.457605861376309,-0.013928026537392488,-1.9326663513090392,1.863153679548619,-0.8126921367550111,-0.3783078764437086,-0.5279189774076362,0.08721342637344334,0.1588634463923247,-0.6520443404634582,-0.2827181452650538,-0.8023375471590064,0.8013243908585473,-0.572733901256157,-0.08986689409250057,-0.7120815474257387,1.2447952958506143,-0.17615935772339036,-0.2145999318225612,-0.11369899842086893,-0.39380814811288506,undefined,1498061105510
903d185fccf839df,1.0186395874257521,-0.6368015899633885,2.7098672605873473,2.690482951043683,-0.08153591705025659,-1.9302486007354287,1.897238593666587,-0.5934724916717253,-0.24974642302087258,-0.7701412463200445,0.20177127843153764,0.13999198864393136,0.13999832887700536,-0.28827319869617163,-0.7897059859494446,0.7326237629867287,-0.6044727907565396,0.013841392565070151,-0.6851858070458489,1.3534005289985096,-0.10088308982408371,-0.23182167067855708,-0.13735039146322153,-0.44698464182886766,undefined,1498061106994
903d185fccf839df,0.6638196655013735,-0.6737836225290129,2.6045956037537934,2.6299415371988246,-0.2678304670183557,-1.9549548403885197,1.8414393698275757,-1.0832043074999222,-0.22468065729822664,-0.5859751110394008,0.267365780192659,0.07803947151147239,-0.517135973707665,-0.3299356591032212,-0.7760217283789819,0.49823330241016617,-0.687461055834966,0.11277464089688041,-0.6606689816055137,1.4372758627983615,-0.037145351396219814,-0.26918926006691163,-0.16818189177471213,-0.44156304516262507,undefined,1498061108484
903d185fccf839df,0.5196742479815255,-0.5857312851268278,2.4521108927302593,2.436040717559411,-0.3747091480438896,-1.9184230529966781,1.854341194000397,-1.0279803068283737,-0.378416685176573,-0.7400030085396162,0.22229977552852417,0.06632283683138482,-0.7608414104278075,-0.30586405445260006,-0.7718111932513271,0.45580043696850664,-0.6165291593038109,0.1521402178210957,-0.6600812502565054,1.5325614445527513,-0.0033140156842449207,-0.25351036098498153,-0.09810487733254328,-0.36804660239925513,undefined,1498061110083
