UUID,iqrAccX,iqrAccY,iqrAccZ,iqrAccXYZ,meanAccX,meanAccY,meanAccZ,meanAccXYZ, covarianceAccXY, covarianceAccXZ, covarianceAccYZ,pressureDerivative, pressureIQR, iqrGyroX, iqrGyroY, iqrGyroZ, iqrGyroMagnitude, meanGyroX, meanGyroY, meanGyroZ, meanGyroMagnitude, covarianceGyroXY, covarianceGyroXZ, covarianceGyroYZ, class, timestamp 
903d185fccf839df,-0.6522011860965289,-0.6370951413044377,0.8382605754102286,0.8199823904953237,-1.2610717390609012,-1.6544137737669473,1.8036734789407096,-1.3362047546230347,-0.37710782704920415,-0.5591181430506457,0.1859687319058234,-0.32007786409460526,-0.5475991532976827,-0.080886384911606,-0.8307586187783907,0.5770368582154983,-0.36864323266166577,-0.06476627014677941,-0.8047263186136245,0.2565615598223274,-0.3444487797703109,-0.25436282470330485,-0.5468655263516254,-0.3340963680960362,undefined,1497359726221
903d185fccf839df,-0.2301597054722106,-0.1642540634417904,1.3457986207199726,1.0850562407281914,-0.7882258187583654,-1.5588691439146678,1.8700526689212231,-0.4969012706738926,-0.15166269518275696,-0.875007841284187,-0.042000742551381275,0.12650187904936122,-0.2212079434046346,0.02743618568710171,-0.9591798518250582,0.7265618281588749,-0.1908130750857628,-0.1519850926263256,-0.8683382368099589,0.23402633885973673,-0.40602740838468576,-0.2681704016913051,-0.20440278552104668,-0.40915064037255305,undefined,1497359727760
903d185fccf839df,-0.4616241678121094,-0.07033160528638371,1.4249122154863252,1.1253862555260563,-0.5676549234692446,-1.4083278452925543,1.807271437031101,-0.5006210174326838,-0.20006797750060232,-0.5731729284017663,-0.12257322811683996,-0.004752409882617276,-0.40616296234402854,-0.13921394085813646,-0.9623377494896824,0.06784370243097103,-0.33440256086037506,-0.2438762761154416,-0.9147959203427977,-0.048905095585986484,-0.5103274185869937,-0.2448731308603178,-0.33396417258137523,-0.45225804083135773,undefined,1497359729247
903d185fccf839df,-0.46301011209950566,0.005393387927259934,1.6979808428200718,1.4117197553709473,-0.3628291650557007,-1.4489462521676277,1.7590528046880154,-0.7665180695181266,-0.30586888396851425,-0.5082254265068892,-0.28608685647901055,0.0375171313591334,-0.6476924576648841,0.03669452605072605,-0.9560219688849015,0.19514201610873422,-0.27595003348123504,-0.13026987499841064,-0.882646212755261,-0.045059642415965405,-0.44128276692928853,-0.21674896641694272,-0.261745014256947,-0.46622639334022,undefined,1497359730732
903d185fccf839df,-0.2772842611277754,-0.03158861541037215,1.9946565055227072,1.8227217938179343,-0.48151581981971353,-1.500347903914112,1.8553536740952705,-0.2360345138569365,-0.34399199664128893,-0.5657789583570905,-0.44369329620720066,0.015280023724258194,-0.7477857620320856,0.06632115823091594,-0.8781271500078586,0.21938924665516163,-0.274815359206782,-0.07403217560138617,-0.8703982732325818,-0.01724485879659407,-0.40014907032811403,-0.2290798472632541,-0.358838094753198,-0.4790805072207674,undefined,1497359732232
903d185fccf839df,-0.040275642078784396,-0.405517432265627,2.614803522601283,2.235260383416553,-0.4799215324956353,-1.7080974085413838,1.858638303335212,-0.5849061873733004,-0.38980373169376814,-0.5825066165870486,-0.43874824088329123,0.004251216851625973,-0.8348234180035651,0.11261287299981221,-0.8823376704110458,0.17493593412393496,-0.2722601534599051,-0.032198895177327394,-0.8717337012742516,0.01781461268769726,-0.3695419093714469,-0.24226878340936378,-0.3580279980908522,-0.46870170370875275,undefined,1497359733725
903d185fccf839df,-0.09710232532726917,-0.5000269638751397,2.9127546986530746,2.812940286435592,-0.5607876844885641,-1.867953098133327,1.9123100140770908,-0.6086472009823092,-0.45783924718334745,-0.555138221390312,-0.13131972873956615,0.041618210912213106,-0.8783422459893049,0.20612210160687588,-0.8718113325919087,0.08400863585414213,-0.21171201489917257,0.037247953293650736,-0.8751702160528924,-0.007221500666870845,-0.3396631752350461,-0.2516157284474876,-0.2915930827049241,-0.43510117767861467,undefined,1497359735234
903d185fccf839df,-0.2731261522223087,-0.5164634130505309,2.8872342661919768,2.7944094916119213,-0.4428210293534616,-1.8822336644960627,1.8994660429616654,-0.6991262245777181,-0.4278120024315669,-0.40326901001792326,-0.1233433013150353,0.0033627351094189352,-0.9958430815508021,0.10613212410561954,-0.8191796876696258,0.14058564845274713,-0.42081940415592073,0.15542701515226556,-0.8665501442698421,0.16574923700434102,-0.2428556572025993,-0.32606736107377293,-0.35771384821869906,-0.4491873347987112,undefined,1497359736778
903d185fccf839df,-0.4643961944085409,-0.5000269638751397,2.462318811577749,2.431015379913208,-0.5129900548379694,-1.8647736870653024,1.808009275724533,-1.2879889406526035,-0.43641476533447054,-0.5502144666652393,-0.21544742382313256,0.007654752477603112,-0.9044535427807487,0.026510373667056008,-0.7928638394406661,0.03955526679347237,-0.4886366250849044,0.21318979347037778,-0.8624220264398406,0.2687032453179462,-0.1959189048538499,-0.38969516950389455,-0.346828302935546,-0.43509586681471846,undefined,1497359738251
903d185fccf839df,-0.38816546300667454,-0.43721635907615125,2.61671768210434,2.3563019712668267,-0.45955585974539137,-1.8250648164552221,1.8087166991413843,-1.1623140784356072,-0.4692321753735731,-0.8874606934438762,-0.3077768755037157,-0.07540159847322056,-0.6520443404634582,0.028362075411794696,-0.8339165238052488,0.06178188066200341,-0.4991278842539759,0.21393074750413926,-0.8654586413571205,0.38916528448850185,-0.177159620092946,-0.44056417661195063,-0.2882391093684776,-0.3930409727201014,undefined,1497359739741
903d185fccf839df,-0.4158857289709896,-0.4043434022693842,2.6990212038598553,2.584461083111289,-0.49676951097039873,-1.8348499499722744,1.951601941148122,-0.22992480118016767,-0.37531352553133407,-1.0019978664437492,-0.45592431386625354,-0.0990543364349189,-0.7086188168449198,0.013548616863179735,-0.8002322722329452,0.2012038944071449,-0.40062469551622404,0.272915785878748,-0.8303976228982455,0.589807033338499,-0.11516710400725215,-0.48177261399498345,-0.21229559089803507,-0.281590715964137,undefined,1497359741233
903d185fccf839df,-0.2786702054151717,-0.5012010230993749,2.7506999525251037,2.6752000833868026,-0.3494989002734756,-1.874440028406878,1.9862101861553565,-0.044633212888898405,-0.3885100897653208,-0.965887936545422,-0.30264846293904707,-0.06875766491010717,-0.6085255124777184,0.031139498521157265,-0.7223374533559022,0.33860515015078235,-0.3563100286974716,0.3089629008253831,-0.7858629203836123,0.7017537326753639,-0.07096291845547242,-0.43678929629298174,-0.11564700895819748,-0.29665174229587904,undefined,1497359742740
903d185fccf839df,-0.05136374846451042,-0.5810351212998682,2.6639307362943203,2.687486925618316,-0.5190483223735384,-1.899176549195,1.9335009719584324,-0.5197174643434824,-0.42913718970980547,-0.7289210386391044,-0.1865031349436839,-0.031567547082103686,-0.8304715352049912,0.1126129248029104,-0.6297057688943011,0.28000760566844557,-0.3191315453616485,0.30218031948123264,-0.7303152392435152,0.7767595620731651,-0.056393099179361625,-0.3585243468081931,-0.07785491232807462,-0.2382120096589965,undefined,1497359744228
903d185fccf839df,-0.012555376114469349,-0.5921884062641746,2.488477381918849,2.4569152192826698,-0.4754575364480198,-1.907028414856172,1.9453561374952877,-0.43687600221647277,-0.4004226966575572,-0.943787873997861,0.011406064692176029,-0.022483680161085186,-0.9262129567736186,0.23574881149171306,-0.5802320437233438,0.4477179702569211,-0.30646771441501586,0.3823617196962823,-0.658632910876047,0.991383091714874,0.03680305805560945,-0.344193541702163,0.04898016521817025,-0.2045773830662657,undefined,1497359745772
903d185fccf839df,0.09971183906264552,-0.5563804913787699,2.741767801163719,2.6467967497110165,-0.4704381195420933,-1.8774587228491004,1.9329828980572896,-0.4500074527887374,-0.40455118746972774,-1.2873659381506464,-0.03195915736359738,0.20699458079132205,-0.9001016599821747,0.2737079461139325,-0.5728635962065971,0.5447071750898461,-0.2096245676741533,0.41768054833468365,-0.6161412791988532,1.0627394847627851,0.07344539859861113,-0.24001225170626345,0.17865759757975916,-0.16595193568590835,undefined,1497359747250
903d185fccf839df,0.27850755453247755,-0.5651856871225984,2.7653743282587095,2.6312578084786136,0.08050495596226376,-1.868255898761407,1.7824186236515753,-1.1833625048759961,-0.4789618837310317,-0.09751752375936285,-0.0340157865951936,0.18175776552206302,0.5838903743315509,0.5421998814129112,-0.5528635433068859,0.5689544056362736,-0.008295547644525876,0.42831989167520923,-0.5745942157849497,1.0504669181821613,0.09272152594782138,-0.10984054018033575,0.3515799307116561,-0.062260215448348054,undefined,1497359748739
903d185fccf839df,0.3464223441666884,-0.5980585854733808,2.1324665866756862,2.129365631312813,0.3249651191019696,-1.8659173418527746,1.8679767354346186,-0.555902035527505,-0.545992586741188,-0.2893006485746261,-0.032033014137919605,0.16229607428988538,0.1835171568627451,0.5384964002187865,-0.6097057307190574,0.6457375567491209,0.00314620402733215,0.4069398731227139,-0.641959511040173,1.0325431253671662,0.06279529156456479,-0.08575907351592986,0.40050511214474094,-0.12249037991204528,undefined,1497359750235
903d185fccf839df,0.5834309632156793,-0.525268667250344,1.858760075598887,1.8527589950270764,0.7560386945674644,-1.803719668190285,1.8994029224409288,-0.12128339992083738,-0.6253326811213846,0.36335095422736485,0.005589493883956998,0.12318161041552322,-0.7695451760249554,0.48016893492767787,-0.6370742164110477,0.7103970077945899,-0.029247108363023473,0.3258465280658134,-0.6399024490950925,0.9842228038125032,0.019891854965918828,-0.0993219365639645,0.36931395661267125,-0.16344556005450303,undefined,1497359751721
903d185fccf839df,0.6250113621621519,-0.3068988541252492,1.8657783215941635,1.6678933271927168,0.5917658258517406,-1.716163564756043,1.8699254218962245,-0.16628526069912367,-0.46210507267793366,-0.2560994796520229,-0.2435924010618406,0.015354888339237231,-0.8130640040106952,0.3283321633248583,-0.7244427282819634,0.8174891829581108,-0.09678897408433224,0.17417252584618612,-0.7175950370268966,1.0188539072981058,-0.06087042966085281,-0.12354878016076573,0.31272150264143017,-0.2056708095457714,undefined,1497359753245
903d185fccf839df,0.29929782301653335,-0.30983392911585617,2.04761152994796,1.940020926954079,0.5470127542823859,-1.6875838006284065,1.7720493038805711,-0.7250941410566628,-0.37536119029297643,-0.3664117371649576,-0.2616275020612713,0.034541410642079835,-0.5737104500891266,0.3190738100104594,-0.758126979854267,0.6517992654592024,-0.07276657156810175,0.16328619554847926,-0.7412792419056196,0.9131589782125136,-0.09072500578024834,-0.14264529604266388,0.3279048793975144,-0.2947183261254289,undefined,1497359754732
903d185fccf839df,0.10525582324468907,-0.3497509489881105,2.322594570921713,2.023189769469935,0.2844188995478502,-1.7033387744316204,1.8660254191695502,-0.19557258699924515,-0.22035280900708532,-1.2615602755246407,-0.36650695409714396,-0.023314521742648912,-0.6607481060606061,0.1839021209963462,-0.8360218060935438,0.5709749940494484,-0.1586956118510147,0.05677241723920036,-0.832342735349349,1.0047797311757571,-0.1511791393233591,-0.29510698094924365,0.08431061927382308,-0.44037622358475365,undefined,1497359756255
903d185fccf839df,-0.14422684647742423,-0.34094575324428206,2.4234002791430496,2.1399946616554737,-0.17278034195419792,-1.759906678693095,1.9328119765449798,-0.07622663595112661,-0.27167070278979405,-1.3914194089746204,-0.4766365623713893,0.049191993594310035,-0.6085255124777184,0.10983539808735145,-0.8391797111204019,0.5689544056362736,-0.25351585495124246,-0.014669519067731944,-0.8300267911816172,1.0062425820392251,-0.1891806614430153,-0.3499927768089791,0.0469882073382134,-0.49215601503390094,undefined,1497359757732
903d185fccf839df,-0.08047009673786068,-0.3321404990444689,2.358961060110303,2.0415176026246487,-0.46182899722048376,-1.7845640040231605,1.8271121811784794,-0.880786960243021,-0.19569464701845027,-1.3563320674625374,-0.5373602276530162,-0.01854679934768958,-0.4649133801247772,0.14409125872783898,-0.8476007740134778,0.5366247649077037,-0.2134686420823811,0.00001024644717566203,-0.8786826138406356,1.0789540444656098,-0.18244214327863692,-0.3795894168013035,0.09715375852026252,-0.4734195170646933,undefined,1497359759226
903d185fccf839df,-0.005625378634210056,-0.3720575773727079,2.588644952260183,2.593977972878765,-0.5307431654777284,-1.7737400297560504,1.9041102743071812,-0.4252704256120113,-0.37352608064806453,-0.5681017833557074,-0.5283576288424083,0.039395143003432456,-0.7129706996434938,0.183902069193248,-0.8444428837110873,0.6659437235280848,-0.233864229479423,0.08988738221978253,-0.8750232822353813,1.1396085206073518,-0.1262218897297308,-0.36499351915726347,0.07822280538923079,-0.46141724616255125,undefined,1497359760729
903d185fccf839df,-0.38123536201018604,-0.4143227156934325,3.0384432097294054,2.953646418337839,-0.7026377385136905,-1.753144895074562,1.9289435351261957,-0.2703155482762133,-0.3729666554686726,-0.7429919549992311,-0.494318837307986,0.01701145894705214,-0.8087121212121212,0.16538544026909752,-0.8612850094972391,0.6517993785180886,-0.2553229166343015,0.08565064302141402,-0.877500153591578,1.223838018167825,-0.11799424670787274,-0.4216055576065599,0.03369552483630799,-0.4611776975854189,undefined,1497359762229
903d185fccf839df,-0.3479709738421885,-0.5810350628438835,2.65308417129293,2.545961494036877,-0.7067828728257779,-1.7332858020005257,1.8463623739580217,-0.81886213188929,-0.38655892213802484,-0.738629348583139,-0.419532148367177,-0.032468097424718755,-0.8739903631907309,0.18853121994889835,-0.8707587024911119,0.5830986941168268,-0.2457146484725068,0.13825840578962575,-0.87742318901449,1.1284138544700364,-0.11032724548787558,-0.39202024762955706,0.23327990747141464,-0.399500776315822,undefined,1497359763766
903d185fccf839df,-0.3549009713224478,-0.5305518022334366,2.6039574658737914,2.5260325527948546,-0.8616751849781932,-1.776080914312872,1.8376419383399187,-0.992649395341739,-0.3955367051354313,-0.6995497043310098,-0.4522122575459557,0.001561854923750479,-0.8870460115864528,0.18297632192707503,-0.8654955372626602,0.5285422416666751,-0.17601752291784437,0.13950599482481535,-0.8814743417474534,1.02151784638385,-0.12682542449969847,-0.3685888876245053,0.2037812693761998,-0.34567634108883744,undefined,1497359765240
903d185fccf839df,-0.35351499252964175,-0.4900476796790838,2.4444545088549807,2.363603769372628,-0.8708808779881017,-1.8096685450938013,1.9324622147793584,-0.4744026066934541,-0.3854851913049011,-0.5545395184287056,-0.3767222442783193,0.018894601774194157,-0.9305648395721926,0.29222467864427937,-0.8212849625956871,0.43761485860271765,-0.1736340166662121,0.22539337565434206,-0.8144518898703977,1.1081340983170767,-0.06275331519210238,-0.3690950963087501,0.303641032329976,-0.29506473885404205,undefined,1497359766728
903d185fccf839df,-0.23431781437767732,-0.499440007333003,2.868094195983103,2.8243264295336847,-0.8573243266747185,-1.8239397940883177,1.925769345585226,-0.483787615729336,-0.38905821319626166,-0.5955011430708943,-0.456396075288044,-0.05813146800900203,-0.8348234180035651,0.2940762508812726,-0.7812849156941349,0.43357368177636796,-0.17224705544642124,0.2366280161157922,-0.7816788268554191,1.03185019961656,-0.06602326081154065,-0.3082192415190159,0.22207182652515084,-0.2854182270226141,undefined,1497359768230
903d185fccf839df,-0.03473162339133112,-0.4859386331482188,2.6830708065031943,2.5094249068959007,-0.5786847944347436,-1.7724263381617158,1.8957185541705774,-0.5167961959194903,-0.46529511155547076,-0.7781221873104653,-0.4352737126312601,-0.007182463476699327,-0.865286597593583,0.238526338207272,-0.7676006433992046,0.3103166579838406,-0.23507370767461822,0.17538845239426504,-0.7483180314087124,0.9053827671931335,-0.10635928462532321,-0.32971268573469004,0.1401692541551849,-0.26468657266518486,undefined,1497359769722
903d185fccf839df,-0.2786702054151717,-0.5141153822860377,2.4699749413160785,2.3108396967171623,-0.5349191510574144,-1.7719418554911002,1.9329645067171537,-0.3033837614197387,-0.43335974089542617,-1.0250647216300124,-0.3353458013283096,0.06935931510408157,-0.7564895276292335,0.21630620218744775,-0.7244427135574959,0.3729555206161348,-0.3262993633751132,0.24052911079969547,-0.7710506693720328,0.8643459068343633,-0.0819310172147113,-0.37171065276509596,0.01136835719000555,-0.23111362342642208,undefined,1497359771215
903d185fccf839df,-0.35767296341346955,-0.579274076305504,2.2875035950822795,2.2549566917628914,-0.5413065729653576,-1.7753867999812711,1.9079024655670638,-0.4995033545417182,-0.467773276525041,-1.1004192035566764,-0.30092773316646054,0.024322184695839917,-0.45620961452762926,0.21167715503799378,-0.7591795952305963,0.33658453347288597,-0.30966784772101463,0.2728524574330372,-0.773156710381823,0.7774216825458599,-0.07515866959879905,-0.3950565056899636,-0.17164474477046496,-0.2931349327034063,undefined,1497359772740
903d185fccf839df,-0.35905911473332425,-0.49063469467720516,2.3978798466819518,2.256929122172528,-0.6085338941061678,-1.8160879273743122,1.9097433337529857,-0.5489313898823414,-0.4578451138129167,-1.4401317632647699,-0.3115490355775097,0.05701790049875068,-0.5084322081105169,0.1385362311982702,-0.7928638468028999,0.40124404104779804,-0.3748165043014809,0.26470829215181774,-0.8206090829708599,0.691298176639749,-0.09595176184110431,-0.4090572642636862,-0.3053934211951355,-0.33620637693288485,undefined,1497359774225
903d185fccf839df,-0.35074296593321025,-0.5645987305804617,2.580350684641852,2.516085914546684,-0.6768206365945215,-1.8598473454884665,1.9960930148073044,-0.056581774838249964,-0.4090260843487108,-1.7045783371807581,-0.36434211015734697,0.10863556798659642,-0.6650999888591801,0.08020876590716156,-0.8518113165033664,0.44771794199219955,-0.3598877392987175,0.27314377308581056,-0.8650668200826018,0.5800752046831159,-0.11941428310342832,-0.3816587962203722,-0.3021486309093044,-0.3532256060276543,undefined,1497359775781
903d185fccf839df,-0.4117276200655228,-0.5769259870850262,2.773668595877041,2.7233178020349467,-0.7453028054401146,-1.8520606996470876,1.9002655168323968,-0.672860597014638,-0.41534842521131954,-1.4149818042501328,-0.35141154287998094,-0.02405758884743383,-0.673803754456328,0.08761536567372358,-0.8497060342150714,0.3002136028590802,-0.26012807538957955,0.35361649002774675,-0.9023458293205117,0.5552837057914192,-0.08875919401706621,-0.4005743071196599,-0.30107960871334327,-0.4121515137908059,undefined,1497359777224
903d185fccf839df,-0.354901074838677,-0.5370089672127718,3.065239663813558,3.018384951474867,-0.65245381823985,-1.8731705953272708,2.072843896458967,0.45352016603159356,-0.5134674461269788,-1.2003983795724193,-0.21417999522423697,0.06308163375467776,-0.9305648395721926,0.15427535930841083,-0.8286533806634986,0.3224403580512189,-0.298919333098301,0.4098087012981287,-0.8633386087442072,0.6256238045631314,-0.043264568035607666,-0.385140815249168,-0.3265494507766425,-0.38194193693885325,undefined,1497359778724
903d185fccf839df,-0.3784633354137545,-0.5569674771488989,3.147543185569073,3.1404927770834914,-0.8273209540029614,-1.862460752706804,1.9954855291596807,-0.0984810788946882,-0.5357552338673742,-0.5346079038512958,-0.2739928264514113,0.016354944047154533,-0.9044535427807487,0.1218711745111129,-0.8244428602603112,0.3002136876532448,-0.3021007334297967,0.41030900304028933,-0.845335814994691,0.575748240489574,-0.046472919706442094,-0.405559511398783,-0.34172553904983705,-0.4002628331198573,undefined,1497359780226
903d185fccf839df,-0.18580727992930654,-0.6068638104452015,2.811311106688686,2.7728859136213457,-0.6763680666750244,-1.8906748264589,1.9498846889140573,-0.4196779251902945,-0.5176504873387247,-0.3942575958109329,-0.20648914705601806,-0.0767713201729532,-0.9392686051693405,0.2255647109111412,-0.7454953818335363,0.3870997525672449,-0.28471004571387765,0.43457051146983444,-0.8206020885884566,0.5907463277812618,-0.025264625186163743,-0.4050065539368184,-0.2695533886108623,-0.3265491197824783,undefined,1497359781743
903d185fccf839df,-0.03611770570036634,-0.5628376563581052,2.963796071849169,2.8041494561319467,-0.6705669333132674,-1.8668234167434492,2.0276217468645865,0.13239404752442946,-0.480415302429371,-0.8618490891044277,-0.15334987498566574,-0.036654365143581204,-0.6955631684491979,0.2783372522788774,-0.7170743028519181,0.4477179702569211,-0.22581725769398342,0.5165631347171713,-0.7790900093084583,0.6534795965218552,0.03718026613889918,-0.3412621758641679,-0.10187596237661108,-0.2940424634392173,undefined,1497359783211
903d185fccf839df,-0.23293176657405185,-0.477720393946527,2.604595349616844,2.4180755677336854,-0.7531816504958743,-1.8615104217817218,1.912807037504024,-0.6551102707762242,-0.43052172610848466,-0.7467454063121409,-0.22690366942661624,-0.09615136056543687,-0.5606548016934046,0.3301838909711461,-0.7149690205636231,0.4436766803716853,-0.259422320418972,0.4734927824307555,-0.7437421205820903,0.677608961101603,0.023363742198354142,-0.36322889207897957,-0.06948140970232111,-0.26473861638364815,undefined,1497359784721
903d185fccf839df,-0.1774911656346023,-0.477720393946527,2.750699698388154,2.5491853155996833,-0.7023805954935738,-1.8553029993879935,1.892270884448542,-0.7141214456832691,-0.37260405805089186,-1.1407963865803572,-0.18215077617082162,-0.043248782931493486,-0.6302849264705882,0.3366647693730842,-0.7339164286380699,0.5467278200324641,-0.2430141122364392,0.44416491964618343,-0.729510607558665,0.7509363590168595,0.0232361021111211,-0.3571493923017747,0.06040336748663836,-0.22878175092376551,undefined,1497359786228
903d185fccf839df,-0.03750368449317236,-0.4806554689371339,2.732197511922333,2.5362298888682226,-0.5644288331752906,-1.8418143753795448,1.8805577335363326,-0.7244982392119658,-0.35708795999239934,-1.2921994265146302,-0.1440416747277002,-0.011248794990779997,-0.5998217468805704,0.4866497874280669,-0.7549690601029414,0.6437169966006676,-0.19680928845223641,0.47988905227828854,-0.7566162528643271,0.8632988177000803,0.05092947415561164,-0.3215123346377328,0.2504324006066194,-0.20790466523425302,undefined,1497359787775
903d185fccf839df,-0.10541833610574422,-0.46656713821021295,2.5982152415015696,2.5400640173671163,-0.5631842617150841,-1.8180048928511519,2.0153484504334247,0.2318119825726765,-0.4286627599058253,-1.1415447192362416,-0.21862540709236808,0.10361866622138742,-0.2864861853832442,0.5329414244923159,-0.750758547061988,0.5507689685940923,-0.15766029846351653,0.4486549718522616,-0.7458131782531934,0.8176424272210869,0.033953771948061796,-0.37339595614892335,0.2411738316708177,-0.270611526958411,undefined,1497359789213
903d185fccf839df,-0.17610515233638652,-0.5017880380974962,2.828537271531452,2.8030533541557356,-0.5938664956787569,-1.832902707038978,2.0616488115914864,0.5374768018920748,-0.40417992723477053,-1.2533277042823023,-0.4211816428360912,0.011513535986293096,-0.016669451871657744,0.4764656350443969,-0.6823373990921163,0.5527896983308748,-0.17675115747880935,0.4806680012223915,-0.7156849093581068,0.8041379893261613,0.05781424753297644,-0.42818986050678237,0.1800475850807697,-0.32364339748920934,undefined,1497359790735
903d185fccf839df,-0.18164920552924954,-0.5088322180749528,2.4967716495371803,2.5245698576316773,-0.4556164394260867,-1.8312093500646245,2.1012694604291466,0.7962415439060789,-0.513309166252048,-0.9820145202063119,-0.4091592363638624,-0.02375316737717455,-0.13852217023172905,0.3885113821638038,-0.7128637456375619,0.5608719954541311,-0.1860831339608164,0.4684137570337379,-0.7117037232168789,0.8110056984991943,0.04799206380163885,-0.3142885965094514,0.15635474256847004,-0.3164433170906835,undefined,1497359792227
903d185fccf839df,-0.17333312573995502,-0.542292072967872,2.7883427174736974,2.872907599886583,-0.4361970426492581,-1.8384998693954884,1.9778815975384678,-0.024441330083340904,-0.5313977640460075,-1.5377946179542459,-0.2449731276420317,-0.06209822275412287,-0.13417028743315507,0.39499223466419286,-0.7444427370082719,0.5649131722804808,-0.22923146281160808,0.4896037867443913,-0.7230805375249613,0.8371214569142681,0.06733774088366182,-0.30173785209522214,0.033955406226277206,-0.34658312924372675,undefined,1497359793732
903d185fccf839df,-0.2925304074081487,-0.6009936604639877,2.7124195579704065,2.6201185441821084,-0.3994771060023889,-1.885711217923936,1.846328184941711,-1.0100125928837644,-0.4688740960642655,-1.1109096310144384,-0.02349405133440772,-0.08314697664622128,-0.7869527072192514,0.3607363481221562,-0.7465479972098655,0.5325834750224678,-0.20565468976916637,0.5425408639126272,-0.7118926369086862,0.7339672673155451,0.07688877751253714,-0.24896063402260282,0.041706462308454394,-0.3684558600186334,undefined,1497359795221
903d185fccf839df,0.08585163706966853,-0.5510973563956775,2.836193401269781,2.7699659751394132,-0.139115252758564,-1.8676293341751526,1.8681056198973385,-0.7426219072501278,-0.6826904237192848,-0.7982583897080524,0.1903702177975756,0.027126318132869143,-0.8696384803921569,0.4375807013529063,-0.7233900760944653,0.5386453533208786,-0.17102264336529205,0.6448559020753052,-0.6823870867385555,0.8008889142406638,0.1547971465021391,-0.12425044199142335,-0.08414414904380946,-0.32929569693228916,undefined,1497359796728
903d185fccf839df,0.13990622471090233,-0.5622506413599838,2.5235678494843836,2.41982401802443,-0.3122235325436324,-1.8799766313772925,1.994956941282292,-0.0255974154000403,-0.6116648996665414,-0.11701602744812759,0.08410571126068173,0.02605748034935188,-0.9001016599821747,0.45517153120778564,-0.7549690527407077,0.41134709617255844,-0.1873510709036103,0.6130075283161642,-0.6954151482728412,0.7274229300067574,0.12176401553486117,-0.14034395830322932,-0.10116730707268505,-0.2889285510566821,undefined,1497359798267
903d185fccf839df,0.14683636021280058,-0.49356979889580443,2.5733326927835245,2.535492397634807,-0.20761798736076584,-1.8572502440831091,1.8812861974759367,-0.6805488881211037,-0.615106667471668,-0.3834371964945045,-0.0053233713997849355,0.022506846819301294,-0.8913978943850268,0.4792432394646031,-0.7633901377204849,0.41336762805629024,-0.11498443897153779,0.6166616361093261,-0.7240880790497184,0.6861858910014816,0.11008222436616696,-0.1241163151744061,-0.04125758866151816,-0.25943432096270425,undefined,1497359799724
903d185fccf839df,-0.11234847160764246,-0.5141153530580453,2.5197400387521687,2.395453533061979,-0.31308752161239406,-1.846875812855933,1.9506368121808992,-0.24467397426255005,-0.5984024782569141,-0.6630261595075156,-0.12117821939815551,0.038924106502043615,-0.7869527072192514,0.398695586350572,-0.7570743276667689,0.4376149716616038,-0.19483296554577625,0.6020135366692888,-0.7298114700348702,0.6659061369351797,0.09632532545595006,-0.1557820647148907,-0.11200149950918083,-0.27981514697432003,undefined,1497359801230
903d185fccf839df,-0.142840764168389,-0.535834937216529,2.1854218652378883,1.997558226376961,-0.3220669372275243,-1.8379920950724862,1.954373760283936,-0.22066839453298015,-0.5705855110974408,-0.7615548112791776,-0.18591322698563992,0.032724389623159655,-0.8217677696078431,0.33110969004041724,-0.7454953744713025,0.42145015129731883,-0.20526403779259236,0.5105468331077697,-0.7189174344905687,0.6737285522164101,0.05444067506531597,-0.21695312053734475,-0.15154651161489155,-0.2716065597546579,undefined,1497359802720
903d185fccf839df,-0.13729671097552598,-0.499439919649026,2.3902234628066727,2.2836612545280297,-0.16100320843644053,-1.798947057834297,1.915302739846416,-0.3327149467748293,-0.6623605445834546,-0.8708636574673763,-0.14168201837386124,-0.04525998061916039,-0.5693585672905526,0.336664717569986,-0.7518111550760834,0.33456400158915417,-0.12477039054383679,0.49329589262594076,-0.7510188013246689,0.682752044761597,0.035531909828517054,-0.18260937290032167,0.12103897865285952,-0.2668302703343258,undefined,1497359804224
903d185fccf839df,-0.06522388144666794,-0.43310719563331684,2.3315267222830975,2.2609623764683215,0.0585449910626848,-1.7452697408529085,1.824997825478839,-0.6798829638499962,-0.6661413609993587,-0.5467158304461177,-0.17139692681761667,-0.14485972546267906,-0.45185773172905525,0.2829663771329787,-0.7812849083319011,0.5507689685940923,-0.13057968063387795,0.3709370878959541,-0.795063726001332,0.7234501367088608,-0.029014966095486983,-0.19807102476934005,0.08616966062204312,-0.36477723366286835,undefined,1497359805728
903d185fccf839df,0.14822230450019686,-0.39084211576857697,2.6907266821045743,2.56553433943393,-0.06914165029642749,-1.7722982323183394,1.8595666281479664,-0.5460518342201316,-0.5226985531308195,-0.2920368935802436,-0.20669010117602984,-0.1113951793081578,-0.8609347147950089,0.35610714556340767,-0.7560217270149072,0.603304776101626,-0.046429594745183767,0.34083027527033904,-0.7901029871998749,0.8239711906150281,-0.028054984671915834,-0.24848716233550425,0.1655711649966324,-0.3838328039413632,undefined,1497359807226
903d185fccf839df,0.006848741049731715,-0.44367352405548655,2.683071060640144,2.4895634802741156,-0.3089423902950866,-1.816782042363707,1.9007993575078208,-0.44214231406681054,-0.32774667663526874,-0.37018215125900605,-0.31369362298731523,-0.015253687662045889,-0.8391753008021391,0.43295136928641226,-0.7265480032080246,0.5608719671894096,-0.03767664140328586,0.31715139800238745,-0.7854641013378384,0.8619745532225735,-0.030096561712635982,-0.2648794594493558,0.10043553341737627,-0.44643718661052884,undefined,1497359808720
903d185fccf839df,-0.35767313594051825,-0.5164634130505309,2.5880070685171304,2.4151469367062033,-0.799827283806611,-1.8492330024918322,1.8937777859262128,-0.7751592800212573,-0.3869615000090609,-0.3179215742729507,-0.30517190918872944,-0.10809557913786089,-0.7608414104278075,0.5060923190276849,-0.7065479576705472,0.6194695682011895,-0.0532869974329736,0.3151818521256151,-0.7714634830733433,0.9077233371609429,-0.021225308730127818,-0.2376685872597992,0.07678285387325186,-0.38832094438600545,undefined,1497359810269
903d185fccf839df,-0.4838004495943809,-0.5622506413599838,2.327698403276983,2.2824180998761805,-0.9559950225438358,-1.8452872694691382,1.8626671800493884,-1.0205398814620363,-0.30979285369362214,-0.7161763132168736,-0.23852823463960804,-0.0936188712866766,-0.3822276069518717,0.4357288701004221,-0.723390083456699,0.7386855282262532,-0.06910762614639669,0.25110512690150344,-0.7842746442840213,0.9556586962332182,-0.05149177339320329,-0.2780306491309146,-0.053825578544030694,-0.3868867042272731,undefined,1497359811777
903d185fccf839df,-0.38400738860661754,-0.6227132446224714,2.166919678772067,2.113429336724761,-0.9795389845112672,-1.863180485578349,1.9387211810672942,-0.5553883212140613,-0.3915522327670339,-0.7604637186357591,-0.18903882954353324,-0.10313795147794393,-0.3604681929590018,0.360736296319058,-0.6749689810243048,0.6154285044337259,-0.14537156449930444,0.2975382711179146,-0.7510327963900487,0.9471741540039219,-0.028172008084441882,-0.2514033699988573,-0.15382525976081027,-0.3480984940958589,undefined,1497359813229
903d185fccf839df,-0.4616242023175191,-0.6227132446224714,1.7260535726642288,1.7252333149826997,-0.8693174526384106,-1.8555615446091074,2.002827953524202,-0.1256542392195055,-0.350484740515278,-0.22531571366686973,-0.10626483628860958,-0.09413003151372824,-0.7303782308377896,0.2820405003590602,-0.7076006024958116,0.5447071750898461,-0.2051789963744485,0.21797749783298292,-0.7501232108292712,0.9132513781472605,-0.07247191229894841,-0.3121372413411593,-0.16023549973530893,-0.3608977341239673,undefined,1497359814744
903d185fccf839df,-0.530924832722897,-0.571055895559797,1.6539582238931527,1.7252333149826997,-0.930795062242922,-1.883454184619425,2.0293548014886738,-0.025047666834609073,-0.29476820900920614,0.2131961079825718,-0.038992958269961825,0.04454334447288535,-0.8217677696078431,0.2403779104442652,-0.750758547061988,0.4093264512299405,-0.22128500523725056,0.21763551971597683,-0.755447784340734,0.9335465297704962,-0.07572096832912446,-0.30876690558904146,-0.14010009309263483,-0.3279221865645566,undefined,1497359816232
903d185fccf839df,-0.4740982184852317,-0.4912217389033189,1.7432799916439445,1.7435514486476031,-0.7965872888073807,-1.8681767045817912,2.05573963535226,0.18791477139031884,-0.2783063125299155,0.5389620985215696,0.03466239579923945,0.04136356324254938,-0.8130640040106952,0.22926795899132402,-0.8097059946757531,0.47196531386223467,-0.2462936575862367,0.19661014788634537,-0.7926988063229031,0.8553224237397181,-0.10979917216556104,-0.34660447558384094,-0.05396691485000779,-0.31002955717632347,undefined,1497359817717
903d185fccf839df,-0.48241433277993595,-0.5111803072954307,1.874072080938596,1.8181192855437118,-0.7995084287428206,-1.8728561440987788,1.9896841654347677,-0.2586693534214499,-0.2836649652079567,0.20832276262022623,0.0449185595554166,0.10687612810692937,-0.691211285650624,0.2792629477419522,-0.8612850094972391,0.28606931437852706,-0.3676761234170129,0.1943556202251006,-0.7914393811664362,0.59011499411619,-0.15093827105429536,-0.39150653293257537,-0.0992135183227128,-0.3358229918858011,undefined,1497359819229
903d185fccf839df,-0.30916256698673766,-0.5440531471902285,1.8944884269074742,1.766925422070618,-0.7246594116719574,-1.8800465069292758,1.8832506501880621,-0.9667571986466843,-0.31114931291529807,-0.10000324489726195,0.16742194081197945,0.09705065018992212,-0.36917195855614976,0.12094542724493994,-0.8454954917251828,0.2517190004426177,-0.40168814919134715,0.1268021103007305,-0.8145848308919588,0.5029597917324494,-0.2046158271343809,-0.38007795191626825,-0.05441662636542048,-0.3483266381390107,undefined,1497359820730
903d185fccf839df,-0.39370944718871803,-0.6197781988598567,1.6437500509087137,1.7537123801765686,-0.6211235843524906,-1.9086728565498023,1.9391156233037525,-0.6144837630035526,-0.3526153575791402,-0.10649035955917528,0.09723003521954146,0.02800611551080828,-0.6999150512477719,0.08113451317333453,-0.8886534436535929,0.03551400517295806,-0.4622525215392767,0.049369207918502266,-0.855719082243924,0.364912727364129,-0.27490045555664283,-0.37689181934841426,-0.1336920667119769,-0.35185556860243344,undefined,1497359822288
903d185fccf839df,-0.44083393383346337,-0.6321054845924136,1.73689988352867,1.8296089240873965,-0.7672524853568413,-1.902486398149399,1.9775186904218542,-0.3723047145179623,-0.39050233678018276,-0.025178131357140573,0.07748478625411022,0.028033138991716063,-0.7869527072192514,0.03206527168887933,-0.8665481747256908,0.06986431910886742,-0.5686679133661614,0.0013338306514674607,-0.876023827879055,0.3015943186927879,-0.3149655817804162,-0.36419918361070497,-0.27623330310135563,-0.3330061500269733,undefined,1497359823731
903d185fccf839df,-0.6182438775429479,-0.6332795145886564,1.715845653816739,1.6926771370911358,-0.9459047567138703,-1.8885179512199624,1.9212960745103265,-0.7685021900763994,-0.39418529672038505,-0.055444979801817666,-0.06688368400185585,-0.0717409094577162,-0.7477857620320856,0.0487303283760366,-0.833916516443015,0.22140991986250108,-0.5176710764719982,0.024886047849951482,-0.8685232461054239,0.2779577066424514,-0.30411121501070754,-0.36485903719582496,-0.24960240633403033,-0.3560403053449973,undefined,1497359825224
903d185fccf839df,-0.542012939108623,-0.6150820496468934,2.0106069028793683,1.9607796057675115,-0.9229573664830111,-1.8787048653427452,1.8644817344878473,-1.0803938715900496,-0.46675395576731926,-0.7555606204223261,-0.04538696354831082,-0.04786626690601464,-0.843527183600713,0.029287822677967666,-0.8697060650280812,0.14260623686592197,-0.4663669826313339,0.05717139196003607,-0.9050815825629216,0.27570953506122314,-0.2949236840180032,-0.3429122691550077,-0.14399803892549934,-0.3853364647738161,undefined,1497359826735
903d185fccf839df,-0.4713263299104391,-0.5851442262867179,2.2887796167053347,2.262411055399695,-1.0127412108004665,-1.865938304775145,1.9660211566818582,-0.4051056843586161,-0.3920522166208006,-0.80965819415396,-0.030534011101380373,-0.09052958037928097,-0.5084322081105169,0.24871043878784385,-0.83602179873131,0.05369949874458247,-0.35214275997267247,0.12905663748582205,-0.8740717171673312,0.3739054202855745,-0.23848305417187388,-0.34560054078708163,-0.05914129666502892,-0.38551125186665625,undefined,1497359828224
903d185fccf839df,-0.2856002719062504,-0.5898404047276736,2.2855894355792223,2.273306496278884,-0.9161893733685362,-1.8822546259850577,1.8958447868318764,-0.8414562516945314,-0.39440645993980006,-0.9063780693264949,-0.15893308276930138,-0.10280927521265741,-0.5780623328877006,0.2570429153283243,-0.7970744040172562,0.25373961712051407,-0.20348963989344582,0.27767816018300984,-0.8232538791522017,0.520852784452522,-0.13201982121894695,-0.30964740324520434,0.05595443154026538,-0.36776359076456866,undefined,1497359829721
903d185fccf839df,-0.4034114712654088,-0.5405310864294924,2.307282057308105,2.270253407085353,-0.7143737141793703,-1.8750106925158474,1.8364401108243802,-1.1390283917643367,-0.3878379329975132,-0.3303261414602524,-0.17288719195940488,-0.05497538781102704,-0.7651932932263815,0.3061121827143286,-0.8433902536102905,0.3709348474087953,-0.039044107618652936,0.4114742617369598,-0.8344487762612662,0.5756712513182868,-0.05169203447150426,-0.36481105613957,0.16094700751027347,-0.4319215527551672,undefined,1497359831224
903d185fccf839df,-0.17887710992199857,-0.6573471879676179,2.114602538089867,2.158385535630191,-0.6774172045541097,-1.8863191512221882,1.9545184151872628,-0.39255414680901557,-0.3646975015262191,-0.4040401844352635,-0.1252842964436924,0.022354673795166764,-0.847879066399287,0.3135188342839888,-0.8044428294473014,0.3588112038708601,-0.13428328034612677,0.44216370701353125,-0.8221483830826232,0.692961210094179,-0.012449725300648631,-0.3726632966477266,0.13808528873593764,-0.42204736655145997,undefined,1497359832766
903d185fccf839df,-0.13729671097552598,-0.5364220106706351,1.7477461943931114,1.735063665222939,-0.5663419615054974,-1.8250811224593797,1.8404269153969859,-1.0230841692463468,-0.37400349738897387,-0.5159774012500741,-0.0796920766656439,0.021148575172068227,-0.9436204879679144,0.43758054594361173,-0.7718112153380284,0.403264685990416,-0.11812831758389988,0.41871915287504585,-0.8187479319383064,0.7996570351586092,-0.003713147857534107,-0.358307918532455,0.1322121939385043,-0.40186809899192,undefined,1497359834228
903d185fccf839df,0.004076817969529414,-0.5411180721996215,1.9378736703652395,1.880290864893474,-0.6096653155150278,-1.7806904812741928,1.8953372609514372,-0.6179983075208038,-0.4464114393355178,-0.9675185907767268,-0.08601020297094168,-0.09783467730039816,-0.9349167223707665,0.3866596804190651,-0.8423375940605585,0.5002538060291765,-0.1426456963627566,0.19089150234235677,-0.8934388881814107,0.7402806313351403,-0.14818390696723432,-0.3788203006918498,0.08597413802698807,-0.398238827709821,undefined,1497359835725
903d185fccf839df,-0.17887710992199857,-0.5692947921094481,1.713931494313682,1.6441198431579978,-0.7191154177073734,-1.7954764917340216,1.9986833785516485,-0.04948084606229238,-0.31517405961396544,-1.2455315936049094,-0.20907186817355114,-0.05172384648321483,-0.673803754456328,0.3551812946910383,-0.8518113238656002,0.7164588295635576,-0.07082743330019946,0.07437167128982203,-0.9004916734839308,0.8238479950548456,-0.19163462727610756,-0.41788019974847146,0.09947974691740566,-0.3429293668776522,undefined,1497359837221
903d185fccf839df,-0.3147066546850104,-0.5223335630317447,1.576120650749855,1.5954203334627755,-0.8011849953875771,-1.8354415767236436,2.0103018455401878,-0.08363739719077766,-0.2740082683095125,-1.0219313488628967,-0.13477079272601344,-0.03693589104295919,-0.7347301136363636,0.11168715163518833,-0.8549692141679907,0.748788498556849,-0.11991655564890473,-0.05599830901362853,-0.8935228507622024,0.7946063470177247,-0.25700258499021605,-0.4200063186853854,0.10515754679553002,-0.34024730302289935,undefined,1497359838741
903d185fccf839df,0.14406419559473013,-0.5223335630317447,1.05550382854346,1.0190172697583033,-0.5189866076231596,-1.832052533028782,2.0075773681043287,0.023646647303243208,-0.0797333631492016,-1.2727206427133881,-0.15544830271707424,0.029730327666551183,-0.8870460115864528,-0.1512497690849961,-0.8539165619804925,0.9367051147184531,-0.3246110420822416,-0.2859538271159482,-0.9003937194529426,0.9375655153757119,-0.34249153747199,-0.4735384100635504,-0.06413135869798728,-0.28638273546702425,undefined,1497359840225
903d185fccf839df,0.1509942620858089,-0.49885296310688926,0.12655907041170208,0.08404769036869633,-0.5258985953648364,-1.8522912920903463,1.972516789568695,-0.25086865547311366,-0.11496152457850492,-1.0039886654139567,-0.06095738622052544,0.06320779590577232,-0.9175091911764707,-0.3290098470831755,-0.8118112548773467,1.6823093618898,-0.05989614274179837,-0.38660963487672245,-0.8529133613087078,1.5329618014957425,-0.2449012507848889,-0.45496841326720616,-0.25632346772867476,0.06933796879724782,undefined,1497359841727
903d185fccf839df,0.1440642646055496,-0.5904273612698104,0.3052020976393867,0.19051253221471043,-0.4593295627635114,-1.8644708837435273,2.015408925961632,0.027349861558514,-0.148390331792237,-0.9984157060816434,0.019073608053061856,0.07634865109495335,-0.8870460115864528,-0.3475265666627478,-0.7791796481303075,1.6014850622153245,-0.21339813009713077,-0.4102695126492422,-0.821315763823945,1.629556247235921,-0.22375855188617455,-0.4899068137274134,-0.3766376932976377,0.0326836431922812,undefined,1497359843271
903d185fccf839df,-0.023643482500195368,-0.6315184403662999,0.44939279518153874,0.31687026553125397,-0.5282951603721737,-1.8942991219511558,1.958970660928476,-0.44654008704623704,-0.31840839943986193,-0.7612605494847605,-0.011942271065231373,0.06448338849372623,-0.8609347147950089,-0.2503139734185304,-0.7918112387888044,1.3307236992896778,-0.32494696934490863,-0.37900376949249137,-0.7922650048804695,1.5638202833968644,-0.2139921089807483,-0.4621248251146418,-0.5257789324527331,-0.06985485080556104,undefined,1497359844741
903d185fccf839df,-0.2758981788187402,-0.5734039263242902,1.0567798501665147,1.1058427439302676,-0.6315635628634987,-1.937837262055113,2.0233220051075036,-0.08393633037738849,-0.3004921562505411,-0.7090956350624864,-0.05761427430870717,0.05764391061718829,-0.9697317847593583,-0.3123448421991164,-0.7939164916281644,1.1023950039526398,-0.36785224764403707,-0.3248760971356359,-0.8099949235807987,1.5205352543378001,-0.20639292663307066,-0.4581872938033244,-0.6219607815830939,-0.013058906723131425,undefined,1497359846222
903d185fccf839df,-0.2897583808117172,-0.5687077917253229,1.29284359629472,1.179628994736395,-0.48187581779368954,-1.902279096155289,2.0496542465681435,0.19420617324713302,-0.29832224187652473,-0.8474570280390562,-0.058724960977729744,0.0852768116173171,-0.8217677696078431,-0.2762373316169884,-0.8581270971081473,1.0741064269915335,-0.27480915966125974,-0.2976697724042133,-0.8330843990823417,1.3710933404200014,-0.2335712884430485,-0.38572681733661157,-0.5772096085344312,0.10773025685701829,undefined,1497359847713
903d185fccf839df,-0.2869863542152857,-0.6432587841707161,1.0810242610045577,1.0899304753572823,-0.4902380909563473,-1.9476969319836905,2.0464748126093126,0.10201381996263134,-0.32207593723715955,-0.5613419130270915,0.028229562105553357,-0.1331278395049558,-0.678155637254902,-0.19661560707997391,-0.8970745286333701,0.4820682841928305,-0.5345198516626605,-0.2453279924953189,-0.8691319683703099,0.6350784510902869,-0.37957263012745324,-0.37323018677129843,-0.29098816034804836,-0.28205655335816615,undefined,1497359849216
903d185fccf839df,-0.22184366018832583,-0.6461938737753192,1.2067122638069896,1.2217234184462693,-0.5026632141951342,-1.9394025116059341,1.9429314607968502,-0.5774303532059023,-0.36848291387711757,-0.4537436861204245,0.03176892537400482,-0.17541757892487778,-0.15592970142602494,-0.22439065407239606,-0.9223377025881303,0.3810380438571634,-0.5687115810669259,-0.21208637195211488,-0.8735609492759888,0.44316762823952904,-0.40311975745867856,-0.3934933063362884,-0.22115146205054553,-0.34915161180523385,undefined,1497359850706
903d185fccf839df,-0.46301011209950566,-0.6814147736626025,1.746469918633107,1.6268403667445153,-0.756257071815831,-1.9359156409978475,1.9135328747827296,-0.8454731693657712,-0.39051356096309425,-0.6987880666860251,-0.0510508982248375,-0.24618926353587398,1.1322276069518717,-0.3530815682907675,-0.9097060972051657,0.25171905697206076,-0.6948779161841113,-0.24304180295599648,-0.8974200746896623,0.33291475733633874,-0.44421385704683564,-0.3729557304246371,-0.3285942500431425,-0.3867253214225392,undefined,1497359852205
903d185fccf839df,-0.4214297131530331,-0.6403237237941053,1.7222252536581146,1.704776016304352,-0.7170891401980473,-1.937937420901704,2.0298754931467795,-0.055752445885404886,-0.4187100512798275,-1.0009490234471674,-0.10512830684062682,-0.20754602211486464,0.6317610851158646,-0.3327132117203292,-0.9139166249705868,0.1345238832132226,-0.6527540641180136,-0.21541750249125957,-0.8836153666709347,0.25576854551582,-0.43664651932736104,-0.3599095615300359,-0.3833177452042199,-0.38718402793477597,undefined,1497359853732
903d185fccf839df,-0.5794354016766775,-0.5980585708593846,1.8830042322999803,1.879346273943451,-0.9454830429992578,-1.9265614163677889,1.9341426628589544,-0.7210078283548833,-0.3638229458748276,-1.187616244914677,-0.0971478246926731,-0.18739555032212862,-0.7521376448306596,-0.35956234308650925,-0.9002323968490592,0.11027642654902287,-0.7167974168618648,-0.23374504221893505,-0.8999389261281353,0.19003258282105995,-0.45605140858867416,-0.42690846676451305,-0.5006640183313298,-0.4388368289101633,undefined,1497359855283
903d185fccf839df,-0.49904659587475414,-0.6197781696318644,2.0744077298951633,1.9947732028489384,-0.9499573192924918,-1.942400241489002,2.0173391985613827,-0.18546262640833103,-0.3464717555002436,-1.0497055804569606,-0.12380327492748855,-0.0740308553059489,-0.8348234180035651,-0.279940670352593,-0.8697060797525489,0.13654449989111897,-0.6744122725751523,-0.1546529056920172,-0.903108482048625,0.23773696964074065,-0.4184151274249217,-0.4058523093598714,-0.3795377550400122,-0.4636274542590524,undefined,1497359856728
903d185fccf839df,-0.49211646037285595,-0.6913940432446622,1.625247610305943,1.6081320563345338,-0.983303550703627,-1.9855121297451368,1.9526117814880746,-0.6816032138275162,-0.35472519684726006,-0.8097805432080359,-0.07835863550630055,0.012038856256889234,-0.7390819964349377,-0.3123448551498909,-0.8876008135527961,0.1809976993634595,-0.5557495799732195,-0.14274697146778695,-0.9070756734731455,0.4324041229095734,-0.38989914054287195,-0.38163826541218426,-0.3525262890065784,-0.3974636023296634,undefined,1497359858210
903d185fccf839df,-0.4602381200084839,-0.691394028630666,0.8468736578316117,0.8113234778640496,-0.9127128097100393,-1.9825143994239922,1.9420531085350357,-0.7290217732126395,-0.32809695236957837,-1.1761334581369913,-0.10960476654954378,0.012851476666284098,-0.9262129567736186,-0.23920395721171644,-0.9065482069027753,0.6396757349801533,-0.2578232433682721,-0.19822355595012434,-0.8910109952537493,1.266630295653302,-0.20881884608125073,-0.3861561522548077,-0.6109085662740416,-0.41749810233175727,undefined,1497359859723
903d185fccf839df,-0.47825625837987895,-0.7266150162019263,0.4040939004946154,0.3408092232073044,-0.9354750578823333,-1.9817737021908122,1.951762361778209,-0.7010737752698882,-0.3417553034742684,-0.8858484809404881,-0.008315150391901005,0.02041156669985616,-0.9392686051693405,-0.27531146779384447,-0.9349692932466273,1.603505735422664,-0.4112380862930681,-0.33086072813010164,-0.9109798930431234,1.8118276627980392,-0.1564197839273409,-0.446677047874575,-0.6517799178255826,-0.4145645475843052,undefined,1497359861208
903d185fccf839df,-0.46578213869593715,-0.6450198583930726,0.3894195247610095,0.17841699793927468,-0.9701584275018426,-1.9327012910393866,1.9473232461989223,-0.6880008254428714,-0.2858584092998261,-0.8603554620440603,-0.03722658867547657,-0.024593936071510746,-0.9044535427807487,-0.37807904971530704,-0.9233903547756285,1.7085773504377315,-0.3738021275014076,-0.40218867367658045,-0.9088948427656993,1.8479986106801853,-0.18541042233471566,-0.43334479400020726,-0.5354366663834448,-0.43907740833723796,undefined,1497359862722
903d185fccf839df,-0.6515081967001258,-0.5229206072578585,1.2590294044891897,1.256465044869533,-1.008719505621041,-1.9125976271702003,1.9350236506856018,-0.7362691540766727,-0.36875148864650786,-0.8212127417503702,-0.016283809098418315,-0.030885105067261807,-0.7913045900178254,-0.2253164531416672,-0.8623376248735684,1.3367856341175315,-0.33988118288227076,-0.33345723598460203,-0.8761007902356498,1.912872258706778,-0.123676122137553,-0.37180033992952727,-0.6892615064594153,-0.549731344830383,undefined,1497359864246
903d185fccf839df,-0.5267668963444789,-0.4982659334947717,1.5193378155923871,1.448481160142352,-1.0214634851359337,-1.8981190755795019,1.8761002145704089,-1.1033476511194473,-0.3575886467826409,-0.8728295855754998,-0.007418620479065421,0.023247832158968838,-0.7303782308377896,-0.12625224880813293,-0.9023376644128867,1.017529386128207,-0.3386564009883575,-0.28269869260962555,-0.8805577586417519,1.6029015536635176,-0.1718509029135094,-0.402970061136358,-0.720069501759596,-0.5198660525650849,undefined,1497359865706
903d185fccf839df,-0.357673032424289,-0.58925336050156,2.2485850626475803,2.1250010713202667,-0.9457710420522141,-1.9361019795091938,2.032008265327079,-0.08260671388198466,-0.35399027892713075,-1.2164833344090094,0.019278563300920582,0.0684782751194249,-0.5563029188948306,0.007067790264339788,-0.8591797198467104,0.7144382128856612,-0.3071033838727251,-0.06923415881341481,-0.8648849026083163,0.8396314087723133,-0.24936329380855282,-0.37193121937066803,-0.21713226186909734,-0.4370330839963012,undefined,1497359867216
903d185fccf839df,-0.4200437688656368,-0.6432587987847123,2.294521841077556,2.2645932484594145,-0.9038876847758472,-1.9350561505227668,1.9333484622129335,-0.7166496587906357,-0.31986738334848275,-1.3942004375103498,0.14804414183281378,0.028825939101329565,-0.678155637254902,0.03576867517835671,-0.8644428997996296,0.6396756501859887,-0.33899690767698865,0.04564543995955536,-0.8756739849556843,0.8270662721051547,-0.19891992730553532,-0.4388287183621119,-0.046626429545085495,-0.5077458184024555,undefined,1497359868718
903d185fccf839df,-0.4768703485978924,-0.6649783537152036,1.8772625162016574,1.8801282292227388,-0.9376659135500998,-1.9138228056678024,1.8917764871587464,-0.9957516030084579,-0.3496621986390962,-1.22763033103307,0.15888723219051742,-0.04451316819529988,-0.8609347147950089,0.04224955358029484,-0.8497060342150714,0.6315933247980108,-0.34844123534493987,0.07694284787898649,-0.8563767814447825,0.7158587019730076,-0.192694934367042,-0.4620854706848091,-0.05945742662124758,-0.5375142552148878,undefined,1497359870223
903d185fccf839df,-0.45885214121567786,-0.6808277878924734,2.182870076128728,2.1467340731549758,-0.8952476988754325,-1.9216583663658717,1.9589364829111449,-0.5211655347725712,-0.4283052894576458,-1.3957038833039752,0.16968235879529778,-0.05211685485819875,-0.8261196524064172,-0.005893862933340108,-0.8244428749847789,0.5103568894186583,-0.36722372067270576,0.10868989305546245,-0.8435026501229244,0.7173523505485687,-0.18054101575440104,-0.41155702812187117,0.033529696026361036,-0.4963249378532611,undefined,1497359871710
903d185fccf839df,-0.45885210671026816,-0.7336591961793829,1.8389816133730612,1.7251136160370935,-0.9328933466033333,-1.9252896492070177,1.8862986039251677,-1.031602435146618,-0.45393775327623365,-1.029908576235237,0.1196766235131446,0.016961929950019376,-0.8174158868092692,0.010771245556915358,-0.8391796890337004,0.27192513895686,-0.34717742113447503,0.12639680464602693,-0.8232888626560495,0.6936695419502854,-0.1753730655379843,-0.373456579059232,-0.01713478597012456,-0.498058684267175,undefined,1497359873233
903d185fccf839df,-0.4574661279174621,-0.7254409569776912,1.847914018871395,1.7466739756387542,-0.903558534276482,-1.904531470362983,1.9110818990021334,-0.8233379353966522,-0.4627434957189832,-1.4007334054769371,0.07963871368528239,0.0520606902940742,-0.7477857620320856,-0.02996554528860849,-0.8612849947727715,-0.017021830599297242,-0.5239322523658906,-0.032477756395114715,-0.8599451555546574,0.33693375734622566,-0.33149660274362397,-0.32312052404228003,-0.1101674358687501,-0.46242007160888965,undefined,1497359874759
903d185fccf839df,-0.47825636189610815,-0.6955031336175157,1.9716878621707699,1.8139711695725216,-0.8369175030802222,-1.8770487763544368,1.9355653954367222,-0.5900241627882871,-0.4504999968830135,-1.7425366755889313,0.06227151190496142,0.06900458825307632,-0.6172292780748664,-0.017003840287830405,-0.8623376543225035,0.019349156543951574,-0.47430539051858656,-0.038120411786220644,-0.8849727482623948,0.40631915287721293,-0.3293189300109858,-0.29334188564942887,-0.1406932194992465,-0.4556340891264712,undefined,1497359877009
903d185fccf839df,-0.5198367608425807,-0.6315184403662999,1.9206472513855237,1.8816322227500508,-0.9347139096497541,-1.8616688099814882,1.9718882723022535,-0.3796236931285818,-0.3694395272125097,-1.5824979331702123,-0.05734715067597742,0.08692048742976996,-0.7390819964349377,-0.002190511246960914,-0.863390262336599,0.033493416759783214,-0.47185614184044883,-0.04928539205973933,-0.8912838718322013,0.3804497627504266,-0.34030569537172806,-0.32100384422401207,-0.09797521681267689,-0.4531779691836927,undefined,1497359877707
903d185fccf839df,-0.5087486544568547,-0.4143227156934325,2.7526141120281604,2.5653735167219986,-0.8920385519189611,-1.8095241332344887,1.8955476331820282,-0.7413264091252225,-0.3744387653873671,-1.8449167848654993,-0.12967227403856146,-0.04887425313437457,-0.7608414104278075,0.06076618250444534,-0.8623376543225035,0.09007037282894514,-0.4722409784739247,-0.05019733576103712,-0.8771503135860456,0.4698223372935887,-0.316515808843161,-0.3120611316340402,-0.18719891293671853,-0.4639420119672934,undefined,1497359879208
903d185fccf839df,-0.4546941013210306,-0.36853545815598726,2.5848168873910184,2.4233286432186505,-0.938797331922169,-1.777140719915193,1.9668074867728806,-0.24266381612449012,-0.3511478016939148,-1.5531624212129889,-0.22689326459378575,0.018082617667082256,-0.8000083556149733,-0.05125972682986702,-0.8244428160869085,0.3305226834391968,-0.32879999350150585,-0.09975895120857346,-0.8719446868626844,0.7592515190597487,-0.28744305395532443,-0.4030311960301313,-0.2692817998640021,-0.32817237394734017,undefined,1497359880730
903d185fccf839df,-0.17056103013270404,-0.3204002575380258,0.9304537094840806,0.7538734132506237,-0.8174878289125184,-1.7605705130625502,1.9684406025802181,-0.1947924287625841,-0.14675824685468122,-1.195968936013643,-0.22209019975002958,-0.11280247504121564,-0.6563962232620321,-0.19291229424591838,-0.6718111054463819,0.8720457202024271,-0.2271798828019388,-0.1837654491223979,-0.7933565055176445,1.355155953987205,-0.1686383148559501,-0.4532146902265569,-0.5783666114442497,-0.3548191934210122,undefined,1497359882225
903d185fccf839df,-0.02502956480923059,-0.28400521074253043,0.5208500060726126,0.3879341660302219,-0.7523279372135699,-1.7081649595443313,1.9573796371656227,-0.187259490014904,-0.24951720365249896,-1.0933669629904534,-0.17214718976336876,-0.08578593004820725,-0.517135973707665,-0.20957732503152657,-0.6665479034067613,1.01752944265765,-0.3091052163612147,-0.16617253154230965,-0.7320364542603982,1.4225395496446778,-0.1259157754309033,-0.45153422647092334,-0.6606008396181992,-0.4117673993550113,undefined,1497359883708
903d185fccf839df,-0.04304770318062563,-0.2998547033757849,0.08508798645699402,0.026178124006313443,-0.8948979814931652,-1.733127416422876,1.9053988837657376,-0.6305968001916716,-0.23274980955956415,-0.7895916113075859,-0.010573116361454164,-0.0485867007567777,-0.3517644273618538,-0.25957230083138016,-0.6633900131043708,1.3468884913892412,-0.1986402061663909,-0.28748639890452704,-0.714817302631725,1.233739209314256,-0.20920463697508884,-0.3851762240326942,-0.5056351778101779,-0.4024556696765899,undefined,1497359885205
903d185fccf839df,-0.152542891761309,-0.42430197066149605,-0.02656352435488474,-0.016733648745675928,-0.9483733204381743,-1.7093342368153428,1.8955528859800637,-0.6845682047985645,-0.3149449859467113,-0.7507379799532586,0.03873446271202709,-0.07414327039721208,-0.7608414104278075,-0.33549068663278997,-0.6528636826474675,1.427712706269552,0.03671425680755156,-0.4219284598996811,-0.7571130243078339,1.0273076530403789,-0.3253398224347379,-0.3221015861869421,-0.29982944911712534,-0.2738569232551019,undefined,1497359887086
903d185fccf839df,-0.5378549854775001,-0.5387700414351283,-0.015079583884340154,0.006845835548871602,-1.262652786912879,-1.750498880332418,1.94096175004908,-0.5767698140653463,-0.45792779243995146,-0.6025705373624247,0.1011825784436496,0.04277687162712474,-0.7521376448306596,-0.41326073532661484,-0.7118111376234665,1.1003743024805788,-0.080754903436082,-0.5569088227241199,-0.8020115595994813,0.7820104160713612,-0.45024907308785606,-0.28387541013219836,-0.32444003277643146,-0.19003735738400973,undefined,1497359888245
903d185fccf839df,-0.8053557935710084,-0.5469881929528431,-0.2135010733378503,-0.1754456774239832,-1.4439896278036273,-1.660413223228087,1.9020327311421834,-0.7641511804910034,-0.44562372076865364,-0.4916708810447985,0.0798961559921472,0.03823163959728109,-0.9001016599821747,-0.6086116755566099,-0.9065481995405416,-0.021063049822729246,-0.5606055897111449,-0.6926681353951382,-0.8840631605545288,0.15680273820762675,-0.6669420123138778,-0.3334052169113685,-0.3752900183413146,-0.2028843202092845,undefined,1497359889728
903d185fccf839df,-0.9314831417302808,-0.6350405595830205,-0.3417416276602909,-0.3197379566717766,-1.5152180842861918,-1.609533321870978,1.9046046810246733,-0.6976442061373359,-0.3648407479225727,-0.565415613137663,0.08160638908407838,0.08218223670819975,-0.852230949197861,-0.7641517535180977,-1.0539168038504867,-0.47367920714101236,-0.8981453737424185,-0.7908540944019632,-1.0390285295272499,-0.4697292096800856,-0.8859993112506503,-0.38491446998782375,-0.5990676522867728,-0.5394266324857847,undefined,1497359891228
903d185fccf839df,-0.9397992387722802,-0.6039287646825869,-0.40681847629914086,-0.38348709996665603,-1.5129346616201929,-1.6025805437955338,1.9034554542922553,-0.7047094570782175,-0.3567724502533564,-0.6053461710139373,0.10291666102063673,0.10213759650991594,-0.8696384803921569,-0.8456251797998509,-1.0739168346634966,-0.4918646300508329,-0.9729049404063662,-0.8590535640000773,-1.056821419788503,-0.525871941723397,-0.9384709965735647,-0.4355017586949867,-0.6057151776459636,-0.5265316273706929,undefined,1497359892731
903d185fccf839df,-0.9023768279623403,-0.5910144347239165,-0.4151129980544218,-0.41943407788987586,-1.457186185184087,-1.6273496744274103,1.9093882982388928,-0.697629984691147,-0.3581819037311012,-0.644651383800049,0.09684935722957036,-0.05270030929850415,-0.865286597593583,-0.8669193483903349,-1.0791799925297145,-0.38073120739915856,-0.970350105924195,-0.8788693452372532,-1.0495167491170279,-0.4429667094481685,-0.9284437096621806,-0.4371466549608054,-0.618114175023586,-0.4729100530098743,undefined,1497359894225
903d185fccf839df,-0.6833865370644979,-0.4736112889596773,-0.45530780624912554,-0.5113970537421726,-1.1854586393014286,-1.7826214195243566,1.9373194696331255,-0.6316436208227415,-0.45627811974345467,-0.700091407030934,0.042057393058834124,-0.03328531160278171,-0.5388953877005348,-0.7456350857416236,-1.0707589296366387,-0.029145417607789416,-0.749693040412163,-0.8153689192996341,-1.0629226396253642,0.24729940784385882,-0.7648396752964013,-0.4511130673711286,-0.36408847654729276,-0.4412682532046496,undefined,1497359895722
903d185fccf839df,-0.57527739628744,-0.39612522152367713,-0.41319883855136474,-0.418175093201151,-1.0270897617200552,-1.8094449389461464,1.914108798074942,-0.7753000445877918,-0.3970193121930895,-0.811991472460284,0.006400472361771838,-0.0010557486556954049,-0.5737104500891266,-0.7178600970276869,-1.0465483821015584,0.19110076862058067,-0.6509945962127355,-0.7892011960855538,-1.0241812980703533,0.3895348489293131,-0.7138349753632691,-0.4516000916967759,-0.34708961724307463,-0.4835673532152058,undefined,1497359897204
903d185fccf839df,-0.2592660537455609,-0.3896680565443419,-0.23072749231756604,-0.28907075282874223,-0.8052787037111226,-1.7884421885259447,1.9080102822714646,-0.7102403359791704,-0.3519002811824341,-0.8197867126219136,-0.06966382642952629,-0.006438148836426539,-0.6302849264705882,-0.6484225443005044,-1.0118114746606397,1.0458178782951488,-0.47479509037114703,-0.7184052190205057,-0.9612799681789181,0.7465478043801852,-0.5878640612978819,-0.47632315674423065,-0.4199968958466387,-0.4840981662215483,undefined,1497359898732
903d185fccf839df,-0.5849793858587211,-0.4284111048763381,-0.29899477621947734,-0.36037837813729107,-1.0112292171708106,-1.8758259272387559,1.9430787434085977,-0.6220361371883304,-0.1809643794133085,-0.8204654696818079,-0.09429809561954326,0.04894828106072329,-0.7608414104278075,-0.6336092152596349,-1.0128641047614364,1.3509296964803124,-0.4474639374885465,-0.6747649043942844,-0.9650442520574298,1.510002726429966,-0.3904687726383929,-0.49259401642863326,-0.5389366809426606,-0.6626143812366784,undefined,1497359900229
903d185fccf839df,-0.540626960315817,-0.41314867108319353,-0.3047367464547497,-0.40037127215964075,-0.9883641138306014,-1.8980119307376637,1.9267607945850433,-0.7454894560480584,-0.22913495202009482,-0.7715595205567587,-0.049796366267165916,-0.07508651473150056,-0.8913978943850268,-0.5910208133247942,-1.0076009689819199,1.260002313416355,-0.5122324706370293,-0.6120750942618447,-0.9678499730293485,1.8362033941717586,-0.2952319749218721,-0.5030839442434415,-0.6412789506396004,-0.7026599141721008,undefined,1497359902523
903d185fccf839df,-0.45885214121567786,-0.5352479076044114,-0.3653473923444328,-0.41691507796139776,-0.950975602661134,-1.9373574393248492,1.929979676119589,-0.7950318188064345,-0.2447474874949003,-0.7376447034198398,0.061950669390897106,-0.03622903622500098,-0.8783422459893049,-0.5438033253881759,-0.9991799134510778,1.2236314393319923,-0.6021518028512188,-0.5414817720477997,-0.9609231306896323,1.8616878217623074,-0.25437595410041663,-0.5058204188899387,-0.7439326799574082,-0.7166314353551699,undefined,1497359903214
903d185fccf839df,-0.3285667531617582,-0.7500956088197838,0.00023267559231852848,-0.17596791560260563,-0.7018354473509202,-2.023543949337906,1.9681828629853886,-0.5927506042689856,-0.20174184232999778,-0.7163828881341248,0.16543352885617307,-0.059251573360087836,-0.8565828319964349,-0.4919565701389363,-1.0191799221773863,1.8419374858844624,-0.39270137109887787,-0.47398525635202976,-0.9736433320987988,2.4420090305981614,-0.09881276884151902,-0.47012731348027736,-0.6872101030372618,-0.6420065257005778,undefined,1497359904723
903d185fccf839df,-0.30361851379387467,-0.6362145895792632,0.6733347170961467,0.5577382569165864,-0.5938047694253823,-1.901440571239645,1.9423555395996817,-0.594768154929797,-0.35640757727901595,-0.7849456465928478,0.22365241845227354,-0.08716398819245214,-0.8087121212121212,-0.4354807677402427,-1.0412852352786912,1.9187206369973098,-0.36090521730748176,-0.3736270969496295,-0.9920379472941112,2.6844421588412146,-0.010568127133602508,-0.4628428650880266,-0.742564399617625,-0.5730447568911178,undefined,1497359906211
903d185fccf839df,-0.06383800617009112,-0.5017880673254885,1.0019109203751544,0.8797470691518752,-0.6538012416571356,-1.8112151601428514,1.9688534759626408,-0.29671388465070614,-0.48633461766730995,-0.8676388668014853,0.1287142727946551,-0.07041148768223146,-0.7216744652406417,-0.3604881939588786,-1.0581273316159079,2.2501002458773542,-0.2334879887995066,-0.31493337448801734,-1.0118039376353494,2.42528632464575,-0.03932931843790559,-0.41590537888792084,-0.8252062040055664,-0.5954194814094048,undefined,1497359907734
903d185fccf839df,-0.4228157264512489,-0.4354552263978101,1.0031866878612599,0.8539294258977987,-1.007351505222223,-1.8065869608470375,1.923933760575472,-0.663110754041175,-0.34252962044780194,-0.8469963275527175,0.059011717926265,0.04752529634682745,-0.7129706996434938,-0.23364895558369675,-1.0023377963912345,2.1955436803683166,-0.25793377742136137,-0.2806594835661955,-0.9474192843457748,2.1290202339899507,-0.0823092472972056,-0.4431150781030651,-0.7109944195322334,-0.5709424919106366,undefined,1497359909218
903d185fccf839df,-0.44776403482995186,-0.510006277299188,0.3875053652579524,0.32119135206960076,-1.0481960070756988,-1.8483851585852284,1.8961761624949707,-0.9285785503735764,-0.33640216532568173,-0.7919775469617968,-0.03731952221278031,-0.05024296229583835,-0.669451871657754,-0.28179229439268444,-0.986548315430347,2.5511705763242314,-0.03568880841703679,-0.32366017193850344,-0.9223707014500899,2.4684789696825176,-0.005094593965285656,-0.47295689607800884,-0.810313250553676,-0.5915306888162258,undefined,1497359910715
903d185fccf839df,-0.19550933851140706,-0.687284982099801,0.22481298952387804,0.17053973528418415,-0.9579801571649821,-1.8856273645514616,1.9146847391750246,-0.8407668116261,-0.3156814428685256,-0.7589087948749819,-0.028979806841041653,-0.027278448428774894,-0.7260263480392157,-0.37344986010733305,-0.9676009220803679,2.638056782561839,0.04517212394282915,-0.3859130081100931,-0.8932149899091529,2.4621040097944786,-0.0272272860759846,-0.45925417651587386,-0.7031745751417505,-0.56411711085413,undefined,1497359913448
903d185fccf839df,-0.18996528531854406,-0.687284982099801,0.18589394881527976,0.13845036197458116,-0.9826041157750498,-1.882864886858109,1.9321729489686188,-0.7277875066715875,-0.3110792274510093,-0.7522976403587339,-0.036439996044985906,-0.01831394126304243,-0.6302849264705882,-0.37344986010733305,-0.9718114572080228,2.623912607140172,0.006768466067836973,-0.3892314707520732,-0.8917666500882659,2.405068167969132,-0.04225513626956859,-0.45909062459380867,-0.6826277676405866,-0.5515015408895821,undefined,1497359914441
903d185fccf839df,-0.27589814431333043,-0.7113525677947855,0.05956806226979506,0.07115901574360747,-0.969942423895001,-1.9254084415360702,1.942665868978653,-0.7241692548896923,-0.24687925407710906,-0.8500594983917625,0.03286217913303035,-0.05158848119300108,-0.6433405748663101,-0.3780790367645325,-0.9728641020332871,2.6582628362819167,0.055307964092939414,-0.39599505517534106,-0.8823839265007789,2.4774254617076896,-0.024602676141980112,-0.4736004789062074,-0.6661623419086163,-0.5138796986464631,undefined,1497359915223
903d185fccf839df,-0.31886466007424796,-0.7665320360741806,0.03532339729480272,0.014421206093992736,-0.8670545984817372,-1.9586094179843772,1.9996195765382057,-0.4056587292879953,-0.26829689644331756,-0.7075473155499971,0.06328351543918959,-0.06971993428242652,-0.669451871657754,-0.5049183010412635,-0.9528640564958096,2.539046932786296,-0.01919343347303311,-0.5219636391357777,-0.8880933241822645,2.2407205631538045,-0.1290978788565956,-0.4388467373531395,-0.6318712306764368,-0.4686646469333208,undefined,1497359916786
903d185fccf839df,-0.4352898461351906,-0.7729892595095006,0.2962696921410531,0.26490822920261464,-0.8502580550358705,-1.9257368648311652,1.9824942749087462,-0.47414258819430843,-0.3140776507156352,-0.7023815968348168,0.04786693747977988,-0.05192227136317935,-0.691211285650624,-0.47714325404884134,-0.8960218911703396,2.2763679517780706,-0.08973490501631483,-0.48350367274771633,-0.8858473480743629,2.4601022153731997,-0.07557818083102852,-0.4410593086907499,-0.5569097187895418,-0.47451751663717884,undefined,1497359918211
903d185fccf839df,-0.46994017859058446,-0.7612489010910881,0.37346938154129805,0.35423244842302176,-0.8072535558000548,-1.921164568323977,2.0055813441328563,-0.3081804587816259,-0.34001072272238025,-0.771604715674346,0.05494645506050447,-0.03651591787335827,-0.6868594028520499,-0.4632557629295666,-0.8812850182235475,2.284450361960213,-0.11241027267442057,-0.4747452119796198,-0.8848468040517105,2.440730970113259,-0.06957993217818688,-0.44372753521265335,-0.5968740037297425,-0.4790074456445742,undefined,1497359922081
903d185fccf839df,-0.583593407065915,-0.6814148321185871,0.4838451248670713,0.4706686903373254,-0.8634031789758472,-1.920614867743527,2.0034617193985924,-0.3279374101493912,-0.3467993775522741,-0.7159586259920989,0.03475313194078232,-0.016639967836784453,-0.7303782308377896,-0.4058540578554055,-0.8644429145240972,2.3107182939787014,-0.13295255818765553,-0.4620729919912118,-0.8659973957028687,2.4542046110499807,-0.057938515529373645,-0.4063901503312173,-0.5527055870693909,-0.4862355285079949,undefined,1497359922744
903d185fccf839df,-0.49904645785311524,-0.5053101280862246,0.6401581548967196,0.4499498581268703,-0.7793484623533715,-1.8298048186572438,1.991827456305161,-0.23933138956265898,-0.3517142723021206,-0.5263287807724281,-0.11929668505202073,-0.03842091062173208,-0.41704266934046347,-0.3928924176085002,-0.8760218677195635,2.0035860852334135,-0.0007447042151908752,-0.4042152178181822,-0.8767095124515994,2.0677652260820087,-0.1192638238610706,-0.41460859910049447,-0.5311317740278049,-0.47820998979984686,undefined,1497359924229
903d185fccf839df,-0.33826891526008795,-0.3397717524760316,0.6484521683781016,0.47633225845129007,-0.9112625302226037,-1.74582875709095,1.9678068147078704,-0.2508182202789608,-0.3423078020560933,-0.755903317680145,-0.23182702167596417,-0.06405420488836316,-0.49537655971479505,-0.41696408701299403,-0.892863971419014,1.5206609321291782,-0.10838632972167091,-0.3278969141986482,-0.8922004519894793,1.7297077506886172,-0.17745889400955464,-0.3823069453397155,-0.2931148083805549,-0.6014290699506214,undefined,1497359925742
903d185fccf839df,-0.20243943950789556,-0.32685733483338403,0.5954976522267478,0.5573937849187199,-0.7872375954087696,-1.7247258487696235,1.9718961700928186,-0.145434123876994,-0.3545564233179021,-0.4385318572754628,-0.25785464976228417,-0.05698130675515311,-0.6433405748663101,-0.3151223041608026,-0.8149691672664385,1.4135685591126066,-0.13970599690617,-0.23851374541403497,-0.8430408583845704,1.6447699250145587,-0.14922009296633765,-0.4462430144876674,-0.07659583187917601,-0.5819339497350859,undefined,1497359927218
903d185fccf839df,-0.14145478537558298,-0.5487492671751996,1.188847961084221,0.964912069861207,-0.7928741550012292,-1.7730063182807316,1.9937919336340486,-0.07908370242619571,-0.3217272119743724,-0.14005665654889168,-0.18663271986544655,-0.029627889671661172,-0.8565828319964349,-0.06977636870479206,-0.7518111845250186,1.5772378034041756,-0.08467926571696141,-0.20795729053730228,-0.7648375033505249,1.593369913239804,-0.12899696148175496,-0.4696035763707951,0.061047114110490575,-0.5395739849828127,undefined,1497359928722
903d185fccf839df,0.1953468256503519,-0.6456068587771978,1.2003321556917153,1.053482687001009,-0.6319544269649436,-1.7981714188665807,1.9937735229147597,-0.11158823090643083,-0.38694406680655985,0.2313514372122819,-0.07419362823532745,0.01082729319204358,-0.9697317847593583,-0.21420644988562781,-0.7823375384326979,1.7166595910315448,-0.1549806774811843,-0.2268167948596691,-0.7804403918501974,1.740255687569423,-0.1133638824762303,-0.49567922904625583,-0.0018765110529813621,-0.548984799357381,undefined,1497359930218
903d185fccf839df,0.10664190555372428,-0.6526510387546545,1.2711514828397363,1.1469998654725708,-0.7623153528029037,-1.811154598818709,1.9598358709818637,-0.3798579843585649,-0.37127875263949506,0.1821608521830789,-0.05317616170441876,-0.005179093354418811,-0.9740836675579323,-0.12625224880813293,-0.8065480822866613,1.9550913414933433,-0.1280977125691447,-0.159408942756149,-0.7960502774237803,1.8604559493844832,-0.06313202484205642,-0.4787644858065848,0.03182491987895505,-0.505629937300194,undefined,1497359931781
903d185fccf839df,-0.0818561790468959,-0.49885297772088544,0.7779684901866477,0.7165704197617095,-0.7109588658273971,-1.8952564403311365,1.9665155738745677,-0.42743280808580475,-0.3533726481109466,-0.2134828077557388,-0.01587849192776232,0.09634516225012024,-0.8739903631907309,-0.12717802197585498,-0.7591796099550638,1.783339856607961,-0.18417849268236083,-0.18424041509791297,-0.830852415452303,1.5243078879845102,-0.15578956049935566,-0.44063370714192307,0.1799558963980176,-0.345078833933251,undefined,1497359933213
903d185fccf839df,-0.6376480292125586,-0.6690874733160495,-0.3021847032086399,-0.45478641417062277,-0.9743035650887829,-1.9562871663745398,1.9523566994560364,-0.684851472888103,-0.2949761136569266,-0.3684152836872553,0.0004999989451854584,-0.0182967499709822,-0.6215811608734403,-0.1614339149932789,-0.8654955225381926,0.9164990327336537,-0.2459872491530701,-0.4478048659384049,-0.9201107310842607,0.6646742707365558,-0.47931045015451756,-0.3265614968920553,0.04712669405623019,-0.18419387359923292,undefined,1497359934760
903d185fccf839df,-0.5184508165551844,-0.9455717858691578,-0.5267650171401994,-0.6012359873996248,-1.0770988178363379,-2.043004742989068,1.9749020270715916,-0.6768816117442433,-0.2972938603125772,-0.5674720079324301,0.08179458528209183,0.01184109319014263,-0.6085255124777184,-0.2540173251049096,-0.943390363501937,1.577237775139454,-0.07217565425103482,-0.5287842174775925,-0.9825502720878924,1.1590259548090343,-0.4042904746167649,-0.33246976552244306,-0.3358104590027174,-0.35312228829260156,undefined,1497359936224
903d185fccf839df,-0.6625963030858518,-0.902132661394179,-0.13630189221150416,-0.17009217431477014,-1.3145544226011876,-2.0135631592427217,2.009696988648505,-0.47208989318757477,-0.27231703700810406,-0.6717216881875389,0.14706886607835037,-0.07729742752822781,-0.8304715352049912,-0.31512238834083717,-0.9981272759880473,1.2377756430183808,-0.16686014543791836,-0.5763699578308554,-1.0025681474738815,0.9876874481145013,-0.4629937557907942,-0.33671219253060075,-0.4907811619004707,-0.42731676386690687,undefined,1497359937713
903d185fccf839df,-0.4948885214746972,-0.6591082037339897,0.883878539037153,0.8771889521090932,-1.1889454899052891,-1.9549827930123462,2.040373673811263,-0.1687223984029316,-0.22675038622290383,-0.6961122149289867,0.16318368765586258,0.011389971591219974,-0.7564895276292335,-0.36789491028241156,-0.9823377876649261,1.213528384207232,-0.12629040792060567,-0.545547521645072,-1.0010568363000507,1.1060706976613761,-0.42167068508516076,-0.32124451749685673,-0.4296594840666803,-0.3643466611306779,undefined,1497359939219
903d185fccf839df,-0.4754843007942669,-0.6767186829056236,1.234146601634195,1.235392609105389,-0.9660852924428612,-1.9034996173274072,2.037423032230009,-0.0558134372795436,-0.14530139148358437,-0.9812370753435824,0.11865487245752614,0.08385269881552945,-0.6041736296791445,-0.260498138752975,-0.9823377508537571,1.3832593937383255,-0.08573578566702068,-0.477677364941009,-0.9657509276865445,1.1047772266553355,-0.3717819605125118,-0.15022668117375476,-0.4821662561979252,-0.3617641721986688,undefined,1497359940732
903d185fccf839df,-0.2204576813955198,-0.6444327995529627,1.5844149183681866,1.3711677929452406,-0.7428856636733028,-1.887139041206139,2.0110040014936987,-0.13572214000702557,-0.20126709267393647,-1.1350089673064139,0.1024707930289051,0.013392485108566825,-0.8870460115864528,-0.06514717909681808,-0.9254955781660532,1.4762073086860146,-0.09187961055890641,-0.2596911113523401,-0.8625409702305822,1.4229399031817043,-0.17247972457120406,-0.16063626120113314,-0.7461941648705275,-0.5160833857369259,undefined,1497359942214
903d185fccf839df,-0.12482262579699396,-0.670261488698296,1.3343146802494281,1.1396739326042444,-0.636387556685038,-1.8896592781775818,2.0665060554462746,0.28200254559261967,-0.20245279443266187,-1.5255091031677788,0.09689471504977304,-0.027560154450918733,-0.7042669340463459,0.0468786784343961,-0.8833902784251412,1.0074263310034466,-0.2206781332246874,-0.048772421794770794,-0.7897251586050823,1.113277167558937,-0.13032796065224123,-0.2372148012962843,-0.6672998956115019,-0.5700309554465368,undefined,1497359943772
903d185fccf839df,-0.1539289395649345,-0.7518566611211459,0.980218298646272,0.7881890245667693,-0.6372618410113281,-1.9191148384270185,2.015403664259661,-0.08847468909672415,-0.2515644306494754,-1.6410588815698854,0.11703010041791265,-0.03383887540992948,-0.7173225824420678,0.14409133643248626,-0.8802323881227507,1.2802084801953189,-0.1558247902564666,-0.0013260073097436946,-0.7751368084716288,1.2281957740423461,-0.08082476952428931,-0.2770134738471589,-0.661736031088272,-0.5057617796930451,undefined,1497359945208
903d185fccf839df,-0.1553149183577405,-0.7941217702138782,0.915141450007422,0.7804858687329369,-0.6658972205741662,-1.9246700741550526,1.9658291941230341,-0.4209363058433626,-0.3237313334431033,-1.8195104586754354,0.13077081433603965,0.019305289956541002,-0.7608414104278075,0.34129392012873455,-0.845495521174118,1.4721661035949434,-0.07056169361159055,0.10468747069690772,-0.7498153512791558,1.4447441154094178,0.011782757988597549,-0.21136558751968687,-0.5665145093139425,-0.5628882750642032,undefined,1497359946712
903d185fccf839df,-0.03888962878056864,-0.7530306911173887,0.8270957038796851,0.7794476958550695,-0.6214424380579268,-1.9331461753712005,1.944012326780757,-0.5480724320278048,-0.41066259715498654,-2.1385179560677723,0.14622953919339465,0.019114631087704653,-0.8174158868092692,0.2237130091664025,-0.8360218060935438,1.748989401348444,-0.02673703588005357,0.040313101333361245,-0.7500672370212517,1.532838624930879,-0.004363391193328663,-0.271645968968365,-0.6014709769937527,-0.6290075079911618,undefined,1497359948212
903d185fccf839df,0.027639009533787468,-0.7612489010910881,1.2941201261916737,1.2321016591907277,-0.5124963348024096,-1.9015919699218837,1.950550027619077,-0.43183531810986353,-0.3957948596715001,-2.142444772124457,0.1652594818601293,-0.051264173634788725,-0.5650066844919787,0.31907391361665577,-0.8349691907172146,1.3468884631245197,-0.08339419190458239,0.10164132587326866,-0.7367173220581804,1.5168088451867916,0.030041918071468037,-0.24598059859726024,-0.7869651335184596,-0.5861671547653095,undefined,1497359949726
903d185fccf839df,-0.1996673784060543,-0.7137006570152634,1.224576566529758,1.0997059301230958,-0.6759360630202679,-1.8603714236868552,1.9212355843168145,-0.6461288004973853,-0.38325208833354624,-1.5137924322388363,0.11831556896740532,-0.048522300457202204,-0.5388953877005348,0.20427052936988266,-0.7654954126465462,1.2721259004248473,-0.09264769874932338,0.012416481998316825,-0.7425736533308459,1.5002093201475695,-0.026919616293764825,-0.2352018616216056,-0.6719178543539995,-0.5295617501859663,undefined,1497359951228
903d185fccf839df,-0.557259119894406,-0.4606969005450221,0.9406616283315703,0.7311718625838329,-1.0997273508928573,-1.7503335054673783,1.9538662129293,-0.39502613212905524,-0.38663657632728055,-0.9934160408948712,-0.008952959368728952,-0.05119401014013115,-0.8217677696078431,0.23482299947166735,-0.7465480119343331,0.9144784725852004,-0.044580149163562705,-0.017240692268456728,-0.7554477849096207,1.0537467875603252,-0.14403693349897723,-0.20129118789537367,-0.3892107133633719,-0.4433244323704525,undefined,1497359952736
903d185fccf839df,-0.8219879704023023,-0.48769961968659825,0.6420723143997766,0.4781834302528492,-1.3807325948320393,-1.7401477420165885,1.9564828637093017,-0.4306340480815571,-0.2670911719134048,-0.5974754404836504,-0.19100981959475902,0.11393069996230283,-0.8087121212121212,0.03484282430598736,-0.7118111228989988,1.2418168198447306,-0.12517661940739097,-0.1382252491284626,-0.7588272442143832,1.1551609493772672,-0.17785017307686582,-0.25360605022087535,-0.5446579494162619,-0.36500686309544556,undefined,1497359954214
903d185fccf839df,-0.596067630266086,-0.4882866346847196,0.6739731091130983,0.5291829069091739,-1.2347991248661474,-1.8065590100570619,1.9762958234310848,-0.36211942749455783,-0.3174911241734085,-0.7351571186159372,-0.18532914927789962,-0.042982077030585625,-0.6433405748663101,-0.0799605728915603,-0.709705870059639,1.3408267261497167,-0.20738142296140713,-0.13868755443216207,-0.7200089382719131,1.228118781303547,-0.1547274359783003,-0.34720446520946197,-0.5268698614878582,-0.381994950900086,undefined,1497359955777
903d185fccf839df,-0.5323109150319322,-0.6385626495717488,0.9540599824421214,0.8385566527041921,-1.1571935395025872,-1.9047760396368698,1.9981311041114558,-0.3501232335044855,-0.2772171290993481,-0.8542027390362683,-0.1084505261490557,-0.018538372888226424,-0.6346368092691622,-0.25216564926171997,-0.7170743028519181,1.0882507154720866,-0.23208087640018668,-0.24698089091692468,-0.7848903660574081,0.9302666530284481,-0.29069017861860585,-0.37693549632491097,-0.3638290555927425,-0.313141620006138,undefined,1497359957212
903d185fccf839df,-0.5932955691642448,-0.611559959658165,0.903018609246027,0.8881632190603309,-1.1035330593432329,-1.9097373189434887,1.9803115380339205,-0.4846544497321125,-0.28208406366099403,-0.8860910968320295,-0.03217522956209457,-0.03480476075407091,-0.6041736296791445,-0.46140412593870067,-0.8107586026898486,0.6517993785180886,-0.36225457273355827,-0.3815876096270008,-0.8801099654555028,0.7221258679772645,-0.42390880047718293,-0.38186019655268866,-0.3907978991842153,-0.3522692581579164,undefined,1497359958866
903d185fccf839df,-0.5697332740837575,-0.5176374430467737,0.9629921338035056,0.8301451875807101,-1.1730643735478596,-1.8998939546811109,1.995609121542297,-0.38055721974776135,-0.2968814254432503,-0.9293651122800499,-0.06561656315676123,-0.06094312869829673,-0.9871393159536542,-0.39844739333497076,-0.9128640243187252,0.6578612850812208,-0.3444735054140857,-0.3721768542372098,-0.9149051056760678,0.6275024223118485,-0.4465965002838926,-0.3876346941935083,-0.33843167420038955,-0.3078960664910375,undefined,1497359960219
903d185fccf839df,-0.6431920479000118,-0.4606969297730144,1.0925082014751022,0.9907810826478964,-1.1269535944906048,-1.8874045740248546,1.9732557701033493,-0.5056613579409048,-0.3290874701192509,-0.9228088507752366,-0.045856321433895016,0.05884131508752829,-0.9653799019607844,-0.4225190627394646,-0.9276008899032834,0.5487484367103604,-0.48573486003329086,-0.3893771308263462,-0.9245257203011774,0.5427031804793753,-0.47510529357806447,-0.41489181146002585,-0.3053143744645855,-0.305438156913229,undefined,1497359961821
903d185fccf839df,-0.573891279472995,-0.5540324313862843,0.40154185724850566,0.36165977792428217,-1.0337446074118684,-1.9001827821471704,2.0212549973929486,-0.1929837431007254,-0.36708880819888184,-0.8926084418528963,-0.03630210792511775,0.05051487710066469,-0.8391753008021391,-0.5113991146893289,-0.9107587641171315,0.9993438925565826,-0.3148789635483333,-0.49998199163708684,-0.9298712831625503,1.0521453470395554,-0.4095088821029805,-0.4603495586737498,-0.3964818480855594,-0.2516778176594344,undefined,1497359963227
903d185fccf839df,-0.39509539147611433,-0.5657727021207197,0.7090635766786331,0.7223554504689841,-1.0101800745664946,-1.8929155562984663,1.9668022303085186,-0.5418902710130292,-0.3884058577414794,-0.5392817117624583,-0.009691241234237449,0.04423873374197236,-0.8087121212121212,-0.4141865991497587,-0.942337740763374,0.898313567426751,-0.3589213587730307,-0.4827057225309114,-0.9622525239793341,1.0068277202333353,-0.4128242885172108,-0.4396829301241308,-0.49252260994196606,-0.2619676800189679,undefined,1497359964728
903d185fccf839df,-0.36183114132975575,-0.6133210046525291,1.0593318934126246,1.082219796935366,-0.8926556986565495,-1.880975876726425,1.963930476546043,-0.4982078836019948,-0.38836919062009123,-0.920403810558333,0.03352276774069303,-0.013159552818030034,-0.9653799019607844,-0.27438564282302425,-0.8728639626927055,0.8922516325988972,-0.2684219133452318,-0.34941625765599943,-0.9091677202311251,1.1078723171248226,-0.3125366817967462,-0.28967598538961636,-0.6075876829964687,-0.3197993868712038,undefined,1497359966226
903d185fccf839df,-0.2731261867277184,-0.6056897512209665,1.8338772727438923,1.7830746001569429,-0.7577690663577247,-1.843840816754529,1.9417138678164323,-0.5148710120017683,-0.40601368331748766,-1.3277664084459502,0.03344437775755486,-0.05908939206367423,-0.8391753008021391,-0.1669889101459113,-0.8507586790403358,1.6378560776232949,-0.29602866448786763,-0.19940148572200558,-0.8684182930124804,1.6194856639678992,-0.12128106295293002,-0.2639757129045808,-0.7078761097376045,-0.4567093511628699,undefined,1497359967705
903d185fccf839df,-0.1927372774095658,-0.5757519863167757,1.448518488444366,1.3249363240009167,-0.7108971472380186,-1.9009374565788362,2.0096312422525124,-0.09870307156671056,-0.4140417080013116,-1.5777758086399265,0.07516256561117705,-0.08615414488108741,-0.5867660984848485,-0.058666326596429036,-0.8328639157911534,1.850019952596048,-0.2559723818648918,-0.14619209391901153,-0.8691949392767082,1.7184822699574718,-0.0705758345714038,-0.25002255000076457,-0.7813109725381702,-0.470379318245489,undefined,1497359969270
903d185fccf839df,-0.148384817361252,-0.6227132446224714,0.5489224817798202,0.5330344088672851,-0.7173874212470779,-1.9180410597591715,2.0037772913622622,-0.1895787718817804,-0.33008720913585116,-1.397134599160321,0.0678375295882519,-0.029406664185357805,-0.8130640040106952,-0.1688405859891009,-0.9391798136498145,0.6942321309008619,-0.472089005376881,-0.1862352960658575,-0.9300182163928237,0.9263092461272311,-0.2832523267853726,-0.17806209190212444,-0.5192973883021028,-0.5620993644172639,undefined,1497359970752
903d185fccf839df,-0.38677941520304904,-0.629757424599928,0.26436940570163026,0.24092242984372292,-0.9117356701878266,-1.9288883260623815,1.9836329777134614,-0.43157831894472937,-0.3123295124757388,-0.8916876125600305,0.14916670508221996,0.034511364806169516,-0.843527183600713,-0.21050309819924862,-0.9802324980143973,1.0700651653710191,-0.3337653229919358,-0.22608217729644123,-0.9466916163693899,1.009707229827962,-0.28425756742899444,-0.18043100559294653,-0.4941587158899581,-0.5303849889540815,undefined,1497359972221
903d185fccf839df,-0.10126039972732617,-0.672609577918774,-0.0648446813204303,-0.0964267307586385,-0.8668386020127545,-1.872578967588757,1.950770916968479,-0.5947102493308757,-0.19272767530490673,-0.8409777369115137,0.11795555792625065,0.0629975812677311,-0.8783422459893049,-0.4364065797602884,-0.9097061045673995,2.039957044111941,-0.0569743180355991,-0.3604799064179571,-0.8577551523310993,1.6255218541924363,-0.1848811088733236,-0.4315517350172898,-0.5005592090556246,-0.05046585930182074,undefined,1497359973727
903d185fccf839df,-0.2634240591347984,-0.5193985464971225,0.4525827221707012,0.47231021896521447,-0.791465015923328,-1.8166259837343208,1.9178562727244852,-0.6544912888295314,-0.37691173088851215,-0.8386316734381605,0.0717341746296254,0.07558353685199264,-0.9610280191622104,-0.47066242745000136,-0.900232441022462,1.4256922026505419,-0.18988932251362622,-0.3846464209525645,-0.8425370901607723,1.3527229992970586,-0.24621245482543824,-0.4533636044152953,-0.5719070871832053,-0.08915288544785371,undefined,1497359975218
903d185fccf839df,-0.3909373515814671,-0.38614590809962884,1.441500496586039,1.380949979107356,-0.793830724925833,-1.7746717257517046,1.9761301473841582,-0.1236989469116871,-0.4122642383069649,-1.3475975550951025,-0.013787546339172927,0.10108108062227115,-0.669451871657754,-0.3428973770547738,-0.7991796494943821,1.6520002813096835,-0.09127091231833846,-0.33560410631076104,-0.7562594150386028,1.5707341921872513,-0.16323483904389433,-0.43038720560406857,-0.5671930669324029,-0.18034719954208459,undefined,1497359976730
903d185fccf839df,-0.1871932932275223,-0.510006277299188,1.3611108801966314,1.3283915408919573,-0.7942318655379235,-1.7750234409845926,1.9306660652988186,-0.4355323492446733,-0.4027857653027324,-1.1711097957531595,-0.13847086195567213,0.04630736238038331,-0.5911179812834225,-0.32993571090631935,-0.6370742458599828,2.2137291456752193,-0.2000320240654618,-0.2896016029343492,-0.6629919256915894,2.0677190149543807,-0.015777967949437775,-0.49976596582783384,-0.6925723812670043,-0.28738926585487384,undefined,1497359978223
903d185fccf839df,-0.13036664448444724,-0.647367903771562,0.8653760984343823,0.7721703782145901,-0.8019975630589926,-1.8124892529009613,1.985321327249949,-0.22721968045126298,-0.287795878933158,-0.8632920689808931,-0.17799808637139922,0.04373328999032235,-0.8609347147950089,-0.28179230734345895,-0.6528637194586365,1.6297736674411525,-0.3351316026029761,-0.25082498892502153,-0.593933402889321,1.9306882473393245,-0.01574929272146409,-0.4982597519850117,-0.6837587744580192,-0.3732168705911503,undefined,1497359979727
903d185fccf839df,-0.15808691044876227,-0.7031343578210861,0.8532537659468862,0.6751743632198312,-0.7635804834099973,-1.8314539177982219,1.9970108125497907,-0.16838401460974495,-0.3242020984921758,-0.760259430520278,-0.2134678856335239,-0.000015326824285553352,-0.9044535427807487,-0.17069224888151593,-0.674968973662071,1.5651141033367972,-0.32418833887769577,-0.1742470338174346,-0.6359282616487962,1.57786367434053,-0.07932837571405917,-0.3388016279461358,-0.49581988651701675,-0.5936761369245023,undefined,1497359981256
903d185fccf839df,-0.3853933328940138,-0.6755446529093809,1.1390831177850804,1.0280801485820226,-0.8282672360439572,-1.8090023825406798,1.9221323425840702,-0.5991374315904748,-0.3164136890009909,-0.8527046231066848,-0.25966400099350434,0.003957416861440637,-0.9218610739750446,-0.19568978210915366,-0.6423373742772656,1.6499797211612302,-0.2272203196674887,-0.17619757929076146,-0.6024974985398682,1.6390108991883872,-0.07210383627442692,-0.21427867012599777,-0.2172296590897561,-0.4832211167074149,undefined,1497359982744
903d185fccf839df,-0.3743052265082878,-0.4589358555506579,1.6699086212498135,1.6559757456779611,-0.8383677904757176,-1.813726081314452,1.9070293676745678,-0.666406519498114,-0.29464430117870233,-0.9685212350840527,-0.2809741316623313,0.011932323392846183,-0.9175091911764707,-0.19661558117842484,-0.627600523417175,1.5913819788258425,-0.19549630628700426,-0.18168190718658309,-0.5594881019463581,1.6764137226927742,-0.05484263222493179,-0.1441261460279623,-0.1410502817311137,-0.2823180982828091,undefined,1497359984217
903d185fccf839df,-0.3396548250420745,-0.5657727313487121,1.1658793177322837,1.065124503646012,-0.7605256325118642,-1.8573224520015512,1.9087545208417636,-0.7240518907530549,-0.2627959275443489,-0.8188284688826464,-0.25662476416535385,0.0071557589486811665,-0.9262129567736186,-0.17439557466634603,-0.6012847046371504,1.7449482810515373,-0.13869935623273308,-0.19066202167547153,-0.5848305509600342,1.6409665043179045,-0.07480110336143184,-0.15579481371252166,-0.11747621706563095,-0.25782966238718286,undefined,1497359985716
903d185fccf839df,-0.32995273195456426,-0.5681207913411976,1.0242411717101403,1.0248335993004207,-0.8693174462527474,-1.8764455051638143,1.976982209467749,-0.3901492037183879,-0.3038038980995235,-0.5900283844755,-0.13201870151329861,0.07482525731169244,-0.7956564728163993,-0.22624230401403655,-0.6739163656479755,1.4923722703739073,-0.07742132211303149,-0.15976992277703678,-0.6532523644985921,1.2245155466172812,-0.1585248803687115,-0.11589299459159146,-0.051631186668323,-0.10544519731538564,undefined,1497359987231
903d185fccf839df,-0.18164917102383982,-0.5505103413975561,1.2896536693055576,1.2655425381651684,-0.8976236892398467,-1.8201920473577455,1.932596330042156,-0.622234115846241,-0.44059624087324517,-0.7182444122433042,-0.03997351554019476,0.06247392337848206,-0.6563962232620321,-0.19568974325683003,-0.7181269624016501,1.4014448873099499,-0.06276326747972712,-0.1856273326589381,-0.6947014717099507,1.4138086353172608,-0.14103891924144604,-0.1761687653253737,-0.11530739415677844,-0.20082526690668825,undefined,1497359988724
903d185fccf839df,-0.008397301714412357,-0.54698828063682,1.7930448349430852,1.7547216046534504,-0.7072251561520032,-1.8145506319178413,1.992987198585107,-0.12466846532421505,-0.43588702509190713,-0.5888915545141727,-0.10606474146670967,0.006505131830379783,-0.7956564728163993,-0.2197614515136475,-0.6886532017835986,2.1187606988437984,-0.06097155191144141,-0.21925526530225592,-0.6786158038959617,2.1104343129614334,0.001382271917353269,-0.3305745522653724,-0.3031096971769944,-0.3518043966044205,undefined,1497359990222
903d185fccf839df,0.3866168678365841,-0.5006140081012534,1.6813928158573077,1.6862085014356942,-0.3065766870140718,-1.8409339242725953,2.003992935508162,0.061806498499439956,-0.32897955789462746,-0.5465548080538376,-0.18623314472198246,-0.08478714843152756,-0.5998217468805704,-0.11791973341532883,-0.7128637603620295,1.7105981084392357,-0.23685489767575207,-0.22783640598385826,-0.7121515188988892,1.9539553094073703,-0.04077957130325368,-0.3491369975414141,-0.32324151039856536,-0.4377760375412131,undefined,1497359991734
903d185fccf839df,0.04011312921772924,-0.4900476796790838,1.2016079231778207,1.0956489467337551,-0.49968036059359805,-1.8225655431291798,2.018009803682221,0.09772466093673315,-0.2902354005204719,-0.2632336329121953,-0.1755002771778182,-0.01609564328170781,-0.6563962232620321,-0.06607302996918742,-0.6981269242264064,1.3670944603151542,-0.10143885367723074,-0.2200468853824729,-0.745694230584235,1.646864115951158,-0.11233651224191052,-0.3055197977252516,-0.17352257831348347,-0.3745923656593054,undefined,1497359993227
903d185fccf839df,-0.09571624301823396,-0.4477825413583592,0.6356919521475527,0.5199646456620277,-0.5836527916877784,-1.8382692724582081,2.0223568661888236,0.06620298969285328,-0.26667386969764434,-0.409335506915509,-0.09836252222517601,-0.07024275582921949,-0.8217677696078431,-0.051259687977543385,-0.7086532325966084,1.132703999738592,-0.11582848589704665,-0.2607740459890706,-0.7654462278481383,1.6660813784125,-0.13374031363333796,-0.2683920555789484,-0.15268176308241616,-0.3307136383635762,undefined,1497359994726
903d185fccf839df,-0.20936943698815486,-0.4548268090197929,-0.06165424605736894,-0.04602282361917036,-0.8596489008071319,-1.8834984388603015,1.948417248629886,-0.5820029707148815,-0.2957277488116438,-0.30153920458441963,-0.06641781729528823,0.043388010231660466,-0.8348234180035651,-0.12162307215093347,-0.7654954126465462,2.1834202064187105,0.11580541092729238,-0.3546346033402936,-0.7860588324400298,2.2626171571959963,-0.04821801359998618,-0.24483157588506277,-0.2736829837925331,-0.41940887788895115,undefined,1497359996269
903d185fccf839df,-0.4214297131530331,-0.6866979232596911,0.00788880533064787,0.008711299616968681,-1.0898428002439842,-1.9394700580962856,1.9359256654172192,-0.792471337982919,-0.3566033505890051,-0.6268956361759936,-0.0804770642784473,-0.005037643017529151,-0.9436204879679144,-0.3271581841907604,-0.8244428602603112,1.488331008753393,0.0333094231031422,-0.3945574804486726,-0.808504601811932,1.9371094174934034,-0.13846096202897906,-0.21554763708097113,-0.324425462806773,-0.2977177512214518,undefined,1497359997720
903d185fccf839df,-0.35767306692969875,-0.6591081745059973,0.21907051101470693,0.20661384201265348,-1.0801948151255631,-1.9403831212505105,1.9659449143793701,-0.5995377022953213,-0.4146251735126689,-0.8027572082438414,-0.00038341283198747964,-0.05028102114105128,-0.9436204879679144,-0.3253065342491199,-0.8654955372626602,0.6457375567491209,-0.3160062740361446,-0.4099591973349368,-0.8386188765530809,1.1898382547015045,-0.3076914931275487,-0.16500257705987076,-0.6203610140299964,-0.36912573756747324,undefined,1497359999228
903d185fccf839df,-0.39648143927973983,-0.5634246713562265,0.8353899714980166,0.8112529486092501,-1.1139216136441623,-1.8522540255132132,1.9767954876604603,-0.4231557051519237,-0.367070168569099,-0.953488370486196,-0.05437081760990572,-0.04290651216623052,-0.7390819964349377,-0.3364165504559339,-0.960232481925855,0.4234707962399368,-0.39403932025833077,-0.4430931562908952,-0.9061800822742858,1.008706337349324,-0.37454209490091367,-0.27240974487593256,-0.7748990232900107,-0.44206709574469855,undefined,1497360000740
903d185fccf839df,-0.2703541601312869,-0.4894607523649394,0.8468736578316117,0.6860842610792839,-0.900750541487632,-1.7958678029549573,1.9783391859599466,-0.27497347239805114,-0.45555457611621686,-1.2253974087983857,-0.0522943533239868,-0.09855810531344274,-0.7782489416221035,-0.2706823688412923,-0.8591797124844766,0.5002538625586195,-0.2586441034468956,-0.4050005005918292,-0.9008555089830373,0.963742873495987,-0.36152501696445594,-0.24533576294746973,-0.7191607533762893,-0.4255621023718491,undefined,1497360002217
903d185fccf839df,-0.22461568678475732,-0.49122176813131124,0.9674580824157231,0.8635792091508255,-0.8163975414655132,-1.838651268104003,1.9768244160223212,-0.2963626186940406,-0.3981289876807586,-1.4667354217725896,-0.10983475680586618,0.014794482830783157,-0.7129706996434938,-0.12254885826943009,-0.7739164534529207,0.9730760735969803,-0.09426454602212204,-0.2021563143668879,-0.8604349325790586,1.231213871032607,-0.21061669822919854,-0.1915773875367802,-0.4584005475012218,-0.37117122158746246,undefined,1497360003728
903d185fccf839df,-0.1941232907077816,-0.6984382670641074,0.8602717578052134,0.7028546637152029,-0.9189150824455642,-1.8810108137005601,1.9850688703075263,-0.326207999169116,-0.33985071421183155,-1.336718080096592,-0.04458464473261458,0.06203578055302134,-0.6215811608734403,0.004290341253428128,-0.803390184622037,1.0296529731366992,-0.10103733686155034,-0.08250167798792396,-0.840018238092242,1.1977684484925588,-0.17470133203869673,-0.14841276192246244,-0.1088426844073319,-0.411015041482501,undefined,1497360005237
903d185fccf839df,-0.0818561790468959,-0.7741632310497587,1.1965043449594999,1.1162624175153135,-0.8837174289403833,-1.9321003466588547,1.9254748306427774,-0.7836578990448176,-0.34250862996389725,-1.438274591284027,0.0913664706284321,0.03772103212169719,-0.7042669340463459,-0.0003388095022222231,-0.8118112696018143,1.1488688201028767,-0.08870375259945552,-0.07572542710702478,-0.8800819763952288,1.4085577676009713,-0.14012294269845652,-0.16000678078449612,-0.09937454769074201,-0.4865792101466968,undefined,1497360006732
903d185fccf839df,-0.4602381372611888,-0.7430514069213329,1.1748119773675667,1.1287185813321978,-1.0416234519554946,-1.9115890670867437,1.9531903602480345,-0.6447879761184409,-0.36553448133321126,-0.8200033707389301,0.10453143582138172,0.023235776834949273,-0.9392686051693405,0.020955372039036312,-0.8265481204619048,1.379218273441419,0.04607643428983226,-0.0737115523187306,-0.8616383835971845,1.4967292675322519,-0.12190389649048837,-0.1289670750268358,-0.02660626063279407,-0.41833490327462297,undefined,1497360008217
903d185fccf839df,-0.27312611771689893,-0.6426717545585986,1.2564773612430797,1.176912798703208,-0.8784717275398294,-1.88108069153036,1.975259686627778,-0.4149956886508301,-0.42016160695463867,-0.6455475826514633,0.03256596919760131,0.004434312274024712,-0.9175091911764707,-0.07625718235285747,-0.8233902375217482,1.8096076755675632,-0.016543832464899603,-0.03490327447134579,-0.8086095544155105,1.8643209578048834,-0.012954911629932796,-0.16678817376337116,-0.23226916339831988,-0.4576481514642918,undefined,1497360009755
903d185fccf839df,-0.4713261918888002,-0.7031343870490785,1.035725112180685,1.0694601851677412,-0.8887162799056533,-1.8665252741416842,2.0005873452603486,-0.25529016791730214,-0.388419844285543,-0.4504295906540541,0.02086847130456156,0.005437568318427059,-0.9044535427807487,-0.1762472634603102,-0.8265481130996711,1.419630324352131,-0.2311416171640229,-0.18944609892000855,-0.7790620219854298,1.653085082849629,-0.11298350113399053,-0.26673858717465776,-0.36258739648857513,-0.47099710617891155,undefined,1497360011218
903d185fccf839df,-0.27451216552052443,-0.6391496937978626,1.037639271683742,1.137938204744473,-0.8326695170731242,-1.8491747702034989,1.9903048027185148,-0.2840176253280169,-0.39518204345188923,-0.3922820734450726,0.009309747836023353,-0.03195706393374574,-0.9131573083778967,-0.20217062165876817,-0.6718110612729792,0.9932822121112227,-0.36798012726417834,-0.21342262138489812,-0.7506199865730722,1.1172037859293558,-0.22027631166367667,-0.29784964384856294,-0.45263372443304506,-0.3379602883218664,undefined,1497360012733
903d185fccf839df,-0.3257947265653267,-0.6620432787245967,1.169069752995345,1.1295473950250619,-0.9054716820597557,-1.8434518296314149,2.024697406984295,-0.08975278611679656,-0.377122497108742,-0.45691969441289193,0.08392708773635887,-0.007899567261488598,-0.8087121212121212,-0.15680475776224126,-0.6854953114812081,0.7972831575027546,-0.34324259668790014,-0.27112840576231684,-0.7604994841548804,0.8430344651486313,-0.3103079661226363,-0.2980869450960754,-0.40940082252207577,-0.21724121776336655,undefined,1497360014238
903d185fccf839df,-0.1012603307165067,-0.6849368636513308,0.9253493688549116,0.9403109830537809,-0.7282388403729415,-1.8472810999493465,2.0171840548223323,-0.09109111964630925,-0.42541807991153424,-0.36498755686315826,0.017353643698240183,0.031463631337375925,-0.7826008244206774,-0.23735229431930138,-0.7307585162489781,0.8073861278333504,-0.43848149174834034,-0.3252497420638886,-0.7590231559160112,0.9104334613382086,-0.32311438269923365,-0.3689026257580597,-0.4509681198921155,-0.28394420370632856,undefined,1497360015716
903d185fccf839df,-0.23570379317048334,-0.608624884667558,0.046807846039246155,-0.02914648624981532,-0.7250914142504333,-1.9329225678522348,2.0282476474215874,-0.12603615692237383,-0.32934136796421676,-0.3888638282917217,0.050330294775442826,0.00822504464595852,-0.7695451760249554,-0.3669690205577186,-0.7591796099550638,1.1226009446138314,-0.1706955349275271,-0.4138032917552741,-0.7709387243679787,1.059906168081282,-0.3233090606763284,-0.4079802602635292,-0.6262283684645269,-0.18921425019839655,undefined,1497360017222
903d185fccf839df,-0.42697383535671557,-0.8299297581692636,-0.23264165182062307,-0.27939466242480915,-0.7571724993703897,-1.9831549406986249,1.9915776239285932,-0.4394812826387767,-0.2412066581576777,-0.46484619291403273,0.007047051005904727,-0.04490327679203674,-0.7173225824420678,-0.44844243388869715,-0.816021775280534,0.8821486622683014,-0.20855538527568515,-0.5054473193177098,-0.8584968159417508,0.9255393331708348,-0.4129779013954175,-0.3485467860764767,-0.6085410142327563,-0.14085721640361015,undefined,1497360018721
903d185fccf839df,-0.6667542739696797,-0.8551714030884834,-0.25305799778950133,-0.26529407831207535,-0.8361049352387627,-2.0332429007434074,1.979293795713315,-0.6003403865294702,-0.24553794136557894,-0.6361895529223176,0.05875216746303393,0.03673579116243806,-0.7303782308377896,-0.530841626862785,-0.9044429319767141,1.8318344024949804,-0.06267672649388971,-0.6286547404659836,-0.892571284556379,1.483009249610591,-0.36310680845810106,-0.42389590995920434,-0.49003604228128156,-0.09280388041523044,undefined,1497360020224
903d185fccf839df,-0.4907304470746402,-0.8810000776198206,-0.43425306826329574,-0.4975256641524649,-1.0614028416849914,-1.9887451151096094,1.9815633145311589,-0.6015672462328857,-0.32130972710300076,-0.6191889349383177,0.053434311653621336,-0.04396885557623699,-0.8783422459893049,-0.6845300484072452,-0.9328640330450336,2.1470490496871326,-0.040494927028651866,-0.7635274415536869,-0.9715093044021544,1.250585114219352,-0.493735581760591,-0.42929760414969015,-0.29330676852361626,0.08179602485277972,undefined,1497360021715
903d185fccf839df,-0.6639822991313628,-0.962008235044549,-0.6365028767229199,-0.680866881892216,-1.3442492260042185,-1.9917591501329135,1.967525400596737,-0.7429806321307343,-0.34674492748769953,-0.6583523876714462,0.07720538757161803,0.04136051779952488,-0.8130640040106952,-0.8289601716780982,-1.0707589406799893,1.0134882093018573,-0.3411973135760483,-0.9056260327669975,-1.0685760620490867,0.7752659030777762,-0.6832684324172377,-0.4420114680810014,-0.31172780221196483,0.1073392721420434,undefined,1497360023264
903d185fccf839df,-0.9938538091608091,-1.06003985664279,-0.7130636658323145,-0.7602638300955749,-1.582537969976597,-1.945477166481749,1.9776896114104037,-0.6919469217706029,-0.2779521956071169,-0.6612467249790726,0.07810998134173577,-0.01644797004725743,-0.9523242535650625,-0.8780293386955997,-1.2002327835813105,0.332543370778897,-0.7187403741461612,-0.9320407409616696,-1.1727655728136868,0.3539028408489937,-0.817169519549557,-0.4256034807837101,-0.26048113393543487,-0.2063875822213018,undefined,1497360025237
903d185fccf839df,-1.0409782958055545,-0.9919459999487398,-0.7149783336092704,-0.7737842204851344,-1.6558235618017965,-1.9753519891964824,2.0147961833258847,-0.4703756878014398,-0.28231046678271526,-0.6646368107085253,0.07415176348918665,-0.05782013673470364,-0.8130640040106952,-0.9141368589908087,-1.2223380690742387,0.40326460119625135,-0.6846153130089421,-0.9557386157540003,-1.1818404364473323,0.3141132583004325,-0.8389064872743829,-0.42130849563978506,-0.23274353032490583,-0.18739989636866936,undefined,1497360026237
903d185fccf839df,-0.9744495884803789,-0.9121119163622425,-0.7698470092636813,-0.8197034904623882,-1.6348715951439698,-2.027175232316772,2.02291440390227,-0.44362920150936364,-0.26727680588006114,-0.6624433505302229,0.08135923981444104,-0.3771941270920634,0.7710213346702318,-1.0391244409489628,-1.2781276079800288,-0.49388527499345086,-1.0974765134595024,-1.0889520862515534,-1.241649175931276,-0.41029121144210273,-1.0636340243037379,-0.4620885979809355,-0.5955115450412425,-0.3799590047653825,undefined,1497360027836
903d185fccf839df,-1.0506803716403599,-1.0788243511966706,-0.8789469851033491,-0.9187769618984977,-1.6974189196631126,-2.0653933897549392,2.0212681458865056,-0.4828095567003739,-0.2603807652547782,-0.6689665464334738,0.09111538179196545,-0.6202340819283958,2.0852899398395723,-1.1030069758596575,-1.3160223909988704,-0.760605482291289,-1.1828145030885522,-1.1411545410451989,-1.2881779678207508,-0.7848429967005515,-1.1828592943985117,-0.47539109726484446,-0.6499140279708905,-0.532967841826793,undefined,1497360029214
903d185fccf839df,-1.1865098128871425,-1.0946737415319518,-0.9159518663088904,-0.972164594830367,-1.7967581834831168,-2.0855669308124396,1.96292589162293,-0.8980750283590988,-0.2784517017265408,-0.6771489998435377,0.08992681632043019,-0.9308194940375153,2.9077957887700534,-1.1446695010205796,-1.321285559908439,-0.8858831722249754,-1.2353262149169222,-1.1648080858851144,-1.2896822822326413,-0.8343951934466614,-1.2052811573540991,-0.4749404023724081,-0.6494240421139569,-0.5310414191326278,undefined,1497360030727
903d185fccf839df,-1.207300038239436,-1.0664970070081292,-0.8610826823805806,-0.902419192122299,-1.8313489833936871,-2.100793167704161,1.9072818167605774,-1.2787994701138945,-0.27559382016418676,-0.6735978603697328,0.09585604364310416,-0.9495476588332146,4.222064393939394,-1.1613345091423324,-1.3233908210303118,-0.9889341846945073,-1.3092398955305942,-1.180539118062806,-1.2957345236715523,-0.9479587294611501,-1.2395843881921165,-0.47594634188606727,-0.6494962729276255,-0.5333523893943874,undefined,1497360032214
903d185fccf839df,-1.16294756956477,-1.0888035915507381,-0.8827753041094631,-0.9260641592293883,-1.7865033439238647,-2.1321587029239537,1.8987244310522644,-1.3425678962193284,-0.2860691125910192,-0.6588438253222004,0.09115136100910257,-0.7552454747514191,3.6258564505347595,-1.1752220213066158,-1.3223381936903527,-1.045511211425473,-1.3297007305484863,-1.208302743365959,-1.2901510686470175,-1.1163715263513618,-1.2908174719404621,-0.47661192527216123,-0.6722937681376155,-0.523815034005691,undefined,1497360033709
903d185fccf839df,-0.9037628153814987,-1.0717801419912216,-0.7902633552325595,-0.836714282119793,-1.5990156567082436,-2.117421606509898,1.9312919443816223,-1.0858229394818126,-0.26657595302684955,-0.6447574708983382,0.11555059712766746,-0.45463387592722554,0.47074142156862747,-1.1641120148128827,-1.2728644464326941,-0.97276932193314,-1.299165935657974,-1.1369557999019977,-1.2328891681264382,-0.7703376594477478,-1.1684486924075026,-0.44397552040912047,-0.5596904131183973,-0.4354544443295807,undefined,1497360035221
903d185fccf839df,-0.5628032075926788,-0.807036129400541,-0.41511248978052295,-0.4772960669164544,-1.2869064665091452,-2.03399524562372,1.9729138998431628,-0.6855793660318845,-0.1658807636551115,-0.5938328454717475,0.10343243782632525,-0.17842621749069146,-0.6563962232620321,-0.8696968427289574,-1.1560221923493113,-0.3079893249730059,-0.6463759588936263,-0.95893675216713,-1.1363821553435232,-0.39004224983759367,-0.9836140097566988,-0.31809201605452314,-0.347226374375026,-0.31459800783443803,undefined,1497360036778
903d185fccf839df,-0.5641892208908945,-0.5916014351080416,0.38240178703963174,0.40975116479197526,-1.0939982185946782,-1.9524718730331112,1.9612191528413503,-0.652459878924242,-0.21359887214482653,-0.6774957101234407,0.138629669340417,-0.05374236911765936,-0.9479723707664884,-0.4965857985992339,-0.9528640675391604,0.5830987789109914,-0.16660208980296626,-0.7398928975822966,-1.0221802081654614,0.028733872519614786,-0.7593900305718555,-0.11780663693903486,-0.28832320073696577,-0.24903377661450063,undefined,1497360038229
903d185fccf839df,-0.5406270638320462,-0.6027547054583519,1.1856577799581092,1.2038851499448315,-1.0045229383305905,-1.8667908086492822,1.9897131053193684,-0.3539248853951374,-0.23150023952385626,-0.6707670177458273,0.12909747244382905,-0.057893012248770644,-1.021954378342246,-0.42899991523985365,-0.8970745212711364,0.6841291747026269,-0.1308977039482575,-0.6456966931697419,-0.9740071649859202,0.23775237110174435,-0.665167485969019,-0.1128500649554791,-0.2962850421390858,-0.2837355375472787,undefined,1497360039730
903d185fccf839df,-0.4921165293836754,-0.6233002888485851,1.5454966400704366,1.5001456035739342,-1.0153332065121758,-1.8790216437210974,1.9868045384984891,-0.3654997500630128,-0.28426844391186895,-0.714340717734972,0.10390357368942339,0.009533024759903372,-0.9740836675579323,-0.2817923267696208,-0.8044427926361325,1.049859139915663,-0.4091510297910914,-0.43721618843947824,-0.8358971157763,0.7479952591810354,-0.42603930545384994,-0.14095518251656122,-0.32528037868088405,-0.4518228586558151,undefined,1497360041217
903d185fccf839df,-0.36321712012256174,-0.6233002303926004,1.689048945595637,1.7467690268111955,-0.982552689856526,-1.871400372945902,2.067876196144857,0.19978906673823943,-0.2645369662228724,-0.8355881086581888,0.08215481381944019,0.04133603082432142,-0.9392686051693405,-0.31604821978704467,-0.8191796582206906,0.9306432364200423,-0.4581797945049361,-0.39275259085836267,-0.8180622446620209,0.8279285892503871,-0.38241077769110765,-0.17253365004177607,-0.4153604358730761,-0.5092195123305123,undefined,1497360042714
903d185fccf839df,-0.3077765536885219,-0.6526510387546545,2.0635619273046206,2.04144615312271,-0.8719197316825424,-1.8924101109632523,2.050080294632168,0.09562345206174555,-0.2781309999970868,-0.9054909231747187,0.139320140702835,0.06851604317576054,-0.5650066844919787,-0.13180725043615263,-0.7381269416790234,0.7609121703595058,-0.3136313674378537,-0.17999734872507298,-0.730322235968753,0.9482674365763581,-0.24726299642331104,-0.159973592109533,-0.45758904843324943,-0.5117568724009566,undefined,1497360044224
903d185fccf839df,-0.20521139709350758,-0.6931550736250303,2.251775243773692,2.297082474301876,-0.8447243492489713,-1.9190775708677243,1.9544921019635606,-0.5639783306223379,-0.3250932775254671,-0.8069725061833394,0.13884574342805275,-0.02515103567108302,-0.499728442513369,-0.08644133473652751,-0.7044427048311874,0.7588915536816094,-0.30122525140539713,-0.08402159032275396,-0.7380117310732848,0.9989437209035694,-0.20013237657626595,-0.1291517361219436,-0.37618233073074564,-0.5043857243654538,undefined,1497360045722
903d185fccf839df,-0.3992535348869908,-0.5323128472278007,2.290693522071442,2.174011008788912,-0.9823675467656918,-1.8367110118962326,1.9126387426526117,-0.7372343165332605,-0.3774499647421231,-0.9732574978771499,0.05994364079614754,0.00537728134427067,-0.5737104500891266,-0.013300514503000306,-0.7486532721359267,0.5911812173578553,-0.3145046420500894,-0.11718721565809916,-0.7754866499636072,0.8280209739861862,-0.263593395272881,-0.20006662304990072,-0.22011995590256264,-0.43214235766425724,undefined,1497360047228
903d185fccf839df,-0.33965489405289395,-0.3855588931015075,0.9929785148768208,1.0123477026484577,-0.960901299565064,-1.7438046451812441,1.8569499721303562,-0.9646021640644035,-0.41704461399245984,-0.8219387164148808,-0.10403032789470558,-0.1628886192075845,-0.3604681929590018,-0.03552054691662818,-0.7465479972098655,1.292332067203811,-0.0960818626871489,-0.1754692968637306,-0.7259072483728574,1.5186874467403504,-0.10847841316802413,-0.3016524168725876,-0.7469087096668791,-0.2577000352916657,undefined,1497360048722
903d185fccf839df,-0.18164920552924954,-0.48241648470350573,0.6656785873578174,0.5514861673677305,-0.9370487708515635,-1.723155938683627,1.8764789146493484,-0.8130624379938457,-0.3778057590620658,-0.8983250967889761,-0.1809735919795729,-0.07164980821365698,-0.40398702094474154,-0.05588885168396828,-0.7370743189404604,0.9771172221586085,-0.11667866833422182,-0.23167417117562106,-0.747338480033066,1.4160568115699106,-0.1625211274100729,-0.2646840155231988,-0.7473730127308733,-0.16956356475268367,undefined,1497360050680
903d185fccf839df,-0.10403235731293821,-0.423127911437261,0.5559407277750967,0.49147946875451826,-0.8890042814152493,-1.7419063142233906,1.903289781387894,-0.6526242184636175,-0.3787476238385786,-0.8478372841909205,-0.1395648893668999,-0.0017405034237543025,-0.40398702094474154,-0.12902974962214278,-0.7328637838128056,0.969034811976466,-0.15878564645588258,-0.23486597513783655,-0.7456592449088304,1.3802246295818186,-0.17298450747902486,-0.2600872903555029,-0.8052335396997191,-0.19445497167096837,undefined,1497360051723
903d185fccf839df,-0.2675821335348554,-0.5193985172691302,0.8864303281463134,0.8437063111816707,-0.8481700661770513,-1.814387581822008,1.9257667257332196,-0.6239560451295901,-0.34668269778297395,-0.7690769416390005,-0.08451070566042297,-0.09438588890700325,-0.47361714572192515,-0.10403219049295595,-0.7623374855329867,1.0599621385109803,-0.14027659446404867,-0.25319351323773226,-0.7625075649432165,1.3618234903967623,-0.18397308587916214,-0.32108556443569,-0.833033237679658,-0.22438295987446066,undefined,1497360053283
903d185fccf839df,-0.4047975535744441,-0.6426717545585986,2.011882416228524,1.937633371765697,-0.9443927615138054,-1.888378196357689,1.9927136916922354,-0.3086775904123655,-0.3260273335085522,-1.0312604034732877,0.04456010218675192,0.018736785045775695,-0.8391753008021391,-0.0827380607547956,-0.7781270033050431,1.181198630419776,-0.1438084483278044,-0.23323207375891966,-0.7196101184064531,1.3258681246818584,-0.16344903336535613,-0.26274999147314515,-0.9190267853324142,-0.24087034645279162,undefined,1497360054723
903d185fccf839df,-0.44637798702632636,-0.6391496937978626,2.445730276341086,2.4224999945299475,-0.9359584865493775,-1.9077830884234637,1.9979943464749323,-0.26335971902610994,-0.3458482296573069,-1.4734209930899942,0.07096014603829387,0.005757024796188407,-0.9175091911764707,-0.0919963881676454,-0.7254953510205264,0.985199688870194,-0.1418582856895272,-0.18946510036988368,-0.7013344475952373,1.412268799725068,-0.11549199702836642,-0.25623025969574537,-1.021888923413922,-0.2960796867259021,undefined,1497360056225
903d185fccf839df,-0.4463780215317361,-0.6943291328492653,2.4131921061586104,2.3155383497193838,-0.9215276501935177,-1.9374715709388748,1.9532587204727845,-0.5949729567137907,-0.32088351623635664,-1.7941512506006942,0.10252503163843067,0.007995332010668162,-0.9088054255793226,-0.028113830593095253,-0.7118111228989988,0.7993036893864863,-0.0664638989960627,-0.14015046831945246,-0.6952612158399204,1.269863974353087,-0.12014930004098455,-0.2516640602248071,-0.9817403232969896,-0.26073741321271887,undefined,1497360057719
903d185fccf839df,-0.37153316540644654,-0.7195708069964774,2.3959659413158443,2.3065563989881226,-0.8598340404570698,-1.9298130325355252,1.9421872416057044,-0.6178672232969358,-0.3671434674029074,-2.1945904118361557,0.18354744053281208,0.030555579526348013,-0.9088054255793226,0.06909865904492579,-0.7265479811213232,0.5649132005452023,-0.14849839634699397,0.031769953939857175,-0.7339745706836088,0.7102844679658685,-0.18647387094476509,-0.1604106304568777,-0.2982959806944516,-0.42110961981631817,undefined,1497360059229
903d185fccf839df,0.08307964497864677,-0.7007863270565929,2.183507959871781,2.1745087383532824,-0.6210824370911715,-1.930728423368292,1.9557333639607923,-0.47545421823140094,-0.3165711227000194,-2.1469732829577426,0.1871549116469971,-0.09113592725243198,-0.7086188168449198,0.101502921546871,-0.7118111449857003,0.5729956955215094,-0.09799563502602118,0.12091246917604644,-0.7157268881863854,0.7344138285607729,-0.12463118205894554,-0.11317525035574244,-0.426796162623111,-0.43193668109377176,undefined,1497360060739
903d185fccf839df,0.1731705438680804,-0.636214560351271,2.1739376706303943,2.0185202935314166,-0.3416406226067497,-1.8981190757117856,1.986801896124764,-0.09220596345157679,-0.33958810158611574,-2.546736221496647,0.22650000449196905,0.09136488103424667,-0.6955631684491979,0.2403779622473634,-0.6960216345758777,0.9326639378921033,0.24222170695200504,0.20031491847040334,-0.6926024278780608,1.3697536844032139,0.038478037876173356,-0.08043663696302172,-0.3107925582984504,-0.31123612816809026,undefined,1497360062224
903d185fccf839df,0.12881811832517634,-0.6409107095642343,2.263259438381186,2.2150522373958346,-0.3663468645045289,-1.8818935956961969,1.9627759865403718,-0.2519239268947767,-0.3262117723144345,-2.207662043743585,0.260307704580743,0.010372623190965354,-0.5519510360962567,0.3116671843423483,-0.7191795483290442,1.4519600216101443,0.21131609185342276,0.24399956504777617,-0.7393201341750391,1.7783668329812699,0.12656347848528932,-0.1277840681268173,-0.2478241345369939,-0.30116482612727996,undefined,1497360064789
903d185fccf839df,0.08030758387680553,-0.6409107095642343,2.009330627119364,1.866496216338752,-0.3586634504632218,-1.8779245719856095,1.942392362609542,-0.3851046055086666,-0.3317917548096424,-2.137079095739215,0.24067180332093416,0.03743975158694116,-0.41704266934046347,0.3227771875983877,-0.6928637148245521,1.6802888300060683,0.20155694293539883,0.22890182692223388,-0.7186025763984483,1.809517887405605,0.1363667923604991,-0.17197752938791938,-0.2046740442005529,-0.3658255298877118,undefined,1497360065218
903d185fccf839df,-0.045819695271647407,-0.6673264137076892,1.5429445968243267,1.4637472676590058,-0.43309076054722473,-1.858039858368799,1.973434602500247,-0.18261737014202825,-0.3263378115479479,-1.6807941323071058,0.15222107894341355,0.0227758161665652,-0.4866727941176471,0.25426546631741265,-0.7591796025928301,1.9914625547543645,0.14536644569829466,0.17085406622722554,-0.687984532314079,1.9744506368096395,0.14073520599001269,-0.2175743945867275,-0.0778686301340618,-0.437920269068037,undefined,1497360066725
903d185fccf839df,0.12743200151073136,-0.6508899937602903,1.5001977453835131,1.4032199948442363,-0.5592036889411078,-1.8723274103095444,1.9629758646976312,-0.36051350116650077,-0.3135991964516325,-0.8485728058247923,-0.034364367191125,-0.06999297075901999,-0.8217677696078431,0.06909871084802398,-0.7623375002574543,1.7530305216453506,0.01507481602097909,0.07508729334401758,-0.6881944373988949,1.7869591651498906,0.05560599808017238,-0.25940298189552413,-0.0146080659829536,-0.4064970940061332,undefined,1497360068316
903d185fccf839df,-0.08601414993072369,-0.6180170954095079,1.5831391508820811,1.3597477768795976,-0.4658301318620558,-1.8667814910400529,1.9362359968912346,-0.510377945269267,-0.2585615057792742,-0.8524668027134058,-0.12062911019230103,0.031193987220368657,-0.7129706996434938,-0.01052309139363774,-0.7307585088867443,1.567134691749972,-0.05127011445422746,0.02892013498225994,-0.6925884344581704,1.7353435805911237,0.01489073618842668,-0.3064299178868072,0.1030231026878337,-0.39962262796562525,undefined,1497360069716
903d185fccf839df,-0.18303514981664581,-0.5129413230618026,1.6131255319553963,1.6268475345047524,-0.7303165448330602,-1.8679041837079176,1.9016093427359937,-0.7989690767093732,-0.33532812867888456,-1.0494559804402734,-0.08666171805644092,0.05508476001862454,-0.7260263480392157,-0.1836539150299704,-0.7886533043130113,0.7689946370710913,-0.3212302703784688,-0.1305750530166832,-0.7465478409361859,1.0017924399884381,-0.21251336533390797,-0.36856678513330365,-0.034191683977364475,-0.4512595078293751,undefined,1497360071223
