UUID,iqrAccX,iqrAccY,iqrAccZ,iqrAccXYZ,meanAccX,meanAccY,meanAccZ,meanAccXYZ, covarianceAccXY, covarianceAccXZ, covarianceAccYZ,pressureDerivative, pressureIQR, iqrGyroX, iqrGyroY, iqrGyroZ, iqrGyroMagnitude, meanGyroX, meanGyroY, meanGyroZ, meanGyroMagnitude, covarianceGyroXY, covarianceGyroXZ, covarianceGyroYZ, class, timestamp 
903d185fccf839df,-0.35975208687702237,-0.3700030541072754,-0.04666092845223662,-0.2148856391921494,-1.0623399109706166,-1.373944106731608,1.7867688835197855,-0.8025023311868019,-0.006905036711267785,-0.4659233866188675,-0.0815563234061539,-0.3022293800202928,-0.689035344251337,-0.1836539409315195,-0.7918112314265706,1.7227215258593986,-0.319511115193533,-0.3492877336011837,-0.7887365525211331,1.1917114448896837,-0.23463128493713462,-0.4511726990506609,-0.23771166616253755,-0.5612565177570524,undefined,1496247409312
903d185fccf839df,0.05397333121070623,-0.38086283157252104,0.5782712332470321,0.32772357862120427,-0.7994884725703292,-1.5803993367430018,1.861328754785112,-0.6420276809550576,-0.21638339058956674,-0.5437864850171029,-0.07148434042937264,-0.8265215038885938,1.6849167223707666,-0.40307656999217023,-0.9960219936997522,-0.021063007425646943,-0.489254113437207,-0.45889023707430987,-0.8962346148653445,0.36828280042816774,-0.5029479568970818,-0.45117440243485346,-0.47308805525112246,-0.4569809749562744,undefined,1496247410689
903d185fccf839df,-0.03195963130030935,-0.4636320339916137,0.5795471278016122,0.48508673490876053,-0.6207733148547037,-1.5885774059738866,1.8786276485552176,-0.5400073059296987,-0.26414846054217933,-0.16754562211552,-0.007356599554315272,-0.510293180259055,2.775063363413547,-0.3632657336252121,-0.9981272318146445,-0.15644373128555258,-0.6705628168748557,-0.5247578778929551,-0.9030626146160671,0.09200779893949046,-0.5842614247655904,-0.5066549333121794,-0.45837235893050166,-0.5202383237713666,undefined,1496247412235
903d185fccf839df,0.3547383549451634,-0.2881142865013878,0.9074853202690926,0.8526679809792309,-0.09668673979957983,-1.5997505177340352,1.799081087727846,-0.852325489315355,-0.3930097655973944,-0.34514553937611425,0.07124909135628253,-0.2792787918345219,1.2236171457219251,-0.38178238845091167,-0.977074600349773,-0.04733091117941383,-0.7341506462504028,-0.4869813639296385,-0.9137044306556816,0.19099291723667525,-0.5581732933160043,-0.46719131721911894,-0.5052126047677066,-0.5576753271342314,undefined,1496247413675
903d185fccf839df,0.31177208072211404,-0.3051377799028927,0.9074848119951937,0.7136423582600597,0.5042345431701432,-1.4944432850242755,1.7582217888885467,-0.6887159131349732,-0.194525063899855,-0.39350530370596115,0.09883985888076455,-0.15650387281779599,-0.02102133467023172,-0.3641915456452578,-0.9086534671043689,-0.055413349626277836,-0.6893300700692699,-0.4914202603352062,-0.8840329175317196,0.2015742184701102,-0.5529590126425231,-0.46349302985247165,-0.5190790654708086,-0.564879953647921,undefined,1496247415210
903d185fccf839df,0.31315795599869084,-0.3110079298841066,0.5138322683512349,0.5002222808281315,0.8416774059051797,-1.5149964926727348,1.725262436414388,-0.8137297481809649,-0.3504911250866694,-0.5982995030158837,0.05210824838570493,0.0873447253939132,-0.04713263146167557,-0.39289237875617655,-0.9644429949668084,-0.08370187005794111,-0.7139813157016669,-0.49645254410106104,-0.9109111461649908,0.17149937015954644,-0.571738447726436,-0.4628157137632978,-0.5342838621901816,-0.5589995903324021,undefined,1496247416701
903d185fccf839df,-0.35351499252964175,-0.4149097599195462,-0.19755093011813887,-0.2706943166839064,1.074082728794935,-1.5766048693789365,1.739784222663381,-0.8099975474113306,-0.3564082374818955,-0.869294421099663,0.051599413091239554,-0.14101246850343888,-0.12111463903743315,-0.45770078072770876,-0.9697061822819615,-0.11401099303513999,-0.697313156080779,-0.6026263421733692,-0.9750426937297157,-0.17323214135984355,-0.7112328931359415,-0.43286622462167,-0.494901372798845,-0.5161103531045403,undefined,1496247418179
903d185fccf839df,-0.8524801939522294,-0.9361795458992156,-0.7328421280581401,-0.8075317229613393,0.6984490646439003,-1.7533568578262837,1.830102280810667,-0.8601421518956474,-0.24015353900628364,-0.8398901481310924,0.043553706672585554,-0.09256636779980915,-0.4475058489304813,-0.5521358278302054,-1.0002325214651733,-0.2473710860847885,-0.6857097552750772,-0.7472517762695696,-1.0385177618071852,-0.35199269465348243,-0.8406009468738497,-0.3716709148203036,-0.4123584044252054,-0.4472165405961232,undefined,1496247419724
903d185fccf839df,-0.916236943691793,-1.0823464557993951,-0.852150276882247,-0.921551774398885,0.5179762186174228,-1.7912186409959043,1.8481164450118597,-0.9227546730843075,-0.2139468982990157,-0.7124440986253471,0.09259147533517166,0.019532471684419222,-0.5214878565062389,-0.7576709398700323,-1.0907589567685314,-0.5181325550031409,-0.8000684115387046,-0.846887979799304,-1.1086537937719638,-0.5437341374179538,-0.9527181112385381,-0.35168327081985445,-0.3541447999018522,-0.38600931810110506,undefined,1496247421183
903d185fccf839df,-1.0950329352049029,-1.1046530257280078,-0.8802227525894546,-0.9331193499052469,0.26108064621580657,-1.7983507726633852,1.8571287924807536,-0.9835022006383383,-0.2742025127630422,-0.6997418504358207,0.09072446465923412,-0.025274327414625423,-0.5214878565062389,-1.017830269120785,-1.2265486042018936,-0.9465014323117339,-1.1782608648310302,-0.9839392137833268,-1.1948055265552697,-0.9075224094171467,-1.1125094393337238,-0.3967368936401673,-0.5537301238857463,-0.48632989872595556,undefined,1496247422693
903d185fccf839df,-1.010486124013742,-1.0594528124166764,-0.8464083066469746,-0.9069419288319356,0.3144737003687121,-1.7751562078931855,1.849983616993788,-0.966618294172096,-0.26718453546634274,-0.7315377604257961,0.082810753867971,0.039936334011916506,-0.6868594028520499,-1.0983778121532326,-1.261285485874994,-1.0232845127627774,-1.2626714636431118,-1.1130806021274968,-1.2466518954573007,-1.0637088431135342,-1.2221719866706882,-0.4721772471102652,-0.6658443753209083,-0.5262637239217852,undefined,1496247424182
903d185fccf839df,-0.6279459016196386,-1.0371462424880635,-0.680525495649839,-0.731032545035075,0.5232322093019495,-1.7679495414550406,1.8373710680594026,-0.9302893440806366,-0.2551648129715165,-0.7341999037119499,0.07200877013347476,-0.023073140718151856,-0.6868594028520499,-1.093748635496033,-1.2591802219922834,-1.0050990333235137,-1.2556831303454723,-1.0887494327625702,-1.2367723988786903,-0.9733045690233358,-1.1925331522530973,-0.45405994856271376,-0.6247173645692311,-0.48040909196741405,undefined,1496247425685
903d185fccf839df,-0.26619601672041043,-0.9895979691842466,-0.5650456658318461,-0.7042818825103803,0.8669802090728045,-1.7454118233611058,1.7972060425721144,-0.9962847639443083,-0.22173691645717747,-0.8581694069874143,0.059730463578291745,-0.03788465999841741,-0.691211285650624,-0.9993135786804556,-1.2539170567638318,-0.8010176391947071,-1.1793862001177624,-1.0412460225374331,-1.2336378275631195,-0.8990070693680587,-1.1565280805262226,-0.44786804273104375,-0.6077261233779034,-0.47566219017774075,undefined,1496247427204
903d185fccf839df,-0.11373455391667768,-0.965530295805285,-0.5701492440501669,-0.7519199553127939,0.7819997762319594,-1.7690163345308338,1.8034176394007682,-1.0196710393001367,-0.1782990695760441,-0.870052872489996,0.054811975566605754,0.005786831028336284,-0.843527183600713,-0.9798710762200802,-1.2433907226258116,-0.764646701514721,-1.1650998996570314,-1.0237101015943946,-1.2135429865662588,-0.8168101681008113,-1.126590141920001,-0.4521312771130191,-0.615573974720859,-0.48250990913244773,undefined,1496247428676
903d185fccf839df,-0.6307177901944312,-0.9678784142537552,-0.7290143173259248,-0.8321436062581296,0.607256074272726,-1.781484752232102,1.8206980900068859,-1.0110538528116688,-0.15671971416513386,-0.839181981769866,0.06419667050622545,0.06555609824698479,-0.7608414104278075,-0.9789452318230981,-1.2254959704199797,-0.7747497778380226,-1.16897485278853,-1.0240140828964461,-1.2116048699717705,-0.8322240121810164,-1.1282709991976978,-0.45251491536874405,-0.6147074258935885,-0.4833919054746712,undefined,1496247430170
903d185fccf839df,-0.9481153875723942,-1.0794113808087882,-0.8559785958883611,-0.9203280445062886,0.18608763136291942,-1.8275035312414218,1.8684264449209247,-0.962800376943152,-0.2725503693648144,-0.6775640776767013,0.08336523075093019,0.04561225905502885,-0.9523242535650625,-1.0076460875978723,-1.2486538841731463,-0.8111206943194675,-1.1800321772056392,-1.0380288870607315,-1.2255285236530606,-0.8902145573547868,-1.150592049380857,-0.4486927421361751,-0.6092126585869463,-0.4756151469910168,undefined,1496247431683
903d185fccf839df,-1.117209009954716,-1.0723672008313316,-0.9038290255474953,-0.9462407563558238,0.1783836446031904,-1.8173014620229546,1.866701293848773,-0.9705961328073398,-0.2692563655551492,-0.6692128041419317,0.08871571127814315,0.06715695557462557,-0.9349167223707665,-1.0604186192525276,-1.286548671793384,-0.9323571579635416,-1.2315996532780207,-1.1098254692932472,-1.2639340183288104,-1.0382090171448506,-1.2248386214911173,-0.4655695031529532,-0.6331267302164015,-0.5145752289291189,undefined,1496247433173
903d185fccf839df,-1.1989839325710843,-1.1028919807336437,-0.935729820260817,-0.9864819855794322,0.23054241272685866,-1.817117452419664,1.865925509683411,-0.9639794167432059,-0.2789417707744567,-0.6842398700402786,0.09165145940660288,0.015391809331109724,-0.9436204879679144,-1.1335594945268466,-1.3033908012606528,-1.067737881823447,-1.3134212635773301,-1.167151275067896,-1.2792570340814458,-1.1358659586767677,-1.2738227274440377,-0.4728324863089624,-0.6603361442027201,-0.5198659185655665,undefined,1496247434673
903d185fccf839df,-1.2073000123603788,-1.0641489324016475,-0.9408339067530366,-0.9912552942337771,0.17591508073885,-1.7908436343104146,1.859774384192877,-0.9759117999721842,-0.3055741816411552,-0.6752128458936031,0.0893767251619271,-0.004889413871251434,-0.9436204879679144,-1.1465211639129949,-1.3139171252756014,-1.1000676073461817,-1.329796594622152,-1.171559003834141,-1.268369996338985,-1.1492626064708207,-1.2723759409858197,-0.4744718901979345,-0.6629156078452899,-0.5054591047388245,undefined,1496247436176
903d185fccf839df,-0.034731657896740854,-0.9725744757827417,-0.9216938365441626,-0.9900469346116227,-0.32002009050868996,-1.7590611661689768,1.8710693947830843,-0.9572531951670971,-0.38064009465803167,-0.7019462038617671,0.08856751678463569,-0.061841375372343875,-0.7521376448306596,-1.1520761720164017,-1.3223381881686773,-1.0596554575089439,-1.3319057734156836,-1.1694438007621621,-1.27095181957083,-1.1250100543948138,-1.2673191645063715,-0.47398049643272533,-0.6613794594066952,-0.5036526461811406,undefined,1496247437683
903d185fccf839df,-0.0014673387395627991,-0.9725744757827417,-0.8942592445800078,-0.9626426143676627,-0.7562673562465395,-1.735438021103627,1.8803447142181682,-0.9641951392561516,-0.34149009683636194,-0.7072469814661246,0.08861772616543162,-0.10571168915962137,-0.49102467691622104,-1.131707828396738,-1.285496040772308,-0.9101304593008459,-1.1743876029745242,-1.1603370277817557,-1.2497444856078754,-0.9333456026459661,-1.215013632928941,-0.4722685631095074,-0.6502309094475989,-0.47842468592404513,undefined,1496247439177
903d185fccf839df,-1.009099903683068,-1.060626842412919,-0.9319020095286018,-0.9747332197829375,-1.2005374711878307,-1.738111987908751,1.9002733826735476,-0.9519461951467015,-0.29614400983267775,-0.6827761552874128,0.09006111097510659,-0.04767302025268191,-0.7826008244206774,-1.1280044961365205,-1.259180216470608,-0.6131011219596285,-1.0520790323855271,-1.1555746540588436,-1.238325690147031,-0.7925268194704698,-1.1771675623215618,-0.4728955322989917,-0.6520974799906796,-0.4726740399085092,undefined,1496247440695
903d185fccf839df,-1.0562244248332229,-1.0529956474373412,-0.9274363150533338,-0.9705153373882797,-1.0768931050498693,-1.777028915562925,1.9063482360072224,-0.9487463510667415,-0.29469466888790785,-0.6871512843630633,0.09253001655432352,-0.0008236271475969456,-0.8783422459893049,-1.1085619807253708,-1.257074954428456,-0.5221737671603925,-1.0560176596753839,-1.1480004534096095,-1.2347433230209919,-0.6811036681403666,-1.1477136139266886,-0.47399530529992645,-0.6578214553116503,-0.4837837036626483,undefined,1496247442186
903d185fccf839df,-0.9689055180348111,-1.060626842412919,-0.9153139825658376,-0.9646925745554474,-1.012041783759944,-1.797141897757122,1.9074159456411584,-0.9592135058635116,-0.29014767482809406,-0.6974150732601913,0.09058112566774376,0.06366362884570588,-0.9436204879679144,-1.1094878121715783,-1.2528644229819181,-0.18877347800682825,-0.9808929218419158,-1.152154864705592,-1.2379408657139745,-0.48772998900083014,-1.1055566670703891,-0.47237955322983427,-0.6589860797396686,-0.48972202424628136,undefined,1496247443687
903d185fccf839df,-1.0534523982367914,-1.0799983958069095,-0.9070199690844556,-0.9737159392894464,-0.9970452377219204,-1.7970766788904962,1.903742106536119,-0.9821874910490479,-0.2856945864494276,-0.697271136385971,0.08955547021715621,-0.028931133277210974,-0.9218610739750446,-1.1280044864234398,-1.2686539113050392,-0.30394816934519736,-0.9957225035640882,-1.1654413803414403,-1.2467918314056834,-0.4625381328565093,-1.1095927742576452,-0.47297192355894524,-0.6536349630516742,-0.48624239100634736,undefined,1496247445156
903d185fccf839df,-1.1379992784387718,-1.1175673556866783,-0.9421101825130409,-1.001922071178168,-1.0441845862189536,-1.7925556257901634,1.9051280072000907,-0.9770700598636013,-0.27865300800311865,-0.700627464751802,0.089911346668115,0.1830669651146834,-0.8696384803921569,-1.1548536728304115,-1.2854960389317496,-0.4756997955541872,-1.0965420847118783,-1.1858524579354812,-1.2728479552327707,-0.6750520800223376,-1.1726161607662025,-0.47383094552391347,-0.6543592705738683,-0.49275928702190447,undefined,1496247446680
903d185fccf839df,-1.2045279857639473,-1.1005439207411583,-0.9504047042683218,-1.003931125927158,-1.1190130340483007,-1.7861199373632448,1.9077052124994198,-0.9663122945654576,-0.2784556990404564,-0.6831780543427333,0.09234184268994426,0.12007613022372254,0.32277740641711233,-1.1641120140034593,-1.3012855346171044,-0.6898842165430328,-1.190622187999547,-1.1903361820922949,-1.2844066869478508,-0.8049071702150881,-1.208494510653461,-0.4741439372712791,-0.6570233970775696,-0.5034891103407245,undefined,1496247448187
903d185fccf839df,-1.2613546000016127,-1.1040660107298865,-0.9669922229571871,-1.009204267334145,-1.2645659324735739,-1.7838442707728854,1.9099747396974383,-0.9675546126347628,-0.27498257856861313,-0.6756833228802784,0.0922572318373466,0.18406054612024114,0.1356464460784314,-1.1696670148220556,-1.3160223965205458,-0.855574077512498,-1.2567752923953985,-1.2024511032807055,-1.2928658312671684,-0.9883334521289316,-1.2581049191919518,-0.4741668624873887,-0.6604215878226051,-0.5004978669112505,undefined,1496247449664
903d185fccf839df,-1.088102730692185,-1.0706060973809828,-0.9165897500519431,-0.9677237581069682,-1.2167168735235747,-1.7598670820386455,1.8957448684418017,-1.009931583357366,-0.2604554961520194,-0.6433160176826519,0.08846030702872834,0.15329208961986107,-0.7695451760249554,-1.164112011575189,-1.3244434557325049,-1.0172226839276295,-1.2734597458983135,-1.1722492945344132,-1.3007022594429294,-1.1278895636394202,-1.2794846634830368,-0.4740374412291571,-0.6562186750396043,-0.5220643984459893,undefined,1496247451164
903d185fccf839df,-0.8344620900862441,-0.8856962560607763,-0.6977519146295547,-0.7182731722635413,-1.1406952868302844,-1.7071168008570525,1.9029294946470476,-0.7187748941145395,-0.06636275504649007,-0.567248113224686,-0.0650908548538397,0.09844143303544939,-0.47361714572192515,-0.9919069141600207,-1.277074974198115,-0.8899243985145878,-1.1484257825442439,-0.9811907160833853,-1.221526347525748,-0.8330247306172586,-1.1104669219645773,-0.35328855344919124,-0.3352291823600043,-0.37096569405892954,undefined,1496247452679
903d185fccf839df,-0.07492607805040741,-0.6773056394477605,0.5361622655492713,0.43836617675323675,-0.7096011556507965,-1.6589458043374723,1.907918231817584,-0.4227662964958243,0.19132417178442315,0.9591341690237799,0.047276802301437784,0.03201104941474151,-0.7173225824420678,-0.6067600304715098,-1.0328641576611477,-0.6514926904498718,-0.6151292312321186,-0.8193586738994411,-1.1026015533729532,-0.7041859379181993,-0.9587289532760183,-0.29636327217070946,-0.33123811213663107,-0.37696300340972966,undefined,1496247454176
903d185fccf839df,0.8370716728324399,-0.20299717022977132,2.1930779949762176,2.2004786427776137,-0.15453351301933257,-1.5958187635579368,1.8450632374291973,-0.3700347471117989,0.47754513731947634,1.515578427370184,0.10869415947172537,-0.009351662051635594,-0.9653799019607844,-0.43177740310308893,-0.8454955027685335,-0.34840147127715343,-0.44577643626415403,-0.6494077965535238,-1.0168836231882055,-0.516478888466459,-0.8077177939824577,-0.30350252429075114,-0.35277214574473986,-0.4217418646431224,undefined,1496247455665
903d185fccf839df,0.7816310718929904,-0.11200967015300223,2.8738361662183753,2.762084784276492,0.22845442344392886,-1.6039478094095174,1.766439924188679,-0.8145387730132526,0.5902599131797105,2.3316864126202788,0.2873825186929154,0.040840854198717615,-0.9653799019607844,-0.32808404801390434,-0.8307586261406246,-0.3888136458460225,-0.5978813021847804,-0.511140637759935,-0.9332787300227897,-0.31083264801006144,-0.6697294931057868,-0.3828560494930965,-0.48730015611376765,-0.4974309380316794,undefined,1496247457185
903d185fccf839df,0.9715148937485484,-0.12492405856765743,2.809397201322578,2.670577382491357,0.47278086970740174,-1.5841422898418511,1.7854849760614693,-0.574629159070556,0.3837154858911517,2.3605235592195117,0.32531149803972176,-0.02182249793189101,-0.9784355503565063,-0.3169739800039922,-0.8749692228942991,-0.3059687153612899,-0.7533557593304662,-0.3870212750530531,-0.8756879797029768,-0.22689572217852427,-0.571363296650751,-0.4727143313693701,-0.5849091101479733,-0.5690076718802132,undefined,1496247458725
903d185fccf839df,0.9895330666253532,-0.19008278181511612,2.549088536082431,2.8369251873386805,0.44971004743912374,-1.5942837959956482,1.762560954652105,-0.764850294309506,0.35280370572213743,2.279269993241017,0.30618993773617387,0.0872732268599441,-0.6955631684491979,-0.33363904964192403,-0.8528639318796957,-0.24130930671290318,-0.8280578088886792,-0.2959725439692888,-0.8458255910464794,-0.1868443666362556,-0.5000528447323245,-0.5546082674302909,-0.6159147892450155,-0.5954725009659069,undefined,1496247460168
903d185fccf839df,1.1309065610649989,-0.33448858826494676,2.883406201322812,3.1469394934917228,0.5734675428750263,-1.6207206605321232,1.8366899259168386,-0.19366454765254681,0.29334207114532407,3.084017035192822,0.3377628247347872,0.005842214285749751,-0.6825075200534759,-0.3243807222290742,-0.8476007740134778,-0.2534329219861169,-0.8204317335474962,-0.31079163340352595,-0.8392975659602381,-0.10586394444398804,-0.48830045781223297,-0.5288544095891319,-0.6795271608822397,-0.5949579871285409,undefined,1496247461670
903d185fccf839df,1.582747310348251,-0.4471955848162225,3.0965023206468776,3.1676799369265223,0.8492785053106098,-1.5930912232401004,1.7938030491308292,-0.29796482499703963,0.28232345357341987,3.949932865396882,0.426894884598808,0.019024269132865465,-0.6041736296791445,-0.3688207093516827,-0.8770744757336589,-0.32011297557712154,-0.8365375886385763,-0.3039710535944947,-0.8668999847219202,-0.04276111182800085,-0.49115647419221176,-0.5352064375463755,-0.7151329435479714,-0.5413680911551016,undefined,1496247463415
903d185fccf839df,1.6880846660667455,-0.44543448136587366,3.233674772193753,3.4170602918271826,0.8066340095382001,-1.6134534331938686,1.798347354491738,-0.3190206822965786,0.3493667524064015,4.501183122642024,0.37656400312525584,0.001322065781383768,-0.7260263480392157,-0.42251908864101373,-0.8844429085259381,-0.3100099769818042,-0.8567268033065851,-0.3345591720767444,-0.8472319498430626,-0.038942297088075534,-0.4998016131955868,-0.5455014993779924,-0.721950765777815,-0.5347787170642037,undefined,1496247464666
903d185fccf839df,1.9098467937812658,-0.4178448349101531,3.2272944099415293,3.4694272093759824,0.8758773259782066,-1.5792462269537033,1.7415119985632677,-0.613501481450156,0.24184043463644553,5.146462029050515,0.328630381060569,-0.07450145944120781,-0.7129706996434938,-0.43270326692623284,-0.88128500349908,-0.15442312874001698,-0.8950481215940619,-0.33071507493790425,-0.8422082392421164,-0.06482708653535826,-0.500926639318301,-0.5298385918727866,-0.7218767973192729,-0.5403775782419024,undefined,1496247466174
903d185fccf839df,1.8322301871028226,-0.2464362216347693,2.750700206662053,2.894068743355012,1.2511098429694452,-1.592427390357931,1.7386770756670662,-0.4039820265528452,0.022792961385166698,2.8058336936806194,0.19244915354028214,-0.06105072569302856,-0.7434338792335116,-0.4354807547894681,-0.8339165238052488,0.12644135997219397,-0.7602447503761393,-0.3251040860535284,-0.7834350280309546,0.1636550442772547,-0.44795332159581475,-0.5005120594216177,-0.5659948096238934,-0.5022372281629933,undefined,1496247467667
903d185fccf839df,1.707488852241766,-0.1313812235469927,2.3902237169436225,2.119233256213482,1.385801050893547,-1.5099723209729818,1.773990112978286,0.2339543683611857,-0.7820340342428,0.6771980605099803,0.1644596927660448,-0.02422144517976115,-0.8609347147950089,-0.38918909182367006,-0.7697059256874996,0.14866800210544653,-0.6875274901156958,-0.3167382686073202,-0.7515785461703348,0.21878148164049777,-0.42521812003974846,-0.42337723631737206,-0.6012326016536822,-0.5318267721117279,undefined,1496247469173
903d185fccf839df,1.2542620206494788,-0.04039378192620829,1.487437275016015,1.2065415216181345,0.7627655260408749,-1.5628250884862653,1.8440455040125268,0.30745353834706013,-0.5251411164847886,-1.3812319857034239,0.02960193305000905,0.004417368905737673,-0.9871393159536542,-0.42066739984704954,-0.7265480032080246,0.10825583813584802,-0.6954289634762261,-0.3407654571242019,-0.6910071554508409,0.1911412704489363,-0.42578993947886473,-0.4493001108074555,-0.41783829857139243,-0.4841711432383944,undefined,1496247470716
903d185fccf839df,0.2494014823024052,-0.2892884334095999,1.4000299209052296,1.2688726425824557,-0.048025113788324386,-1.6247199625771322,1.9036316464104717,0.07985400358645851,-0.5934890224591987,-1.552286235675915,-0.005467596234332645,0.039312131975855785,-0.9218610739750446,-0.3771532376952613,-0.6244426110280832,0.5184392148066362,-0.6172647073916192,-0.34210170888792146,-0.6112295169602279,0.39167522650559905,-0.3572215704181005,-0.4779556728479437,-0.3689410441811742,-0.5540453856826861,undefined,1496247472178
903d185fccf839df,0.3006838708201588,-0.17716845185644559,1.3349525639924809,1.1966968800722966,-0.37382456760584837,-1.628418795613027,1.933824452449766,-0.03630489651240908,-0.17120180875138438,-0.2511029392192592,-0.14068359893133883,0.003635821837013189,-0.852230949197861,-0.265127328360949,-0.6528636900097013,0.5911811608284123,-0.5646321850724101,-0.27444687063003664,-0.5430945722394193,0.5204216270915135,-0.2831897249452338,-0.37119423995267153,-0.34060346916771583,-0.4727948328639783,undefined,1496247473679
903d185fccf839df,0.027639009533787468,-0.24408816164228375,1.294757755797777,1.1493141366373387,-0.6213395839282823,-1.5348649029718342,1.9045889032514132,-0.12602253675141042,-0.0826474234498236,-0.4233782909634504,-0.09880670738455401,0.0074381666805351425,-0.843527183600713,-0.2521656233601709,-0.6002320230007171,0.4275119165368434,-0.5463383190566191,-0.2723759978814294,-0.5057875763085382,0.4486956693604696,-0.2744802728265653,-0.37471918951940897,-0.3560799570484298,-0.47290564235779253,undefined,1496247475210
903d185fccf839df,0.2743496181540595,-0.2705038365577462,1.127598669040637,1.1221503220237883,-0.5007192108751499,-1.3730922543432749,1.8533760655569351,-0.00814600363426105,-0.12068953941360977,-0.31442287573571953,-0.2500373506373078,-0.045325993444146694,-0.7695451760249554,-0.3225290334351101,-0.4739161016912799,0.2921312068092985,-0.5412766060091697,-0.2457966315565857,-0.4659547313269723,0.26594692125408137,-0.27425521066557745,-0.3574596625470549,-0.48949728578827273,-0.45719950908822815,undefined,1496247476671
903d185fccf839df,0.06506136858561277,-0.41373561301133405,1.1563095367647962,1.1034160907392867,-0.6407178326115752,-1.3450365666019217,1.7630211901611577,-0.636852923680532,-0.21789480848145612,0.04588009504742117,-0.11116404599526512,0.0066101431041397304,-0.9001016599821747,-0.2956798502658318,-0.585495186865094,0.22545120974773694,-0.5572171033703855,-0.2341883447107397,-0.5287930913396754,0.20803336758057764,-0.30750063294551655,-0.3586636789325877,-0.4576149074069414,-0.37707878467189637,undefined,1496247478160
903d185fccf839df,-0.12759468689883519,-0.4284111048763381,1.3891838641777379,1.3770630836244029,-0.5353100148947906,-1.4223114085063617,1.7587530180921385,-0.8046576694285147,-0.258978420271054,-0.30859421263027936,-0.1757471908882442,0.02827758529067642,-0.8913978943850268,-0.33086152292636506,-0.6160215260483058,0.06380249733989979,-0.646118924023436,-0.2846302396671701,-0.5876152804227199,0.04918300725108246,-0.38056387672589803,-0.3295729677319188,-0.6007272462387105,-0.40063128438561785,undefined,1496247479664
903d185fccf839df,-0.16363103265244475,-0.4225409548951242,1.4121522533927258,1.2000462641422016,-0.6237670144369255,-1.5701784985666838,1.8174529109614646,-0.8277376908149973,-0.31554934527360906,-0.14232833949164236,-0.19431442049851058,-0.03132478485791376,-0.9131573083778967,-0.3753015489012972,-0.7602322400558607,0.04561703203299692,-0.680073971218486,-0.36999198643169656,-0.6927563587266626,-0.004757751414811384,-0.469299887565973,-0.39419527951278716,-0.6938179204969842,-0.4688856250140722,undefined,1496247481162
903d185fccf839df,-0.17471917354358052,-0.45071767480495084,1.5537903994148692,1.4936685080548835,-0.8494454911234344,-1.6560785108399023,1.864544840343278,-0.7584875486664067,-0.3118600021238467,-0.5975727430489035,-0.19930148095525033,0.005204198115979997,-0.9871393159536542,-0.3706723851948723,-0.7928638688896013,0.0011636912370487033,-0.7172904607240296,-0.3688457250047184,-0.780769243533486,-0.05946842861049746,-0.5044810888663989,-0.41917263867924076,-0.6780893973868032,-0.5865980853223927,undefined,1496247482703
903d185fccf839df,-0.3479709738421885,-0.405517519949604,1.4982833317435067,1.4514631960838507,-0.9352590509146164,-1.6838383838066253,1.827682855338982,-1.0972016017571928,-0.3359042293389842,-0.7094752703821182,-0.17176777896491274,0.051963791283146384,-0.9349167223707665,-0.39196656673613084,-0.8518113238656002,-0.1806910183614231,-0.7156166574745364,-0.42254275475537817,-0.8481975106310179,-0.04400838837275275,-0.5581171392353689,-0.45122273657977713,-0.6488211327108889,-0.56557170910348,undefined,1496247484172
903d185fccf839df,-0.4408339683388731,-0.43075916486882365,1.7362619997856175,1.7073569191642604,-0.9739538417269584,-1.7002618489704442,1.8583595394542176,-0.9179746038920646,-0.2550518440121107,-0.8937345185340742,-0.19217126066298354,-0.053480459699928685,-0.7738970588235294,-0.40122492005052973,-0.8665481894501583,-0.04328976261778566,-0.7130970326560798,-0.42791942629610363,-0.8799910196461309,0.05729798221248226,-0.5554065259800711,-0.47976543462392707,-0.6162201447909564,-0.5452355508041585,undefined,1496247485677
903d185fccf839df,-0.3424269206493255,-0.423714984891367,1.5588947400440383,1.5149150674574945,-0.8362386426085198,-1.7004155795334979,1.8659044550191142,-0.8470209614471564,-0.35181301786562896,-0.4245016933830452,-0.17457684431354784,0.04052128495123388,-0.6999150512477719,-0.3891890529713464,-0.893916594157577,-0.03924852926199289,-0.6753813362639751,-0.384975735828742,-0.8830976044644766,0.06370373271797712,-0.5352000051144089,-0.40531366772963506,-0.5724824305156063,-0.5340366354736626,undefined,1496247487199
903d185fccf839df,-0.11373451941126794,-0.3708835766044575,1.4121519992557763,1.4819299857603199,-0.8029952759257901,-1.722002969356632,1.8693337297346873,-0.8151648147475502,-0.40909662593384755,-0.3771853823191745,-0.1956147229754019,0.0310130496212183,-0.4823209113190731,-0.3697465472732775,-0.9181271895471769,-0.021063007425646943,-0.6753813362639751,-0.35445094788506254,-0.922174792947685,0.02934979873295536,-0.53628626548963,-0.4065920981113567,-0.6009712880912351,-0.5199839535761437,undefined,1496247488667
903d185fccf839df,-0.10403239181834795,-0.30396383759062695,1.320916326138877,1.4749906082304807,-0.7259759779821232,-1.7259929563592593,1.8833795315082167,-0.6969139537578954,-0.4492037447326195,-0.38213363990416,-0.13106634046316867,0.002895477829872738,-0.5345435049019608,-0.3891890788728955,-0.9412850885758758,-0.10592852632355444,-0.7276161232709798,-0.365824914458362,-0.9314805510711102,-0.043284665327384626,-0.557902220383184,-0.3904462184915154,-0.6146437509110082,-0.5306765112576489,undefined,1496247490158
903d185fccf839df,-0.40063951367979683,-0.21767242827083663,1.484247093889903,1.709296530954356,-0.8373392210519436,-1.7281847701003898,1.8781409582947861,-0.7725161408970161,-0.3606712151003924,-0.25188327010365946,-0.034810250084596706,0.03434221187552722,-0.7869527072192514,-0.38733740302970593,-0.9339166410591291,-0.07359888559498455,-0.7585182456786583,-0.3727278226459326,-0.9150800258439945,-0.05383259803487513,-0.5572807452864942,-0.3788152994360171,-0.6286505954349098,-0.5352887770353415,undefined,1496247491687
903d185fccf839df,-0.43528981162978087,-0.242914219330018,1.6705465049928663,1.8428053231966068,-0.8746248689013726,-1.7383518993221303,1.9459636482834353,-0.3623398810086468,-0.3467889732525308,-0.33237482727213663,-0.012091502583354303,-0.016360586838379213,-0.843527183600713,-0.40400239496299045,-0.9570745548122955,-0.15442314287237774,-0.8158658321396106,-0.38279720183616267,-0.9303190796948322,-0.06106986884855939,-0.5701957398592151,-0.36516867469872455,-0.6729683458809282,-0.5417617574225373,undefined,1496247493170
903d185fccf839df,-0.5087486889622644,-0.21767248672682132,1.867054089080269,1.9339243171609792,-0.9120030889423867,-1.7192567957891893,1.938792151716354,-0.3844882285365581,-0.3585497593749603,-0.37843173131294344,-0.02595465604544867,0.059923643630640136,-0.7651932932263815,-0.3669690723608167,-0.9991798987266103,-0.24737102955534543,-0.8778623303656818,-0.4669810220013174,-0.9739371989080177,-0.0886176838748208,-0.6299998033948063,-0.43064320737164075,-0.6932926850683702,-0.5694062016662358,undefined,1496247494704
903d185fccf839df,-0.40063951367979683,-0.2834182249724014,1.9283031269869035,1.935554465106864,-1.02466233189559,-1.6940241474585587,1.914019381090852,-0.5083375998774433,-0.3012991550278055,-0.5795892060650317,-0.15527120221572524,0.0010137070033318268,-0.8130640040106952,-0.4373324176818832,-1.0118115114718087,-0.3039481552128366,-0.9213659364394513,-0.5116662707785052,-0.994116000993107,-0.1304244626018354,-0.6624539362001679,-0.4541403743445938,-0.7252919545792312,-0.6049664345550902,undefined,1496247496172
903d185fccf839df,-0.25510804835632334,-0.33390154403883304,2.017625148874645,2.145241851896215,-0.8003209924432018,-1.6892538644966122,1.817250419237329,-1.0501010987380324,-0.4305585368614202,-0.6500114733067434,-0.13042865517812222,-0.14125191103464046,-0.4823209113190731,-0.44566492012391273,-1.0297062599965234,-0.2776802797237912,-0.8742414987295816,-0.5043073913714656,-0.9800314211020817,-0.022650742371321433,-0.641692921350522,-0.454965856011945,-0.6695427360435097,-0.5939611058212204,undefined,1496247497678
903d185fccf839df,-0.22738774788659857,-0.3685354289279949,1.5646369644162599,1.5389329180166176,-0.8029027093396647,-1.7057448793586623,1.7831996920406266,-1.3013013134637206,-0.4274507219278235,-0.7030735073703863,-0.13900787285026261,-0.2947369977398717,0.48814895276292336,-0.4391840935250728,-1.0265483476074315,-0.31809241542866823,-0.8522092173456068,-0.5240155113812797,-0.9951935106205136,0.0599157210212199,-0.6429896536017836,-0.48640209104194304,-0.6201505671788973,-0.5907383394279063,undefined,1496247499169
903d185fccf839df,-0.31054861479036316,-0.40434343149737656,1.5397544156982148,1.3991847760995761,-0.7242171228022881,-1.6834563892254424,1.776685663099806,-1.3132080028055817,-0.5112660864205779,-0.7609303061562346,-0.03744939523303838,-0.38371438078264014,0.8972259358288771,-0.45584908545835734,-1.0023378258401696,-0.32011297557712154,-0.8382011114102514,-0.5153837096196109,-1.0083195281493644,0.08013388075378186,-0.6409519080336807,-0.4610540971950568,-0.5775420820352373,-0.5675185529200691,undefined,1496247500671
903d185fccf839df,-0.2052115006097368,-0.3380106782536751,1.2150065314253211,1.211754001946933,-0.879551722155938,-1.71270464691358,1.847690426278445,-0.9298554095166216,-0.4153224809905558,-0.9563942771802479,-0.021919783330587545,-0.19125312387865245,0.03555314171122996,-0.45121996060425607,-1.0265483549696655,-0.22918564904260716,-0.8271274311339333,-0.49265477611793435,-1.0250978802707296,0.07697719621980117,-0.6314952941153631,-0.4593455244274555,-0.5892195680365835,-0.5404153512065399,undefined,1496247502176
903d185fccf839df,-0.2315457532758361,-0.3526861408906868,1.2137307639392156,1.1663153408110751,-0.8649254563780404,-1.7234494263632132,1.8905904494629688,-0.651926906943191,-0.36824305509538957,-1.1546613812033777,-0.08504159612772091,0.019536479116228946,-0.3735238413547237,-0.5058441648644073,-1.0012851810149053,-0.15644375955027412,-0.7923974307335423,-0.46618307188970926,-1.010782405100824,0.09422345409650666,-0.6168544811444604,-0.4564138346199637,-0.5557560309431614,-0.5215048043988669,undefined,1496247503687
903d185fccf839df,-0.4172716387529761,-0.3961252799796618,1.1537574935186865,1.2092813318232012,-0.9533721678945303,-1.7558025577320309,1.8741462685018766,-0.8549443011209733,-0.3455490487247873,-1.165945548044192,0.006620492084141302,0.16803234506055892,-0.034076983065953644,-0.5160282654449792,-0.988653568269707,-0.08976369182690873,-0.8069443244292727,-0.4920848120063956,-1.012167773948025,0.03720300902035497,-0.6380587891733996,-0.4641418814084836,-0.537631089233484,-0.5045501734382567,undefined,1496247505170
903d185fccf839df,-0.37291924771548174,-0.36912256083808564,1.4491568804613175,1.4408624982808333,-0.9087836722570359,-1.757954774771144,1.904212835070981,-0.6428375765433876,-0.3581446708448485,-1.0113938160178242,-0.05867891997680449,0.10832450480080273,-0.5519510360962567,-0.4688107516068118,-0.988653568269707,-0.06753699316421309,-0.7649504924679299,-0.47990022709766034,-1.0135111614528352,-0.021388073883418745,-0.6425517986182735,-0.4647576943481797,-0.5527498758281486,-0.5083198165201642,undefined,1496247506716
903d185fccf839df,-0.3549009713224478,-0.5182244288169027,1.612487902349293,1.5076616195765802,-0.8776900112520429,-1.7838070003287194,1.9179693479882913,-0.6141724172762437,-0.4046503614700456,-0.8043858908104559,-0.008985028079925432,0.05834703898498975,-0.7521376448306596,-0.4743657920871551,-0.9802324980143973,-0.20493830543729358,-0.8083133267615065,-0.46656304834978946,-1.003176871488247,-0.10860486987393438,-0.6491536504299659,-0.45336768342410966,-0.5478884214953521,-0.5073481834665209,undefined,1496247508276
903d185fccf839df,-0.40479751906903433,-0.6074508546713153,1.3668533587058025,1.4071792899666535,-0.9085882491266368,-1.814133695874844,1.945064241881085,-0.510584495298355,-0.4215015170740096,-0.691825923903397,0.06840732035984584,0.09334032316289026,-0.6346368092691622,-0.44659079689783115,-0.9791798752758342,-0.07157822652000585,-0.8110554656701316,-0.4738775981310772,-1.0004271249482883,-0.06756801424043467,-0.6441997747215498,-0.4824185514669047,-0.5659279285951178,-0.5239534291998804,undefined,1496247509676
903d185fccf839df,-0.345198947245757,-0.629757424599928,1.620781915830675,1.483202682202789,-0.7682090592424767,-1.8661502669234353,1.8732836934895614,-1.0153696415238738,-0.3727136447688358,-0.422264442764989,0.05921391019394197,0.004339208554225224,-0.8217677696078431,-0.46788495253754064,-0.9739167321340839,-0.20291766049467566,-0.8054265778140485,-0.506916563972768,-0.9888543994768793,-0.09559318290640523,-0.6634645477113204,-0.48101755074494407,-0.5632691531763788,-0.5372392551623114,undefined,1496247511168
903d185fccf839df,-0.31747861227062246,-0.6491289487659262,1.4740391750424133,1.4414587035824566,-0.752471946014464,-1.8751551051951378,1.8372895410094643,-1.253769972110269,-0.3156164125977512,-0.20079292826810885,0.11231034738266564,0.012046543166185834,-0.8826941287878788,-0.3956698925209609,-0.9507588036564498,-0.27768022319434815,-0.840115941485427,-0.5136928123898508,-0.966219715734176,-0.12378773390686763,-0.6607925447875844,-0.4782635685895275,-0.5921988292794734,-0.5429065453747735,undefined,1496247512664
903d185fccf839df,-0.4754843007942669,-0.6373885903475137,1.5633606886562557,1.5364343134781644,-0.7997964324189811,-1.886989970423519,1.8257841429995996,-1.3631410917133586,-0.3310916077767631,0.0926660705936143,0.0009959104809013463,-0.03055797399552126,-0.8783422459893049,-0.42992572725989936,-0.9728640799465857,-0.28778327831910855,-0.9174139639979065,-0.5002796383012412,-0.9728107114393135,-0.10430870020191822,-0.6551714371356838,-0.4729131407824312,-0.605644158167633,-0.5601461808087734,undefined,1496247514160
903d185fccf839df,-0.5184507475443649,-0.6585211887358684,2.1043943651054278,2.103301245465572,-0.8675277425020163,-1.8786792439446576,1.8681634692884082,-1.0904249683490936,-0.34676843660611434,-0.20465875730581368,-0.14263828503658768,-0.030720253481132304,-0.7826008244206774,-0.47992078076440026,-0.9570745916234645,-0.2797008681369661,-0.9174652355398663,-0.5265106907915321,-0.9597476646884028,-0.10440108970337515,-0.6672503521196619,-0.47999448272647366,-0.6034906231428953,-0.5455276669989118,undefined,1496247515678
903d185fccf839df,-0.371533234417266,-0.6960902070716218,1.8058047970366848,1.808231267571642,-0.7392445265575902,-1.8819029121565511,1.9624051952509762,-0.4679845083878544,-0.28955333322128896,-0.017744417063436217,-0.08635916958100949,-0.03673096614970443,-0.7216744652406417,-0.4058540578554055,-0.9560219615226677,-0.32415415240347123,-0.860899706953924,-0.4811858131194411,-0.9387222478816465,-0.05848292594796561,-0.627656758038279,-0.47722627532148304,-0.626756814270164,-0.4912091672773703,undefined,1496247517178
903d185fccf839df,-0.38677934619222953,-0.6432587987847123,1.909800686384133,1.9488091656936897,-0.8300878059141552,-1.8636160539658055,1.9163257252754804,-0.714687635043127,-0.29249194199661105,0.006505227862352551,-0.08944931066291362,-0.04207083183500424,-0.7564895276292335,-0.3715982360672416,-0.9581272217242613,-0.3322366473797783,-0.8301526013806942,-0.4138412923683813,-0.9137156465118643,-0.09834950025257752,-0.591201799957398,-0.4290052573740443,-0.6757725219262848,-0.4827245916656956,undefined,1496247518721
903d185fccf839df,-0.20105339170427008,-0.5845572405165889,1.7254154347842265,1.789384361208012,-0.7429473804522099,-1.8698910247820428,2.0068752061275674,-0.11078465714384281,-0.25309291663123357,-0.03349316447212104,0.04108693341008727,0.08473045614489119,-0.7521376448306596,-0.4095574095417847,-0.9591798518250582,-0.3362778807355711,-0.8544745820953045,-0.42387267613889673,-0.9154928364500722,-0.0929754450534916,-0.6008005330157721,-0.4319844925651896,-0.6480270220746583,-0.48743365826448887,undefined,1496247520175
903d185fccf839df,-0.21907163359189433,-0.6103859004339299,1.9901903027735406,1.9512813246267033,-0.8701917385331093,-1.8468175830008042,1.98493736049331,-0.2563511615019491,-0.30961511141306847,0.08689859913409918,-0.0039704742162469525,0.14771151422883103,-0.2908380681818182,-0.4706624533515505,-0.9454956384279982,-0.43528764571694945,-0.8924145832414635,-0.45721562296704893,-0.9104761232717088,-0.18870757887181386,-0.6318890090471073,-0.4457552712101339,-0.6460965467522636,-0.47523013724892915,undefined,1496247521689
903d185fccf839df,-0.1871932932275223,-0.632692499590535,1.5084920130018447,1.5187433899843301,-0.8930979881683858,-1.8749408181317664,1.9122705638825708,-0.8270666974364772,-0.32766367156004805,-0.010918019790954196,0.09641397823768558,0.07826526338598047,-0.4213945521390374,-0.44566492012391273,-0.9612851193888856,-0.3645663729025128,-0.8699265952499778,-0.46878591100474076,-0.9247006398206958,-0.1236183458374316,-0.6269158697269979,-0.4371238111461139,-0.6359734178510932,-0.509954713770061,undefined,1496247523179
903d185fccf839df,-0.07908411794505467,-0.7236799412113194,1.4172560857479959,1.311540405578099,-0.8597723272270871,-1.8677644315420574,1.975341202678738,-0.41263029378947746,-0.3559437577838831,-0.1021721196086369,0.10929451882955724,-0.06451102420684052,-0.4649133801247772,-0.4901049590496194,-0.9486535360926224,-0.24535049767161365,-0.8451495085776788,-0.4999059970936281,-0.9201807001472889,0.08090380439925189,-0.5994635300890322,-0.43316183891019805,-0.6587477935370429,-0.5448032035719114,undefined,1496247524669
903d185fccf839df,0.08030758387680553,-0.6626302937227181,1.095698382601214,0.9947333148355973,-0.6292698543264156,-1.844686328496271,1.9229055027073383,-0.6589401070351661,-0.3865680402670923,0.09552010418769362,0.04852774304550345,-0.01397474746496026,-0.36482007575757575,-0.5169541292681231,-0.945495608979063,-0.15442314287237774,-0.8670042223705278,-0.5369093877646892,-0.9353357927753225,0.10552591951598939,-0.6155683211323253,-0.45731623537749105,-0.6832457085700185,-0.5546265119367892,undefined,1496247526202
903d185fccf839df,0.012392863253414193,-0.5610766405917333,0.9240733472318567,0.7944984599389417,-0.7426799497005252,-1.809591680972022,1.916988444914135,-0.6858868510185011,-0.39801980340290144,-0.26074012250204004,0.016202438175065267,-0.14155567980842085,-0.8609347147950089,-0.6160183465524319,-0.9381271982734853,-0.029145417607789416,-0.8942892642596428,-0.6302506436457795,-0.9380155712248657,0.26074224690863346,-0.6336960800267807,-0.5010201958857841,-0.6617378327252311,-0.5099932673327583,undefined,1496247527676
903d185fccf839df,-0.16085900605601325,-0.5305518314614289,0.9170548470996307,0.8667957728562644,-0.7926787264354146,-1.8072228452985928,1.8982852606827276,-0.8069466074316325,-0.35905422794277797,-0.5331114169741362,-0.028173007145040174,-0.06297697707101635,-0.6955631684491979,-0.5734300352730131,-0.9276008604543482,0.23151300325198304,-0.7646038528818753,-0.6468746211865,-0.9455091559123523,0.7104846455219268,-0.5473525422516077,-0.5083932419654031,-0.6505967304388688,-0.5618204811400912,undefined,1496247529173
903d185fccf839df,-0.5988395533462884,-0.4765463639502842,0.7454298117302732,0.6646063416142317,-1.078991391430807,-1.7812331938293842,1.920583384677656,-0.7037631476930232,-0.3827999246436239,-0.7339935849978373,-0.021642782489837156,-0.06426832938530644,-0.4649133801247772,-0.5697266706358592,-0.9254955928905207,0.2800075491390025,-0.7743409902252045,-0.6167044778229946,-0.9628402567475006,0.6541263340711463,-0.5437022289492255,-0.5074773696310483,-0.7188073060008657,-0.5474267914830189,undefined,1496247530709
903d185fccf839df,-0.5641891863854848,-0.4765463639502842,0.9738381905309975,0.8745105591865361,-1.0981124994585993,-1.773474496856243,1.93547334969669,-0.5574840049137986,-0.3925311312132672,-0.897615770706009,-0.08625567438123943,-0.0581328574096792,-0.8130640040106952,-0.5299158342689012,-0.9160218851721804,0.22140989159777955,-0.7523778354093228,-0.5967240406481663,-0.947706154741726,0.5484621983223971,-0.5488487059019217,-0.5065083971094223,-0.7282671962411661,-0.5349276870271957,undefined,1496247532198
903d185fccf839df,-0.46994017859058446,-0.4448474663677523,1.2788076125780656,1.4183685009188747,-1.0178737742308208,-1.8054013791529309,1.9259587060999135,-0.6185004039199298,-0.40387005219397953,-0.811195800272265,-0.10654129081079401,-0.04294085092656441,-0.7390819964349377,-0.5012149882072079,-0.9307587581189725,0.18705954939714867,-0.7384063579863301,-0.5594040036071255,-0.9674791420528845,0.36930128652413957,-0.5668172277462881,-0.49839353003639153,-0.7883139055861313,-0.5350516034613971,undefined,1496247533682
903d185fccf839df,-0.4713261918888002,-0.5575544921470204,1.264133490981409,1.4168131469143286,-0.9645527214375703,-1.8478913601596203,1.981721119499326,-0.2942581632825512,-0.3747713969568949,-0.5924613147475067,-0.07461689894471236,0.019878786624467595,-0.7695451760249554,-0.5502841260854667,-0.9623377494896824,0.06380255386934287,-0.7651438270517245,-0.5559018839264279,-0.9919469893583034,0.3119420775194307,-0.5903148741828411,-0.48979920913963676,-0.7151796534567901,-0.5375440638160189,undefined,1496247535181
903d185fccf839df,-0.42281576095665857,-0.6937421470791363,1.264133490981409,1.3475500615443348,-0.8852088576716544,-1.912064231065397,1.958176460282455,-0.5559416400434943,-0.3139842207051074,-0.4476755820431789,-0.011130469568585525,-0.09374950693943265,-0.9392686051693405,-0.5178799671897178,-0.9791798789569511,-0.06753702142893463,-0.7573291419843741,-0.4943456706845582,-1.0147565928896758,0.1487185572561853,-0.6039281432089463,-0.4643112480108715,-0.6666734034062302,-0.551231873007425,undefined,1496247536671
903d185fccf839df,-0.5891375292695975,-0.6432587987847123,1.2603054261122444,1.215369189317007,-1.0227183430413735,-1.9124765061260816,1.9031293586627631,-0.9760495582756432,-0.3337455303938035,-0.5965352949053732,0.10764984110747729,-0.03627764576956315,-0.9958430815508021,-0.49380829778522406,-0.9939167482226262,-0.30798936030390783,-0.8979202707415137,-0.4725856749300696,-1.0135951216357388,-0.19010883676123522,-0.6660316419858998,-0.42696312291423505,-0.6199838196142152,-0.5425993537309275,undefined,1496247538172
903d185fccf839df,-0.4546941013210306,-0.669674502928167,1.1665177097492354,1.1024262862198588,-0.952261319822253,-1.8944412071344738,1.908628277181486,-0.8799519715792837,-0.39415277883312677,-0.9443412463407229,0.14492738750673473,-0.019126708305745036,-0.8217677696078431,-0.42251908864101373,-0.9781272378128036,-0.21302080041360066,-0.7672151392689096,-0.4313772097125868,-1.0024142174510826,-0.060022769657931144,-0.6225044639775796,-0.41357392223134704,-0.608626735158077,-0.5144061011677539,undefined,1496247539680
903d185fccf839df,-0.4463779180155069,-0.6256483488410707,1.1760879989906217,1.1113830471886303,-0.8638351784635181,-1.9012845123253048,1.9529825916328625,-0.5691649176002204,-0.371064433502891,-1.015526083740574,0.1260401722876947,0.12121544926037403,-0.6520443404634582,-0.4521457726243018,-0.9718114498457889,-0.15846437622817053,-0.8335162523887397,-0.43703252836666784,-0.9877908833855871,-0.03403019431001639,-0.6204967570289605,-0.4194848386044251,-0.555942273045291,-0.5282115549683295,undefined,1496247541165
903d185fccf839df,-0.38955133828325134,-0.6708485036964175,1.2418029855094739,1.1957180904592721,-0.8532923350160505,-1.8828905099718078,2.021915072300953,-0.09051222002923143,-0.3977042465363909,-1.1243205502691793,0.11931071464425727,0.03658930687130238,-0.09065145944741532,-0.47066242745000136,-0.9749693548726469,-0.12613462244071447,-0.8306885819411812,-0.474206908345382,-0.9833688987647174,-0.048135170769608854,-0.6392770631038321,-0.44338515645453236,-0.5598508523502418,-0.5294287631627935,undefined,1496247542712
903d185fccf839df,-0.4131136678691483,-0.6685004437039319,1.3024141396730557,1.284985905033068,-0.9272156353764156,-1.8798252304244853,1.9589917098314031,-0.5411250874525706,-0.3476654544821987,-0.9722412253786432,0.040972225452904444,0.11792172015414656,-0.5388953877005348,-0.41511242412057897,-0.9739166953229149,-0.18271160677459794,-0.8124822442644349,-0.47090744589091726,-0.9782752201956971,0.030304510953040868,-0.6244293836846135,-0.4292652920092212,-0.5512981959107334,-0.5305283283365836,undefined,1496247544177
903d185fccf839df,-0.38955144179948054,-0.6673264429356816,1.1575855583878512,1.1673993972502748,-0.924243073039368,-1.8946531679821257,1.944609301594701,-0.6396185488771725,-0.39037945048556133,-0.9424783904787376,0.08220210782140748,-0.007513154839371614,-0.7738970588235294,-0.5039924760704432,-0.9676009073559003,-0.1907940734861835,-0.8664394726336995,-0.4818887708642315,-0.9827601759248277,-0.040312761506030914,-0.6441435016514581,-0.44247094787886854,-0.5469699906841745,-0.5190404695614408,undefined,1496247545687
903d185fccf839df,-0.3853934019048333,-0.7700541552909013,0.9999967608720974,0.9784936037129784,-0.9757641320797277,-1.922406053074901,1.9352103766829778,-0.7566090523027892,-0.35202812354768837,-0.8729578493726037,0.12784193431262847,-0.07829943083786625,-0.9914911987522282,-0.5086216397768681,-0.9823377729404584,-0.1321964442096821,-0.9009629723412586,-0.5213683421809528,-0.9794157002584883,-0.055541824106257354,-0.6658252963408565,-0.4585294614323201,-0.5607773648946798,-0.5129110704211314,undefined,1496247547170
903d185fccf839df,-0.45469413582644036,-0.8258206093404254,0.9865984067615463,1.0141234059644613,-0.9627630153882404,-1.9400151013594065,1.9866151874114977,-0.42414087088866687,-0.33970919700660224,-0.788492393890776,0.16457221376856201,0.000679812603542366,-0.9958430815508021,-0.5928725150695329,-0.9781272451750374,-0.34638090759560997,-0.9707812793616906,-0.5154027081516631,-0.9645334826368221,-0.1823326244629355,-0.6807772016862181,-0.4741704140006943,-0.5709749335240035,-0.5164561930775687,undefined,1496247548687
903d185fccf839df,-0.6515081621947161,-0.8340388485421172,0.7594663037208265,0.8207948975454915,-1.009285219812379,-1.9506341020679556,1.9692111250436095,-0.5685283345461861,-0.3000226691714919,-0.7962561434467963,0.2559482343712313,0.04701345575620052,-0.9044535427807487,-0.5539874777718459,-0.9465482538043274,-0.3968960701605258,-0.9687862355798508,-0.49713216590261067,-0.9606222655647396,-0.2455278440090783,-0.6788078880687576,-0.4687033886492938,-0.591370755597268,-0.5277836845743992,undefined,1496247550167
903d185fccf839df,-0.6570522498929888,-0.8234725493479399,0.8066793579108068,0.9321550616087284,-0.9556247382046474,-1.9699132151117695,1.9521778696779433,-0.6625161851211827,-0.24591683374614703,-1.0047179005691649,0.27520672107854943,0.015880317494124285,-0.7913045900178254,-0.5752816852146535,-0.9254956002527546,-0.380731179134437,-0.9719119244399154,-0.49740448285723177,-0.9617767402096628,-0.2379364103367476,-0.6787787828869729,-0.45334907525189416,-0.5968142322412382,-0.5275623876620701,undefined,1496247551685
903d185fccf839df,-0.6750704572752034,-0.7999919640370806,0.7709507524652699,0.7621099534876173,-0.9945663876684134,-1.9781167954073822,1.8615258165393165,-1.2937537218046113,-0.2805420016429879,-0.9575897634195679,0.252011447993846,-0.013316609490317915,-0.8261196524064172,-0.5854657987459999,-0.9233903547756285,-0.388813617581301,-0.9702239793097185,-0.5127112076701215,-0.9588030962599517,-0.2593864439549121,-0.6873270890656682,-0.45643601238203113,-0.6122222502456186,-0.5325915368651882,undefined,1496247553176
903d185fccf839df,-0.601611683458949,-0.8698468072695104,0.8641000768113275,0.881314280693761,-1.042950309488138,-1.9934525068019273,1.9183901160187138,-0.952295715775421,-0.27941987400546314,-0.7470987847817068,0.1672993826996238,-0.11059485967566948,-0.6563962232620321,-0.5447291633097706,-0.9833904251279566,-0.409019713698461,-0.9816697043152924,-0.5098613837018418,-0.9628612466540635,-0.25609117516201513,-0.6846273552301851,-0.4562728449718443,-0.6231815500442576,-0.5429398103463591,undefined,1496247554721
903d185fccf839df,-0.5489430401051115,-0.8545844027043581,0.8475120498485633,0.8680308293672128,-1.0344234697020442,-2.002725208062532,1.8846812648435685,-1.1825080698384671,-0.264934160376909,-0.6558153126832026,0.1527844782143689,0.061794270418143164,-0.8565828319964349,-0.5188058439636363,-0.9539167013210741,-0.4393288790727422,-0.9749624358448031,-0.5169922776680151,-0.9599085926047981,-0.2514562420056981,-0.6859341761864547,-0.4460766487333516,-0.6329404730315183,-0.5537799622942715,undefined,1496247556177
903d185fccf839df,-0.5087486889622644,-0.8404959842934602,1.0006343904782007,1.0179687986812656,-0.9590807366566791,-1.9892109617535672,1.9095329316680236,-0.991204047231044,-0.23377681286525814,-0.4684175179469426,0.17939179970896696,0.0763723691454702,-0.051484514260249546,-0.5271383205041168,-0.9791798900003018,-0.40295790606185417,-0.9564807797109766,-0.5212670161949845,-0.962910225504676,-0.27289087762267283,-0.6949277753388762,-0.4196909228440963,-0.6475575005511957,-0.5456649689513745,undefined,1496247557646
903d185fccf839df,-0.5295389229409104,-0.7999919494230844,0.9993588771290447,0.980483478147037,-0.8395403613984834,-1.9843265480546544,1.9015015108425273,-1.0125303863063853,-0.1864583991041345,-0.520379110670668,0.20873934261413687,0.11948178293477668,0.16175774286987524,-0.4975116365208287,-0.9118113574067593,-0.34436029091771353,-0.9428630115946105,-0.5448762299419319,-0.8888489804175883,-0.15011907263138488,-0.6655989584366452,-0.4038237222067987,-0.6162791046299787,-0.5204488020445298,undefined,1496247559141
903d185fccf839df,-0.3715331309010368,-0.7459865257539282,1.2373370368972565,1.298167351798343,-0.7291028267209942,-1.9617888308232816,1.8855754011637735,-1.0730440324244386,-0.08974740587729273,-0.42256335830714015,0.3313872624359483,0.13914666703837686,-0.9697317847593583,-0.44936825885951737,-0.8970745359956039,-0.3463808793308884,-0.8303495042346039,-0.46893790208485814,-0.8670958940990648,-0.11916820171344886,-0.615897505169082,-0.4275891211922091,-0.5357204880260852,-0.5459596606931495,undefined,1496247560667
903d185fccf839df,-0.4214297131530331,-0.7101785524125389,1.2500972531278054,1.259527319668586,-0.7758821828755181,-1.9433063172866354,1.9097406871891733,-0.8973590227318958,-0.11655532909223429,-0.5242532972445956,0.35752076211729417,-0.06271353577400283,-1.0001949643493762,-0.38270821342173195,-0.9054955841642123,-0.34031902929719926,-0.8518738273715669,-0.4178373800558189,-0.8614214803496214,-0.04724206303384455,-0.5784437186291383,-0.45079799999903764,-0.4339899243086443,-0.538941274388132,undefined,1496247562163
903d185fccf839df,-0.4477640003245421,-0.6996122970603501,1.297947936923889,1.336086815654653,-0.802378140035027,-1.9700948959451778,1.8655336574445882,-1.2216402678808156,-0.12448276380040586,-0.48421247469293316,0.26345621983245504,-0.0032014129849451942,-0.865286597593583,-0.226242291063262,-0.9391798210120483,-0.3888136599783833,-0.7567034781184636,-0.40494983960034964,-0.9194390359677508,-0.11260846356292388,-0.6004558801879468,-0.4347018919783443,-0.4081051968291638,-0.5090461159257561,undefined,1496247563645
903d185fccf839df,-0.3992535348869908,-0.7929477694456277,1.2832738153272325,1.2839446576770839,-0.9159630899781964,-1.9714179029982255,1.9125204114482048,-0.933213727231538,-0.1773903689920156,-0.28149779386441137,0.2036358837066326,0.013528863537915856,-0.8174158868092692,-0.4095574224925593,-0.939179798925347,-0.27768022319434815,-0.7966062490510243,-0.4165011281204627,-0.9102172410612916,-0.15828024782940434,-0.6102201535148465,-0.4287090481995918,-0.38110728450245884,-0.5195755036641716,undefined,1496247565142
903d185fccf839df,-0.3188646255688382,-0.48887373736681805,1.0382771554267947,0.9600777826470467,-0.8992385449472178,-1.8023593919343635,1.9166334251128692,-0.6305436012395107,-0.377749094242426,-0.40697372403254134,0.05846743063174583,-0.017734611577755383,-0.678155637254902,-0.3327131858187801,-0.8318113077770579,-0.2716184296901021,-0.7601095444583246,-0.36077755650377075,-0.8064405420283085,-0.1727701873098772,-0.5407231809472102,-0.3921691550151823,-0.506166427828742,-0.5338567434270124,undefined,1496247566668
903d185fccf839df,-0.38955144179948054,-0.2781350315333242,0.9821322040123796,1.074808831307546,-0.9825115466022507,-1.621153895764855,1.8037305886317465,-1.053637218050005,-0.4640930171557076,-0.5257336617113478,-0.07252401327367461,-0.07053003234900054,-0.3343568961675579,-0.32438070927829965,-0.758126979854267,-0.211000141338622,-0.6869486988868102,-0.29537724675977745,-0.7667406377685677,-0.18237882083587215,-0.4886266479555559,-0.39630240927904364,-0.5032827196741153,-0.5645545169472197,undefined,1496247568143
903d185fccf839df,-0.2828282453098189,-0.322161214848413,1.0682640447740088,1.1313786641405417,-0.9244693631674629,-1.5600393173107523,1.8315960112730618,-0.7868949945584648,-0.4120247126896753,0.1833440912272288,-0.02564555189240607,-0.11625973921558229,-0.0036138034759358177,-0.22624232991558565,-0.6665479034067613,-0.12007277240702531,-0.5305792615590146,-0.27865827633732926,-0.6646151863838651,-0.08538401307741175,-0.4121067556581187,-0.49126838856410604,-0.6515314761790649,-0.5684616030856245,undefined,1496247569661
903d185fccf839df,-0.3396549285583037,-0.304550823360756,0.9368335634624056,1.0803868340377025,-0.9643367276812943,-1.629543815984803,1.9280704534702875,-0.2990403712958156,-0.3496623455331222,0.0820102049567556,0.042816953571637444,-0.20273060818337224,-0.7695451760249554,-0.3456748519672346,-0.654968950211295,-0.06955760984210947,-0.5673610845978259,-0.2872140829797257,-0.621829688160486,-0.014520366420098792,-0.3884773539336687,-0.5006137416193516,-0.7024335679621793,-0.5961477477539325,undefined,1496247571204
903d185fccf839df,-0.6667543774859088,-0.37264456314283695,0.5814609060992452,0.6014506694622096,-1.1019284947423094,-1.556359121040855,1.819004500766385,-0.9686607015534042,-0.2681567640399849,-0.422323368664143,0.032414695247222076,-0.02641679747985715,-0.7303782308377896,-0.4465907580455075,-0.7002321623412987,-0.06753696489949156,-0.6563720411547922,-0.4730226495054894,-0.7193862225259662,-0.11223889893364042,-0.5372053469838896,-0.49128578612057655,-0.5889482044683888,-0.529286348354749,undefined,1496247572652
903d185fccf839df,-0.6570522498929888,-0.3673614281597445,0.7282039010244564,0.7396592366760386,-0.9908223957208729,-1.5448946051185701,1.8410790972282738,-0.8334671966176865,-0.345923056257242,-0.2141557019895822,0.08153831448519504,-0.08230136823668902,-0.8565828319964349,-0.6715683822587907,-0.7623374928952206,-0.2938450859557154,-0.8631597682677955,-0.6988364236165677,-0.7802304900196582,-0.3427536261067911,-0.715009111141142,-0.4472867981155321,-0.6646958759153205,-0.463992706433139,undefined,1496247574161
903d185fccf839df,-0.6085416464337986,-0.4331072248613092,0.7498962686163895,0.7451964000433392,-0.9412350455631827,-1.5090685754805375,1.8626776966444383,-0.6175900763269078,-0.4195635203511104,0.08900430019265458,0.03489790795404744,-0.033860540160962536,-0.9305648395721926,-0.6808267226224151,-0.9128640243187252,-0.6333071756797062,-0.9921680567159004,-0.7095074330375001,-0.8901503878217711,-0.5816605082963737,-0.8063354771600558,-0.41202399013433577,-0.6663218083771884,-0.5694393450777706,undefined,1496247575675
903d185fccf839df,-0.5170647687515589,-0.43545528485379476,0.7862627578049792,0.8404989428808317,-1.0220189097072117,-1.4932507121853706,1.8028049040976735,-0.9546735642197542,-0.4615714657518731,0.2958295092193643,0.05614497479334532,-0.011571341177554269,-0.9262129567736186,-0.6715683822587907,-0.8749692376187667,-0.6514926692513306,-0.9823160081548018,-0.6982031286674787,-0.859847201095475,-0.6128885546248449,-0.7918002032869058,-0.3990972711457664,-0.630358550539144,-0.5797567198819488,undefined,1496247577174
903d185fccf839df,-0.4158856254547604,-0.3708835766044575,1.0210509905840284,0.9414882624604274,-1.045007445102844,-1.5587302850868627,1.7947629582969526,-1.1043967036857114,-0.5052369573462169,0.21359240623935105,0.0967412675129217,-0.003508001403124454,-0.9523242535650625,-0.6400900418584748,-0.8549691847190555,-0.554503492683127,-0.8334117847217891,-0.6540118487995074,-0.8367717189343007,-0.3547182168992494,-0.7070782575768793,-0.43280048825692236,-0.6130569152715547,-0.5379898156692877,undefined,1496247578660
903d185fccf839df,-0.1705610646381138,-0.4160837606877966,1.5065775993618382,1.4705852627363605,-0.8016169969037764,-1.7010677664184568,1.7800465650203678,-1.308905701134752,-0.5502611628629395,-0.2319236605179113,-0.01961123494418221,-0.005413262043364032,-0.8870460115864528,-0.4040024143891523,-0.8560218295443198,-0.4090197560955433,-0.659684603343242,-0.5307854307580345,-0.8373594507849079,-0.25604497823712385,-0.6291310045121762,-0.4627958874326416,-0.5349610608556956,-0.5329522645236,undefined,1496247580222
903d185fccf839df,-0.08185611003607643,-0.39729922229192755,1.8389816133730612,1.767954715359997,-0.5062220631338618,-1.8025993039185557,1.7926170381468571,-1.305631092585567,-0.4676027729633721,-0.30509032134143466,-0.02275815730826199,0.035116494307551496,-0.9697317847593583,-0.3327132117203292,-0.8181270502065952,-0.275659592384091,-0.6540866033927646,-0.4621869841690516,-0.7934054849249095,-0.1445602331790846,-0.5648229010721203,-0.4582424677616984,-0.5644878415633284,-0.5560684092323345,undefined,1496247581690
903d185fccf839df,-0.371533234417266,-0.49239576889956166,1.4963694263773992,1.5216952211019972,-0.4661798444850834,-1.8502299151582935,1.908331117770268,-0.6428658044598301,-0.4040199711153578,-0.6111121361138862,-0.012899559717171879,-0.019982897741760947,-0.8913978943850268,-0.2836440220389722,-0.7886533116752451,-0.07966062256978756,-0.6025733282584431,-0.3872935932811074,-0.7819027273726384,-0.0449476912563835,-0.5123019773289791,-0.47256363740061297,-0.5943474913280775,-0.5694407166138827,undefined,1496247583164
903d185fccf839df,-0.2939164207063644,-0.5193985172691302,1.3343144261124786,1.234695123273212,-0.39486911004019437,-1.8511732571008725,1.8877949652385477,-0.7843921798952496,-0.48676309237301896,-0.35589579432465085,0.059787820590397875,-0.006290848352355149,-0.852230949197861,-0.2345748064560661,-0.8454955064496503,-0.0028775703834656064,-0.6871920853759196,-0.356230505617613,-0.8000174709097505,0.04902902062918761,-0.48940586541499365,-0.5125888385343665,-0.5423964360706443,-0.5367033456729794,undefined,1496247584648
903d185fccf839df,-0.17749120014001202,-0.5951235104827738,1.4861609992560105,1.626580549887799,-0.651301817834933,-1.872448527552319,1.9059511414455816,-0.7830248942705964,-0.3975515661214515,-0.21499428016344044,0.1288411832636243,0.016059209704761764,-0.8217677696078431,-0.3160481938854956,-0.8854955607134363,-0.17462925312189853,-0.7341599497910088,-0.3659262422603569,-0.8245832725764788,-0.06011516002097578,-0.5410234685018886,-0.48188684604768733,-0.4373540157277997,-0.5044404126391733,undefined,1496247586153
903d185fccf839df,-0.1941232907077816,-0.6262353346111997,1.3400569046216497,1.3700399076660383,-0.7717884694666483,-1.8828159730855105,1.9000472248132831,-0.8767664542093566,-0.3043563921113836,-0.38279698365357684,0.23689235304299192,-0.0008238592021965215,-0.7173225824420678,-0.3373423754267541,-0.9139166323328206,-0.22918562077788562,-0.7422179740915681,-0.36614156393994796,-0.844482202238735,-0.06045392792091431,-0.5509343964577944,-0.45296645632291094,-0.36739351590642677,-0.52597256079858,undefined,1496247587680
903d185fccf839df,-0.22322967348654157,-0.7254409862056835,1.0204128527040262,1.1078558459312982,-0.7017840148826904,-1.917691671616797,1.9548181839752692,-0.5527926691412217,-0.19245945806003442,-0.4651491278259614,0.2941573115549678,0.028943971298953347,-0.8870460115864528,-0.3382681874467998,-0.9170745373596786,-0.18675286839511226,-0.7498875171319093,-0.3763945992442723,-0.8754850716247836,0.037280006376726404,-0.5491040541206847,-0.4671845582977592,-0.3484883054271,-0.5138633951056906,undefined,1496247589172
903d185fccf839df,-0.018099429307332358,-0.690807042860537,0.725013465761395,0.9357717268616665,-0.5868619250907197,-1.9305583911872823,1.927357748972312,-0.7096681690687352,-0.2168123522895196,-0.6617035130316398,0.4209130251398892,-0.020952198110314218,-0.8391753008021391,-0.3253065471998945,-0.9286534979173788,-0.1422994993344425,-0.7638773316760165,-0.3418990532839317,-0.8608057615797117,0.045471980686919475,-0.5306973651421844,-0.4286952796793432,-0.3741929549148648,-0.4929146872996203,undefined,1496247590699
903d185fccf839df,-0.008397336219822091,-0.7142876720133848,0.8270957038796851,0.9282745245067346,-0.6041521850912391,-1.9439748084624058,1.8952215244585136,-0.9451144337701044,-0.2290152461779363,-0.388879858863627,0.40208089725707435,0.020787123920966634,-0.8391753008021391,-0.4040024338153141,-0.883390285787375,-0.027124843326975335,-0.7821797850900611,-0.3721008626392573,-0.8426910183729209,-0.054263749230145784,-0.5489388468943899,-0.4502365712303233,-0.39292858515828094,-0.5040230746200951,undefined,1496247592176
903d185fccf839df,-0.11234847160764246,-0.6984382232221189,1.0051005932273676,1.1326665093468617,-0.5487328542972336,-1.9401828075720489,1.8995738591423046,-0.9148709657104777,-0.22817664667964427,-0.2916931018051069,0.3839437270200847,-0.003047924864336861,-0.7782489416221035,-0.4734399412147858,-0.8865481760897654,-0.07359887146262378,-0.8084094938968386,-0.3829555277092039,-0.8611486050924547,-0.07354260162305268,-0.5664685253421082,-0.43957179183030837,-0.4294860612822075,-0.4790655992459794,undefined,1496247593689
903d185fccf839df,-0.17471907002735132,-0.7001992974444754,1.1390831177850804,1.211128535581187,-0.5438471467155735,-1.9487637224785925,1.890156531367706,-0.9661647432010512,-0.2115213544747031,-0.29698445343581503,0.27845813725835344,-0.05217843343969676,-0.6825075200534759,-0.4252966024057981,-0.8476007592890101,-0.06551640475103823,-0.7280913301869955,-0.3817902654912138,-0.8493659764264018,-0.01470514279786189,-0.5542879449836731,-0.43917411202265577,-0.33965897077563856,-0.4620679174743563,undefined,1496247595176
903d185fccf839df,-0.15670093165595625,-0.7119396266348954,1.0963362663442668,1.1317797448734008,-0.6166390269114028,-1.9409747467311411,1.948254205005227,-0.5972980885795464,-0.17368149649118209,-0.17719058799865578,0.2550297860246966,0.012942996513026963,-0.7173225824420678,-0.46047826211555676,-0.8781271131966896,-0.19281469016407987,-0.7356422791727641,-0.40511449684465506,-0.8551173547468163,-0.09463847403843473,-0.5829939360857506,-0.42714637848812914,-0.3882289803781797,-0.44437882316757676,undefined,1496247596708
903d185fccf839df,-0.5503291569195564,-0.7647709910798165,0.7033213523064114,0.694836847060571,-0.7086137237157962,-1.9730250788182728,1.9624945954747182,-0.5755997184577795,-0.21515007317818868,-0.4553548135194881,0.165896810820113,-0.0996221154320868,-0.8957497771836007,-0.4771432799503904,-0.9749693401481794,-0.2837420449633158,-0.8784824673656242,-0.5131228511352317,-0.9031714523861366,-0.25947883139663575,-0.6761938129604075,-0.4411912895155116,-0.4497552670737632,-0.48906408162478376,undefined,1496247598149
903d185fccf839df,-0.43390383283697487,-0.7694671549067761,0.43089060871571755,0.4214693828502779,-0.5951213431074679,-1.9998975124407712,1.900247081496346,-1.0224218087489625,-0.18346866105661977,0.22698078216729392,0.15772771964152646,-0.0042125134129331054,-0.865286597593583,-0.5521358084040436,-1.0160220171505283,-0.25545358106109556,-0.8505199262019407,-0.6088389602364807,-0.9585861948230389,-0.22410860235460084,-0.7363059102759096,-0.40331549648971887,-0.475832424284896,-0.4869259617609645,undefined,1496247599649
903d185fccf839df,-0.1719470434309198,-0.7060694181976969,0.5119176005742789,0.5052190883120884,-0.35018803970446155,-1.9769358729555138,1.9114789851836,-0.8679750767064527,-0.3624799286642714,0.5312922292252141,0.06189013603771874,-0.0014100302799254672,-0.865286597593583,-0.5863916625691439,-1.0307589121840217,0.21736871477142986,-0.6291996178339336,-0.6453420478199713,-0.9835997944595583,0.19331245576673647,-0.6660900678443809,-0.4097294667352179,-0.5469609158007588,-0.5368688173690717,undefined,1496247601183
903d185fccf839df,-0.06106591056284015,-0.6884589828680514,0.44109878170015665,0.3991177939981344,-0.34274119016733906,-2.0107610843762043,1.9257798773693422,-0.7759231897028925,-0.3829904576978239,0.22719159856125895,0.0544687819936154,-0.03984618590617866,-0.865286597593583,-0.6595325346057692,-1.071811574461903,0.7103969512651469,-0.6723506965685917,-0.7060496450532674,-1.0322276296059192,0.49469083092996896,-0.6500949415373503,-0.4217471866022554,-0.6193706713044203,-0.49223129735621046,undefined,1496247602651
903d185fccf839df,-0.13036664448444724,-0.7800334321799591,0.5572164952612022,0.5467375394410946,-0.7304194010232418,-2.0383788736410056,1.98809839446995,-0.4742190626549777,-0.3400349392311023,-0.2392251317668703,0.08315708499536559,-0.11855578620897235,-0.8696384803921569,-0.6132408392630347,-1.067601039334248,0.6497788466343568,-0.6975432484406552,-0.7189815156881552,-1.0123846733112543,0.5563000104335964,-0.6400871008060657,-0.437830138850394,-0.5952097474302996,-0.5039223223212747,undefined,1496247604166
903d185fccf839df,-0.23847581976691484,-0.7430514507633214,0.9291774337240764,0.8233817214566747,-0.9929103879085593,-2.029569690930844,1.977608101644575,-0.6015305185872033,-0.338016647412609,-0.4315155525390218,0.10408991735145606,-0.29404665518665474,0.13129456327985742,-0.6104633384490249,-1.0476010232457058,0.5972430673915445,-0.7101915094401766,-0.695650952293513,-1.017268446911683,0.5554222993662536,-0.6302820720176997,-0.4581432531164252,-0.6034426954581973,-0.5041581917052748,undefined,1496247605666
903d185fccf839df,-0.8164438827040296,-0.7113526116367741,1.163965412366176,1.1515238014523355,-1.290753319402106,-1.9871193064522097,1.9444094250087238,-0.8492421514230197,-0.3350665605148113,-0.5395139657146619,0.11216630085545563,-0.3177737461601924,1.5630640040106953,-0.6317575005641216,-1.0433904807558172,0.3264814783481256,-0.7770808480719725,-0.7021865502460949,-1.013140328641253,0.42142502804849213,-0.6613176121943501,-0.46600831284953537,-0.6161785070575247,-0.5280564648515521,undefined,1496247607170
903d185fccf839df,-0.7194228828181075,-0.6508900083742865,0.9285395499810236,0.9106532615029661,-1.1463832742417628,-1.9629022061691355,1.9478834000980485,-0.7737819897267572,-0.34651077597011026,-0.4738973718129076,0.10473646145521048,-0.3181919468850494,0.3271292892156863,-0.6021308683839318,-1.010758837197609,-0.17867042994824825,-0.8518863423087611,-0.7001030117983795,-1.0116500072271757,0.15868135302156053,-0.7230094669123338,-0.47849593863543183,-0.56537108153202,-0.4800015732832563,undefined,1496247608679
903d185fccf839df,-0.6903165690501669,-0.6467808887734406,0.9227973256088019,0.9291108851646691,-1.1108873368168035,-1.9772363443819772,1.960998243065273,-0.682021501860505,-0.33913662597738814,-0.46320964837336587,0.12201958910767885,-0.20211283197300578,-0.7651932932263815,-0.5993533610945346,-0.9876009455311439,-0.21504136056205397,-0.8854616385108872,-0.7058849905330016,-0.9786670409441484,0.022559095505246964,-0.7396004963172119,-0.4832123587448506,-0.598758920682634,-0.49047753064696903,undefined,1496247610172
903d185fccf839df,-0.4574660934120524,-0.687284982099801,1.0153087662118068,0.9796684519349425,-1.002280658704811,-1.9875432281543086,1.9576557654817839,-0.694603304661033,-0.33817251829937983,-0.387889346653305,0.1476128813619336,-0.06903701051551471,-0.6085255124777184,-0.5956500158835427,-0.9823377729404584,-0.34233964597509564,-0.9496009895567766,-0.6710791326910887,-0.9763441003937342,-0.07751540286371171,-0.7452261298945,-0.49254205150228964,-0.511511691049417,-0.5063921305162686,undefined,1496247611681
903d185fccf839df,-0.49211649487826564,-0.8035140540258089,0.6765248982222586,0.7185459529652382,-1.0642108419157799,-2.018042286342473,1.879816130530867,-1.251819752505038,-0.35998067746293494,-0.3619143419995419,0.14232679318599134,-0.05727147351970998,-0.8609347147950089,-0.5780591795532761,-0.9823377729404584,-0.32819541402398555,-0.9525964193583435,-0.6700595284600486,-0.9705017632199527,-0.06793756966149851,-0.7390342438927905,-0.4850887166449202,-0.5076036852111611,-0.5096093258116121,undefined,1496247613204
903d185fccf839df,-0.49350250817648145,-0.831103744323518,0.690560881938913,0.6996087215899836,-1.0439891602938265,-2.006493918063852,1.939886153623557,-0.8475826397521423,-0.34460421663068314,-0.43255310373159617,0.13245334116673865,0.050207245498182666,-0.9479723707664884,-0.5641716949093887,-0.9770746224364744,-0.29788630517914744,-0.9742677105332209,-0.6374765340537569,-0.9465936607479657,-0.027609044416713673,-0.7098000725690119,-0.4815058256365433,-0.4701979246234748,-0.4963540544918208,undefined,1496247614668
903d185fccf839df,-0.6917025823483827,-0.8428440881279342,0.6331399089014429,0.6500851314725395,-1.1435135632776419,-2.0139777628766753,1.9103271396466972,-1.0721346146937838,-0.3209963356932793,-0.34613488417849697,0.11951243853585537,-0.034313585678039576,-0.865286597593583,-0.533619153578344,-0.9770746077120068,-0.21706203376939345,-0.9734542923614267,-0.6452913861364086,-0.9292065861047977,-0.07069389605434286,-0.710922954469106,-0.47699214124378486,-0.4467912786325661,-0.5102362214439924,undefined,1496247616193
903d185fccf839df,-0.3950954259815241,-0.7911866806092751,0.6778009198453135,0.6392239538242038,-1.0613205633945815,-2.0173202218469792,1.9287778585555073,-0.9276480626741989,-0.33634009355265765,-0.4795314099105483,0.07999441509838374,-0.04874024345368029,-0.7303782308377896,-0.535470816470759,-0.9918114806587988,-0.22514444395153593,-0.9719326161410973,-0.6268561865932206,-0.9234552074785303,-0.030396164859903256,-0.6920522202418722,-0.48455626184040873,-0.4668188628597737,-0.515979923006922,undefined,1496247617770
903d185fccf839df,-0.36737516001720905,-0.7659450356900555,0.8149731172552395,0.834818700531347,-0.9876235424595232,-2.013162529667781,1.8820330590408074,-1.2033066244927777,-0.3505662563823684,-0.5034718280697719,0.030988752444454263,-0.03015133065155374,-0.6259330436720143,-0.524360845591656,-0.9918114659343312,-0.1928147184288014,-0.964213899182406,-0.6113911390465794,-0.9341183475420882,0.012411513494235492,-0.6802459460046663,-0.44848179317464665,-0.41321705116760615,-0.48330999742152647,undefined,1496247619183
903d185fccf839df,-0.16363103265244475,-0.7336591523373944,0.8647379605543802,0.8559075370329988,-0.9414407621206337,-1.984030734686218,1.9109056948374168,-0.9584716730239604,-0.41861325709728164,-0.3836978931352963,0.04990052000677468,-0.008462886855470378,-0.8087121212121212,-0.5030666316734611,-0.9244429775141915,-0.04126914593988927,-0.9028560345838443,-0.5972750071633494,-0.8863721091959669,0.11262459719909515,-0.6359831946460476,-0.43577105037571184,-0.42380865531163714,-0.4050366019445571,undefined,1496247620677
903d185fccf839df,-0.1400687893300721,-0.630931469210167,1.1658798260061827,1.1802744283467608,-0.942551620609624,-1.9257834497731756,1.9224426515363666,-0.8065742341795585,-0.4483735358789461,-0.5856244876540053,-0.009362282294389523,-0.0025793822752612308,-0.8261196524064172,-0.46603325079280195,-0.8770744830958928,0.043596387090378996,-0.7727748703096784,-0.5441986056882174,-0.8728962513373795,0.21591736864698124,-0.5935115809172362,-0.43202935546824517,-0.405077226582198,-0.367827111670312,undefined,1496247622192
903d185fccf839df,-0.2038254528061113,-0.5522713717779241,1.2475452098816955,1.2646393970869874,-0.922617939745071,-1.894175674859843,1.8624068174599866,-1.1555556064871884,-0.5074123023730915,-0.608054461941748,-0.013940507679045776,-0.028216214799073065,-0.7477857620320856,-0.4465907709962821,-0.8854955533512024,0.17493599065337803,-0.6693142159127817,-0.4708061199935355,-0.860406944846187,0.32067299767602775,-0.5408572589701292,-0.4086443366440544,-0.37137333791664934,-0.31496254771697957,undefined,1496247623669
903d185fccf839df,-0.22322967348654157,-0.5546194463844057,1.0976125421042713,1.1117842490520138,-0.8707574542408425,-1.8801163865802415,1.842749020332646,-1.2580278990065743,-0.5080046089686443,-0.4175737045066277,-0.06466787087887016,-0.02930163234665005,-0.5563029188948306,-0.3975215942656996,-0.8423376087850261,0.3386052066802254,-0.6876015906996229,-0.3940191788297811,-0.8312582305993744,0.44935780802074454,-0.4764607663681302,-0.41177984646825894,-0.35833944038126236,-0.26538277013280653,undefined,1496247625215
903d185fccf839df,-0.23015977448303007,-0.46010991477489305,1.4427765182090937,1.3600423765449636,-0.883326573721252,-1.8723483734131254,1.84882913484453,-1.2080366945626035,-0.5309806169808325,-0.25301649458761377,-0.12399896055719625,-0.0161642972286651,-0.5475991532976827,-0.37437574983202604,-0.8402323485834324,0.4315532064220792,-0.6587877452699953,-0.3594349723278938,-0.8344767634680706,0.528567410252146,-0.4458074885880133,-0.42853162889332325,-0.34645309493843646,-0.2747859096381608,undefined,1496247626670
903d185fccf839df,-0.3008464526920334,-0.4695022132008199,1.2239389369236549,1.1465349988202358,-0.9671550031243904,-1.8384882216532201,1.8076779246782007,-1.4776678672206927,-0.5381127595939347,-0.046048665701161055,-0.1386962996167123,0.07797192897440063,-0.3735238413547237,-0.38455992811724515,-0.8602323573097409,0.5447072316192892,-0.6160722721072464,-0.39033340317894266,-0.8675296980250253,0.5124144436176041,-0.4718635967842798,-0.4160115769393671,-0.35124602278694245,-0.3499183991614682,undefined,1496247628190
903d185fccf839df,-0.3036184447830552,-0.4554138532459066,1.2041604746978294,1.2450358499451257,-1.0371903153936182,-1.8228613547733978,1.9042969961144698,-0.8307361423396644,-0.49860607165589915,-0.25399651208943047,-0.09168156346591548,0.037825483355193056,-0.5998217468805704,-0.41048326041415406,-0.8960218617214044,0.44973864346426057,-0.6648574114794943,-0.3668065171516716,-0.88849914052828,0.541301928594144,-0.4632525509635563,-0.4509928267235791,-0.39788104026963733,-0.39668249133517064,undefined,1496247629679
903d185fccf839df,-0.27589814431333043,-0.4513047482590569,1.1371689582820235,1.1300564203751757,-1.0097480758150152,-1.8247829774302995,1.914997668503089,-0.7476664639874083,-0.5140525713858287,0.1143208246227639,-0.08567647416342987,0.025838775337391328,-0.6650999888591801,-0.37900486173535275,-0.8518113165033664,0.5608720519835741,-0.6580368452704244,-0.3313800299213609,-0.8817262273977935,0.636972469573043,-0.4266013676314453,-0.4440650850005932,-0.30588662769503727,-0.42532570552976945,undefined,1496247631532
903d185fccf839df,-0.42420170524405487,-0.5563804329227853,1.1537574935186865,1.1186537935405036,-1.027388047710373,-1.7893855300028128,1.9519096192494334,-0.48327804442686806,-0.5083026797310939,0.24683350021759495,-0.04408539475280544,0.007629374184652977,-0.5301916221033868,-0.34382317612404495,-0.8970745212711364,0.5325835598166324,-0.6190266931598373,-0.36247478321679216,-0.9006805882339897,0.6703563004179637,-0.43753460806941274,-0.42656702704209054,-0.3146249171498783,-0.44823412258710277,undefined,1496247632670
903d185fccf839df,-0.08047020025408988,-0.5029620096377543,0.702045076546407,0.6562173157982056,-0.8368660811047255,-1.8200220132300815,2.0152774232181883,-0.06353606510846442,-0.5023406851347553,0.21840840745979584,-0.02293956377088007,-0.02150896688580949,-0.29518995098039214,-0.3762273350197938,-0.960232481925855,0.6012842159531727,-0.5155562848794549,-0.46236430480921215,-0.9498191899871102,0.9377195050804755,-0.4195322355496346,-0.4418169098836144,-0.4579918388806511,-0.4908778010128142,undefined,1496247634156
903d185fccf839df,-0.19550930400599734,-0.43662931485003753,0.6159137440586766,0.6156539836204789,-0.873442016008539,-1.7915610402984785,1.9927268380907492,-0.15366539488389983,-0.4983104206238796,0.0013594073560272274,-0.11929309232474755,0.02543753703855766,-0.8696384803921569,-0.40400239496299045,-0.9781272304505698,0.8760868404993337,-0.4064617759304588,-0.44327047946131204,-0.9537024205742015,1.1801372309605502,-0.3603054034020868,-0.4503095917213022,-0.5317701536969148,-0.5216706963299913,undefined,1496247635677
903d185fccf839df,-0.18996528531854406,-0.37147056237458653,0.5463704385337104,0.6131932116495572,-0.8950316953426102,-1.740105815982483,1.8625856351915795,-0.9009666261840071,-0.3736857615650936,-0.5754472083249772,-0.12504387909329648,-0.08885870610016983,-0.7173225824420678,-0.4280740384659352,-0.9854956706050827,0.7043351860256223,-0.429443150862081,-0.41911663328341225,-0.9526738892896911,1.1234093541804462,-0.3649713824099727,-0.4201991623991892,-0.49781171543922353,-0.5184442519389948,undefined,1496247637168
903d185fccf839df,-0.25510801385091364,-0.383797906563128,0.6746107387192015,0.6776482007552966,-0.8919562707257949,-1.7293633653421456,1.7777217936179814,-1.4227238453208966,-0.44216934499604005,-0.6483579285158164,-0.0775353532126446,-0.051817197422968066,-0.6868594028520499,-0.41974156192545475,-1.030758860648385,0.6962527758434799,-0.4222017016971862,-0.46099639123939185,-0.972614800569606,1.0995109672651415,-0.3930697806796347,-0.40805180034661725,-0.5081941400628396,-0.4924976778272319,undefined,1496247638697
903d185fccf839df,-0.30361851379387467,-0.38614596655561356,0.9113131310013078,0.7811988428988587,-0.8719094503006278,-1.7274999746791104,1.75287276235836,-1.5817792379808544,-0.47885612962760227,-0.589364252657524,-0.050772414542504044,-0.10938855792052261,-0.499728442513369,-0.4697366283807302,-1.0349694178627413,0.7609121703595058,-0.4562787691853135,-0.4990003856217778,-0.9621405755558429,0.9758614490525411,-0.4316781591382944,-0.40338661634433776,-0.5778632914949812,-0.49368490142956395,undefined,1496247640223
903d185fccf839df,-0.21629960699546283,-0.6127339896544078,1.2839119532072347,1.2935708220575133,-0.7083565819179982,-1.8775006506590695,1.814168280674001,-1.4097810529615784,-0.39782677190228893,-0.3847364151465552,0.05595949972781989,0.08768610214328759,-0.5693585672905526,-0.42899991523985365,-1.0128641121236703,0.7669739638637518,-0.5070906632977477,-0.46648705090511766,-0.9363993085057082,0.8530742439330181,-0.4352199143973183,-0.4219493695113578,-0.5980316319219746,-0.5051131470739262,undefined,1496247641663
903d185fccf839df,-0.17194711244173927,-0.6755446529093809,1.2188343421575363,1.1661416656109487,-0.789047874294552,-1.9148243801814036,1.9465316805939739,-0.6219907460830801,-0.2840497926759825,-0.0006385539624702011,0.153249201808513,0.06889227101322164,-0.2168560606060606,-0.4178898990330397,-0.9791798752758342,0.39114092939359457,-0.7312900033282769,-0.47063512930725276,-0.930584958232878,0.3302970238317511,-0.5498081435698974,-0.44102443303808847,-0.4683541875594341,-0.49387511770200615,undefined,1496247643170
903d185fccf839df,0.16762652518062712,-0.7001992974444754,0.9489558959499018,0.9504413951114747,-0.5929716334166861,-1.9567087592324597,1.9122968645360117,-0.8482295984903315,-0.2524131603168274,0.20822697666898876,0.3352418172833381,0.05153374438744331,-0.3822276069518717,-0.4058540708061801,-0.9381271835490177,0.3951822192788304,-0.7141760396204851,-0.4490587890467518,-0.9268346675173402,0.29361792661714897,-0.5391240483340729,-0.41938656289052123,-0.5201160700186073,-0.5145493498641454,undefined,1496247644669
903d185fccf839df,-0.045819764282466875,-0.7160487023937528,0.6452622413889391,0.6782649806043881,-0.8038489896782168,-1.9609479742755345,1.9215958679150953,-0.8506321466728434,-0.338430509349446,-0.023075734889711347,0.21359630385664435,-0.05475562181060552,-0.40398702094474154,-0.3947440675501407,-0.9149692845203188,0.18908022260448812,-0.7243471187560664,-0.4427005133178169,-0.9116166032488612,0.19486769518929947,-0.5456372898744896,-0.45731086104669966,-0.5714214599665733,-0.527465638242538,undefined,1496247646163
903d185fccf839df,-0.18303525333287501,-0.37616668235955764,0.7339461253966781,0.7192438004109777,-0.8201518201283575,-1.8206672123643157,1.9100220855874794,-0.7291467188295441,-0.4563223351436404,-0.20815494659251138,0.11084385625354547,-0.1516732655480574,-0.10805899064171122,-0.3345648487111952,-0.938127205635719,0.05572005889303579,-0.7103274919656282,-0.45704463163851294,-0.9249665178754941,0.07657683688051922,-0.575967982964046,-0.4513067163641525,-0.5374286973531048,-0.5232844363824684,undefined,1496247647666
903d185fccf839df,-0.4144996466619543,-0.4289981491024518,0.7766929768374916,0.7997630832215759,-1.0299491822439022,-1.7647980815403188,1.9502554822984959,-0.43454248296475395,-0.41705069558651947,-0.19885901698762432,-0.11165937997015922,-0.07670535183358733,-0.5693585672905526,-0.34752652781042415,-0.9549693166974034,0.07996731770418475,-0.6693158033669467,-0.4352276440085072,-0.9433611336702784,0.0802262699994549,-0.5627199933805438,-0.4798982015708639,-0.5353553101303755,-0.5480064325670272,undefined,1496247649185
903d185fccf839df,-0.3424269551547352,-0.40434346072536886,1.0676259068940066,1.0818229653025695,-1.0181926306709697,-1.7856657353021492,1.88057087626852,-0.8935220727921998,-0.4152953674304249,-0.4440960545838944,-0.11318521980277021,-0.058699909641029495,-0.7782489416221035,-0.32808399621080614,-0.9160219219833494,0.1688740840902458,-0.6635740614877909,-0.43417004323934594,-0.9138205990970918,0.09476240042755354,-0.5575509213993892,-0.4499705023951292,-0.5404751396957443,-0.514723838175712,undefined,1496247650694
903d185fccf839df,-0.2523358837382529,-0.5616636117478663,1.5722930941545892,1.5215423947101931,-0.8571391849042282,-1.8994001582184659,1.8691364855709782,-1.0796142101147157,-0.4324613097253385,-0.49308043032315313,-0.18599309317041185,0.015022362816816088,-0.9218610739750446,-0.346600728741153,-0.9644430170535099,0.22140993399486186,-0.7456145467843523,-0.4237903495929938,-0.927261473317256,0.11555030227814582,-0.5551910640874979,-0.48497343887586974,-0.5554451355318611,-0.5039471719298739,undefined,1496247653354
903d185fccf839df,-0.2883723675135014,-0.46304498976549996,1.5671887535254203,1.4453601682514352,-0.8796648619186046,-1.874183814160526,1.8150282253590913,-1.3952091754536204,-0.44960743552344085,-0.43810818552997793,-0.21560286457489064,0.06452061993489917,-0.8957497771836007,-0.3706724240471959,-0.9844430331420521,0.15675044055231055,-0.7542007569620017,-0.445923987524012,-0.9293115387634299,0.12120153238966151,-0.5665628886327995,-0.4788245503384924,-0.5627634765755218,-0.4975528220389332,undefined,1496247653671
903d185fccf839df,0.04842924351243349,-0.5669467613449549,1.8389816133730612,1.8596135293460514,-0.6723154942858475,-1.8884480748026988,1.8719635253419198,-0.9911528634058887,-0.4894580224493906,0.025360959900238834,-0.17271813040025,0.012511310410270506,-0.8957497771836007,-0.2817923461957826,-0.9897062057327376,0.28606937090797013,-0.6268793334628318,-0.35073984446252415,-0.9005896303715866,0.15141328433423518,-0.5076173449586294,-0.3357372720357665,-0.5059158577342757,-0.3874309518376593,undefined,1496247655161
903d185fccf839df,0.13436210250721986,-0.5569674771488989,1.6954290537109113,1.6076424556174935,-0.6533075274390912,-1.909674431242802,1.9528195343904202,-0.4651715455243745,-0.4296841284491542,-0.08738898212551964,-0.15896481482878777,-0.05617013662018282,-0.7564895276292335,-0.2642014645378051,-0.8886534731025281,0.2638426157158314,-0.6740158069595983,-0.271742703801597,-0.8530602937988165,0.4681593056431082,-0.40304796128813575,-0.3697573484281399,-0.5159010911733819,-0.4173810137768565,undefined,1496247656697
903d185fccf839df,0.09555369565176906,-0.5534453871601707,1.5167857723462774,1.4721476833788394,-0.6360069895215592,-1.9168135495628713,2.0095707507495977,-0.12414021661659293,-0.4131816460897088,0.22191775151826937,-0.08189887426587242,-0.053965938761080114,-0.7303782308377896,-0.2799406962541421,-0.7981270488425205,0.38103793079827725,-0.7050803247865917,-0.23565125686505353,-0.829606983367054,0.4979706971444906,-0.3756592138736775,-0.35341932680036364,-0.4051366057455488,-0.3868586673129272,undefined,1496247658173
903d185fccf839df,-0.14284083317920848,-0.4935698135098006,1.646302348291773,1.6250955906860753,-0.7836375987005908,-1.8832725045140304,1.9764062683676666,-0.3392186526378969,-0.4472369300937467,-0.33178201571010657,-0.07535492293840171,0.0021351580548846457,-0.8174158868092692,-0.2762373186662138,-0.8328639084289196,0.45984167032429946,-0.6659290975481275,-0.2413192393468497,-0.8312652269881738,0.5555916807045348,-0.3658594014522178,-0.3365920693246813,-0.3448443767249049,-0.3082367747781452,undefined,1496247659684
903d185fccf839df,-0.23293173206864212,-0.5305518022334366,1.5901573968773577,1.590483615137877,-0.799282142557753,-1.8573014877885088,1.9701052519361182,-0.35785103169495125,-0.4015876429874853,-0.1753541215470255,-0.12528969996907124,0.008903883665129068,-0.8696384803921569,-0.2160580998272683,-0.8349691686305132,0.5669338172230988,-0.5658266255768372,-0.201966327169436,-0.8210848671259061,0.6570982311074962,-0.3271678109815461,-0.3342398630697711,-0.3387571908684111,-0.29587646016818236,undefined,1496247661183
903d185fccf839df,-0.058293883966408645,-0.5053101280862246,1.708827153684513,1.731920833641886,-0.6018070430096462,-1.8390705324461882,1.8847286060197619,-0.8384355420419958,-0.43141047687148,0.05813267111891953,-0.0874789205653909,0.0907193294340606,-0.8130640040106952,-0.2095772861792029,-0.8391797111204019,0.6841291323055446,-0.5746123274403325,-0.21271333249031016,-0.8590635570905772,0.6523247103401478,-0.3429152313411055,-0.441283214607885,-0.34416793274258195,-0.3209598566846535,undefined,1496247662665
903d185fccf839df,0.0803075493713958,-0.6209521996281072,1.734985724025613,1.7501712424710292,-0.6137795954427051,-1.8558899687509087,1.7522626416696634,-1.7316951593781775,-0.38377358929569777,0.1972456888110348,-0.07610155675983273,0.14651362221249042,-0.1994485294117647,-0.17902476427432004,-0.8012849096959758,0.6174490645821792,-0.5327038158262967,-0.14734468838379022,-0.8469520768941623,0.7590667330160474,-0.2898273685212655,-0.45961606496401614,-0.3091514234267138,-0.34174495955686435,undefined,1496247664210
903d185fccf839df,0.3076140408274668,-0.6526510679826468,1.9442535243435644,1.9420507870609782,-0.597281342102228,-1.8958830060952596,1.8051217494264065,-1.4278586652949263,-0.3408868632930317,0.7445599221493282,-0.07985966426815888,0.039094897904812694,-0.1994485294117647,-0.04663049836956939,-0.8612850094972391,0.7386855847556962,-0.46063564043763067,-0.08500952562200426,-0.8728262834488268,0.7614072972085261,-0.2611845530857649,-0.4314556796727825,-0.24354055484564235,-0.296235929272937,undefined,1496247665666
903d185fccf839df,-0.06522401946830687,-0.6262353346111997,1.9544616973280036,1.98056353202208,-0.8235769614512637,-1.9078879045103692,1.8711851035166804,-1.0746401856470442,-0.35695403345027704,0.38157885951431386,-0.10417729117336824,-0.0035984036042585347,-0.45185773172905525,-0.038297995927539845,-0.8770744830958928,0.5143980662450081,-0.515287715127005,-0.07437651258416662,-0.8425230958233227,0.7017999143743832,-0.2618319084852211,-0.4500004260084792,-0.3506950659193713,-0.35713178572536675,undefined,1496247667198
903d185fccf839df,-0.2828283143206384,-0.5499233263994346,1.901506672902751,1.8254872227553685,-0.8856100010924767,-1.8658381482186028,1.8937304321797575,-0.8895115326460157,-0.45204597316104883,0.05516432685592065,-0.24751614052480295,-0.12501216799977918,-0.49537655971479505,-0.02348464098512126,-0.8665481452767556,0.4032646294609729,-0.531508255266573,-0.07430685229657506,-0.8589376142317634,0.6877565350890779,-0.27527535632118366,-0.39598873896907993,-0.24289956042766403,-0.3585786327211443,undefined,1496247668672
903d185fccf839df,-0.3521290482422455,-0.44543459827784304,1.8249453755194576,1.7731712297049809,-0.8822568593387587,-1.8285842976278286,1.8791928686812658,-0.9429793477059873,-0.5142770366612367,-0.3382466173892498,-0.2699594889013581,-0.04544478483122248,-0.9523242535650625,-0.07625718235285747,-0.8633902696988328,0.3446670001844715,-0.5485562142598125,-0.1125261670906556,-0.8621771377471867,0.6278411872500791,-0.31126955760122393,-0.37283605530762676,-0.19131599815007405,-0.36418377941296143,undefined,1496247670163
903d185fccf839df,-0.2980744260956019,-0.4413254932909933,1.740728202534784,1.6338293912928528,-0.8152249731034145,-1.8281720228176674,1.960580106933358,-0.39749936603282504,-0.5550469355800923,-0.13782719832648638,-0.2373146251101004,0.0018653467187151726,-0.7738970588235294,-0.014226313572271464,-0.8507586864025696,0.4477180267863642,-0.5458072466693143,-0.144653189419295,-0.8689010727305229,0.605852204554556,-0.32987229416265434,-0.38234323067906145,-0.1723365334675625,-0.3766595200888287,undefined,1496247671667
903d185fccf839df,-0.23015973997762035,-0.510006277299188,1.6252478644428925,1.4506685921714362,-0.7874330179330108,-1.7774505093196493,1.879111342678849,-0.8459549574275659,-0.5243986977089405,-0.43803106879220843,-0.1830008290717565,0.004244679187529479,-0.7521376448306596,-0.17532143848948994,-0.8728639553304717,0.5810781339683735,-0.5603111347382436,-0.18259385437598044,-0.89620262824525,0.733998066400794,-0.33010902408389753,-0.4156247813852346,-0.3158462332889272,-0.43538789668050604,undefined,1496247673159
903d185fccf839df,-0.1927372774095658,-0.43780340330226497,1.1020782365795392,1.06630842630152,-0.7528833583719592,-1.7048411346834778,1.8090112334629866,-1.201047132288203,-0.4196468285830105,-0.3214815551700296,-0.07795989338328987,-0.10585039609641955,-0.5084322081105169,-0.24105563305490604,-0.7181269255904812,0.6659435539397556,-0.5120765011137006,-0.2951492632733544,-0.8400182368443615,1.131616726693764,-0.3008976017768984,-0.43060044626976746,-0.32096034403173856,-0.2079927173791829,undefined,1496247674666
903d185fccf839df,-0.25233602175989184,-0.3397717524760316,1.1569471663708994,1.1111255748905144,-0.7626033466925151,-1.732976014448041,1.961871330482551,-0.23858002334748749,-0.3928586201975183,-0.41841082198012475,-0.04413917232830672,-0.07503021920246636,-0.3038937165775401,-0.230871480671236,-0.7297059008726489,0.7548503485905381,-0.4057471854087991,-0.22346667254874159,-0.8372684901881786,1.5703954236411217,-0.1847981791321283,-0.4698934400540409,-0.3665833853500396,-0.23312314916179572,undefined,1496247676222
903d185fccf839df,-0.19135136762757926,-0.3356626474891819,1.0727299933862262,1.083197488819091,-0.7875770193979937,-1.746266653199533,1.9298718515587754,-0.4633907697986193,-0.3620101630718929,-0.37942848108735017,-0.050897968926962446,-0.09597097711116605,-0.3517644273618538,-0.25123983724167426,-0.7286532560473845,0.8781074854419516,-0.3667115774156312,-0.2349546327228038,-0.8353793513371146,1.5464046457704308,-0.1929588950328723,-0.4698228401162816,-0.35028121804234724,-0.24243982153275812,undefined,1496247677740
903d185fccf839df,-0.16778907254709202,-0.3884939680921144,1.329210339620259,1.1925628822385903,-0.8336878029204118,-1.7533498709707396,1.970352456604266,-0.26099014063779047,-0.3791869030811462,-0.17720261197955287,0.07617232539070995,-0.09104597039838776,-0.6520443404634582,-0.2364264563977066,-0.7423374915311458,0.9104371826999647,-0.39146274152247534,-0.2561636607385063,-0.8352953891355808,1.7054551875869788,-0.16517144967756428,-0.49637471512699777,-0.4031714982643947,-0.256117421207992,undefined,1496247679168
903d185fccf839df,-0.3715331309010368,-0.5299648164633075,0.7371357982488912,0.6192219103723751,-0.8297175231733832,-1.7983740645363957,2.0121952998439254,-0.0682829639495186,-0.3103719566690639,-0.4302267025376724,0.07194793035582216,0.056831259877051635,-0.5911179812834225,-0.3623398698020682,-0.8012849244204434,1.165033753526048,-0.2636899491363761,-0.3758879597581448,-0.8538999097582644,1.5653601322494324,-0.24766165149720476,-0.49478880054826735,-0.32594903946792775,-0.23335546827516665,undefined,1496247680660
903d185fccf839df,-0.23708973745787962,-0.2646338034885017,-0.12098963273484546,-0.22484855642735527,-0.7169657069443122,-1.6253791389796184,1.8730601544337817,-0.6927915241554177,-0.16895930290667083,-0.6135588748466417,-0.0435053001166964,0.010080281944184744,-0.7086188168449198,-0.4086315716201899,-0.7844427912720577,1.0902713038852616,-0.2752943512848563,-0.44694358794028927,-0.8429219143491465,1.363070754798511,-0.3179946126746005,-0.4863041985843182,-0.26103025687498566,-0.21993853637154936,undefined,1496247682159
903d185fccf839df,-0.327180670852723,-0.30865986989162103,-0.3219631654344654,-0.425647525029195,-0.870695731436366,-1.5917658874620197,1.8535575099494257,-0.8071779096792805,-0.01570213630683363,-0.6759379584593028,-0.06128108661053134,-0.011956536392748665,-0.7129706996434938,-0.3410457271131333,-0.8833903078740764,0.8942723340709581,-0.3221440839597055,-0.42752044946026146,-0.8914797823593533,1.0527458825752023,-0.3795331568909737,-0.4767597922486269,-0.22878879232551244,-0.2693558350734493,undefined,1496247683670
903d185fccf839df,-0.2634240246293887,-0.49122176813131124,0.03978960004396955,-0.11868710146933355,-1.0526291437496045,-1.5706979185521102,1.8471854924906856,-0.8613196603723585,-0.04810514247174571,-0.6843451834866235,-0.07632264833329853,0.06584548614887441,-0.8261196524064172,-0.3567848940755976,-0.9391798430987497,0.3749760807645881,-0.7104735891559106,-0.4922558010372152,-0.9123792566804364,0.7138107079478374,-0.4782617672270692,-0.5008112321779946,-0.3848561832394979,-0.46428709581240657,undefined,1496247685141
903d185fccf839df,-0.4851864283871869,-0.7213318812188338,0.139319286642251,0.10741528302021783,-1.1904883443430285,-1.7141650785880416,1.9102193161334053,-0.7642277365926674,-0.3368974676321796,-0.6071396628634991,0.01923457236074421,0.022478307305500093,-0.847879066399287,-0.31512234948851353,-0.9076008517280397,0.6235109146158684,-0.6849729570000541,-0.5540589979530235,-0.9048436907300809,0.8764028939536691,-0.44513332080125895,-0.520737460965184,-0.7321561795597998,-0.6263622390873067,undefined,1496247686642
903d185fccf839df,-0.6029976967571647,-0.8041010544099341,-0.0067855704029580795,-0.062308766808559006,-1.2425853991666957,-1.6993068631934025,1.8971465521166426,-0.8442464284837217,-0.3779310585164883,-0.6325826988062746,0.01981241805311578,0.03532387040188217,-0.847879066399287,-0.42622243385200564,-0.846548143912681,1.3408266978849952,-0.41908061695531446,-0.5988962387349519,-0.7869964041248918,1.9108396613634917,-0.20663052059919942,-0.531862846217272,-0.9057029388054454,-0.38832136596263267,undefined,1496247688193
903d185fccf839df,-0.47132627815232453,-0.6414977245623558,-0.14204386244677644,-0.17729397320815968,-1.335907530661311,-1.6425945460845646,1.8853255672159228,-0.8339101232219579,-0.4283893636590206,-0.5068103422309767,0.0345329686517249,-0.04265356797205101,-0.8130640040106952,-0.651200038639127,-0.8833902784251412,1.8075870023602236,-0.4316372830280457,-0.7442372949296411,-0.8541517952801462,1.563358342284178,-0.35993344791286774,-0.46598917307876603,-0.7722267633347841,-0.10213249727077565,undefined,1496247689648
903d185fccf839df,-0.5558732101124195,-0.4554138532459066,0.3543293113324241,0.4444481433813417,-1.2672402129533802,-1.5584833880121165,1.8282009213837112,-0.9818843286851986,-0.5036857400579143,-0.6014812846293317,-0.025403565516785485,-0.13573927264749353,-0.27778241978609625,-0.4752915782056517,-0.9476008839051242,1.1953428341061645,-0.2653315642395153,-0.5424127147849863,-0.878451719760699,1.0800627313261346,-0.39348023029310875,-0.41956698419442995,-0.7295761630068689,-0.04753871803867827,undefined,1496247691140
903d185fccf839df,-0.46578224221216635,-0.22412968093414892,0.903018609246027,0.8036057335621557,-0.9457401798457662,-1.7122667490508787,1.9054777689657116,-0.6055885174828607,-0.565585795248915,-0.5599165220416666,-0.17683681561652326,-0.05381416390245042,-0.5519510360962567,-0.27994065740181845,-1.042337865379488,1.0680446052225658,-0.22841011387357626,-0.39090970236023853,-0.9401356049021475,1.2108109244486047,-0.3022446439855702,-0.3583723824001393,-0.38482960124761295,-0.20993302040615028,undefined,1496247692647
903d185fccf839df,-0.20521139709350758,-0.5951234812547815,0.28287159216745145,0.2562962094336216,-0.9280899244399397,-1.7803061549562578,1.938032124897577,-0.5609347464359097,-0.4473077276393234,-0.4118345711460247,-0.08348994395886326,0.0820038945186507,-0.5301916221033868,-0.2521656233601709,-0.9054955768019785,1.666144428466629,-0.38463605932770656,-0.31137426262174944,-0.8751422281365089,2.0736320209809254,-0.05973201710367318,-0.36323653154205476,-0.7726806863974593,-0.4737266651296077,undefined,1496247694145
903d185fccf839df,-0.37291924771548174,-0.6432587695567199,0.36772741130602576,0.3263692349019655,-1.022101191746598,-1.7467860733081828,1.910466496708552,-0.7159457587267324,-0.4232595754181083,-0.44347663911165663,-0.06206980538725467,0.08641202783820694,-0.5345435049019608,-0.33919403831916917,-0.9412850885758758,2.2763681213663998,-0.25903293887903023,-0.3767239078972373,-0.8972731407192246,1.8765781176068914,-0.126437097396786,-0.39753186366711374,-0.5617536193399812,-0.3143678331314567,undefined,1496247695722
903d185fccf839df,-0.6140857686374811,-0.36325232317289474,0.481293335757911,0.45617931045217264,-1.126418732491106,-1.5962240523533704,1.8776728359941472,-0.7081489849599492,-0.4905248196782092,-0.5361049721511905,-0.07015217822861358,-0.00789703721214771,-0.7260263480392157,-0.472514103293191,-1.0412852279164573,1.4701455717112117,-0.3674716678890182,-0.5441986046362509,-0.9489026082699815,1.3240819041081144,-0.35269684402256374,-0.42433007739292744,-0.6511759055579753,-0.5027831011216288,undefined,1496247697152
903d185fccf839df,-0.7707054093575,-0.5769260163130184,-0.08015694079708897,-0.25482390742468625,-1.2392939759403405,-1.4942662643242086,1.8239064596602301,-0.9742201682324991,-0.33298298906227586,-0.6710623857445416,0.04278706149745896,-0.08496606855054557,-0.5432472704991087,-0.5336191600537312,-1.0065483167944218,-0.0230836382359041,-0.7404507238454255,-0.5922783139928538,-0.9443966617473143,0.12552850451250397,-0.6366838243515517,-0.40065051689478853,-0.5215572958229485,-0.44200664572115334,undefined,1496247698653
903d185fccf839df,-0.5849794548695405,-0.7841425444738069,-0.2524201140464486,-0.26715914260192125,-1.1644963895892517,-1.5968739108838717,1.850346515206466,-1.002878940256233,-0.2710494946863269,-0.5519388713274789,0.0797699424146893,-0.06544450391122973,-0.8043602384135473,-0.6697167387925375,-1.0739168273012627,0.01126667570000526,-0.8838910648369886,-0.7094124396187157,-1.0480754055687165,-0.07271108614783238,-0.7811987898609503,-0.4463254520497817,-0.4187340689880237,-0.45278428782588453,undefined,1496247700147
903d185fccf839df,-0.6875445597064402,-0.9667043842575125,-0.5012445846791016,-0.5081601801133548,-1.4875495599568949,-1.6919255049985822,1.9002681335418385,-0.8965095227569844,-0.25269072239753376,-0.6473979396205323,0.061710302904457864,-0.02509019771895176,-0.9610280191622104,-0.7576709528208069,-1.14233795686555,-0.5868332464705831,-0.9512662715284886,-0.8705541904878177,-1.1467514288486615,-0.5234851801886953,-0.9636292136965159,-0.4307034633464165,-0.6386268646438106,-0.5316194899378549,undefined,1496247701664
903d185fccf839df,-0.957817411649085,-0.9485069193157495,-0.6186385740001515,-0.668901726883079,-1.6400350199585576,-1.7075989539065493,1.9382477939221188,-0.6740423070885859,-0.2704011254240439,-0.6896695420737791,0.010209010726953153,0.06663635462597882,-0.9001016599821747,-0.7826684763353637,-1.1791801097835948,-0.5100501518871788,-0.9251235181049747,-0.8967915766027958,-1.1695470389112073,-0.4394558655961285,-0.9669160261499301,-0.45315132327164015,-0.6160500086421407,-0.4879343115541844,undefined,1496247703152
903d185fccf839df,-0.9384131909686547,-0.7483346295884024,-0.4080947520591452,-0.38670265919890306,-1.5238169300871531,-1.690439449010355,1.9179456849947278,-0.7232855595738206,-0.307449176554647,-0.5620354559791477,-0.05363675973321352,0.037189513378995995,-0.847879066399287,-0.772484294812451,-1.131811644814231,-0.451452550875399,-0.9025110247751955,-0.8618400613552828,-1.1436098610464183,-0.3309892163975162,-0.9237810043435005,-0.4429390250255242,-0.5462749670958245,-0.46516543418475464,undefined,1496247704660
903d185fccf839df,-0.9342551683267123,-0.521746518805631,-0.09993489474901564,-0.10200148412703261,-1.437962215264628,-1.7980503009225213,1.9459610195274935,-0.6389865105680506,-0.4044608297402401,-0.5387087838870589,-0.09081694978378779,0.03623222243382589,-0.7869527072192514,-0.7808167843037059,-1.048653638622035,0.48610954581334476,-0.6154271507850354,-0.8595602011109751,-1.104000915083392,0.2806370363251153,-0.787766199416596,-0.42848827919782917,-0.522568748621178,-0.4800838370901942,undefined,1496247706168
903d185fccf839df,-0.5517151012069528,-0.34035873824616064,-0.39852446281775883,-0.41138563988962307,-1.1921134798018895,-1.6818259224959717,1.9060353066791578,-0.7104407134173166,-0.2627664738960945,-0.6383838768212422,0.0046537533583484786,0.025740657445415434,-0.9436204879679144,-0.8058142916297946,-0.9918114953832663,0.3850792206835131,-0.7447118459634126,-0.8153119238363574,-0.95974766542245,0.7429137657487768,-0.630153106493662,-0.47956561042328605,-0.64952661488788,-0.4952081762193264,undefined,1496247707652
903d185fccf839df,-0.762389398579025,-0.6632172210368624,-0.7755889794989536,-0.753448658174838,-1.0849776615297428,-1.4488740504755806,1.7928510838462297,-1.01900035847755,-0.2206796847664011,-0.7254197614679928,0.04404832764757935,-0.00032949844169236065,-0.9131573083778967,-0.8585868524236926,-0.9518114190327791,0.6679641988823735,-0.5752460167493167,-0.8599591765294308,-0.9721670047102009,0.5564847895845956,-0.6895127986468691,-0.4657606023371401,-0.5766047145492345,-0.35257770014113865,undefined,1496247709180
903d185fccf839df,-0.921780996884656,-0.6403237530220977,-0.6677652794192901,-0.7035972394079095,-1.1976574766172159,-1.3604048845557806,1.7806251039744994,-0.9558581231677292,-0.24423429415942596,-0.7570869342644305,0.03707126530034026,-0.0038368547584957243,-0.9218610739750446,-0.9178401944887197,-0.9454956237035306,0.5911811325636908,-0.5811021235332884,-0.9175826306624537,-0.9859367288458231,0.4018382034618564,-0.7481721105442573,-0.45862972734765944,-0.5958789125239667,-0.312818918645591,undefined,1496247710681
903d185fccf839df,-1.003555850490205,-0.17892943839482506,-0.5809958090515576,-0.6844700696930149,-1.1357272935342804,-1.4992787850298697,1.8251371993010421,-0.8754103505989342,-0.28120630747036746,-0.7550575367014742,-0.047744046214308535,0.0475236788241105,-0.7564895276292335,-0.9354310437697608,-0.9728640873088196,0.42751197306628647,-0.7804269948693695,-0.954288372271984,-1.0061854996085655,-0.05574200004683865,-0.8705596343245533,-0.4462081277045796,-0.6114175114336342,-0.19030945992643944,undefined,1496247712154
903d185fccf839df,-0.8580243851667314,-0.5880793597333095,-0.49677787365603593,-0.580721526739694,-1.2556893782899903,-1.684900515041621,1.8528527184310815,-1.0317644645948876,-0.1561366861157808,-0.7814908183542717,-0.061728006152770465,0.023789848488422638,-0.8000083556149733,-0.8909910372209905,-0.9886535609074731,0.027431573792274434,-0.8197630303084845,-0.908735508527847,-1.0446609628579788,-0.3185626702761722,-0.912223371056284,-0.4420443235829879,-0.5947213329217836,-0.30271772439803546,undefined,1496247713652
903d185fccf839df,-0.9495013146070856,-0.8181894143648474,-0.5663214333179516,-0.6211532204606093,-1.5076375255688406,-1.8364641128150327,1.8980696000383597,-1.0898330476332965,-0.2762095840776276,-0.6520074735158511,0.028524748003665435,0.08878525412624945,-0.669451871657754,-0.8706226612243905,-1.0939168654765064,-0.3564839485880096,-0.9284811241237597,-0.9030865225350735,-1.0719275343733763,-0.5143693016691768,-0.9567810717800057,-0.4344460927770343,-0.5767851911033299,-0.35223182843051104,undefined,1496247715168
903d185fccf839df,-1.1158230570409673,-0.8416700727456876,-0.6677652794192901,-0.7316630392337489,-1.755615394082918,-1.921134288321512,1.911058208249242,-1.1087357916585288,-0.25516140443695506,-0.6937493006267896,0.033485541602572666,-0.0028416739231979667,-0.678155637254902,-0.9095076985220774,-1.1433905980096974,-0.6999872787339735,-0.969441482212721,-0.9215090559472934,-1.116924024894956,-0.7239421425507347,-1.021136626501696,-0.42758367070000003,-0.5537181575657996,-0.34261440183883796,undefined,1496247716710
903d185fccf839df,-1.1615615390138492,-0.8663247026667859,-0.6990276821156601,-0.7426028808319656,-1.8387443985760887,-1.9464764112727533,1.9163441184487795,-1.0976220348146235,-0.24988059127967044,-0.714007015887491,0.025158915594786727,0.0335337192326034,-0.6346368092691622,-0.8993235299499391,-1.1465484993554387,-0.7020078883456895,-0.9661929410888257,-0.9251314997086149,-1.1112076303781253,-0.7230336341617054,-1.0217985256174558,-0.4271315671977776,-0.5505133559431503,-0.34634172196644913,undefined,1496247718572
903d185fccf839df,-1.2558105295560447,-1.0077954633540018,-0.7717611687667383,-0.8301623451895302,-1.903894002491455,-1.9948896484209204,1.9531798127510918,-0.903530284829408,-0.2629837107788992,-0.7032255168391182,0.047477727798908374,-0.17696122700216504,-0.6302849264705882,-0.9354310372943736,-1.1749695893804075,-0.8616358710167441,-1.0208097959577853,-0.949810980975798,-1.1530835434628042,-0.8874120409297536,-1.0780019453722176,-0.42501761568339635,-0.5577705773894915,-0.4520834577512454,undefined,1496247719657
903d185fccf839df,-1.3001630154834158,-1.027753973290129,-0.831096047170316,-0.8720724513768582,-1.944512221126636,-2.017760448326893,1.9749782772304931,-0.7860943002047153,-0.28052778707469217,-0.6819930676158039,0.0788416729503416,-0.6032166733311052,0.21833221925133692,-0.9706127293810686,-1.2118117441390106,-1.0010578317655328,-1.1110611274562356,-0.9781002402387546,-1.176550847014721,-1.0030081711642729,-1.1201374819554197,-0.42036311126984605,-0.5640578595689746,-0.4530370518616268,undefined,1496247722491
903d185fccf839df,-1.3084791038990629,-1.0389072582544354,-0.8368385256794871,-0.8957250014500455,-1.9532859203263522,-2.025360755694074,1.9724615537445012,-0.8102888800462961,-0.2837180853915858,-0.6791142278535561,0.08101375855526756,-0.6497079687501497,0.553427194741533,-0.9687610664886536,-1.2223380727553554,-1.0050990474558745,-1.1042069398747778,-0.9795694831552995,-1.1799862811307016,-1.0120470588027906,-1.1234620249186091,-0.41918530012404726,-0.5626408633582792,-0.45204932217636434,undefined,1496247722668
903d185fccf839df,-1.2946189536642003,-1.0576917966503045,-0.86873881211891,-0.9194269072864806,-1.9585830539570739,-2.0280021120221123,1.9801484865528478,-0.7617559617338491,-0.2835975079373907,-0.6736058588723493,0.08003457392519273,-1.1240250713218778,9.818585672905527,-1.0169044311991904,-1.225495959376629,-1.1202736857978908,-1.203050027676822,-1.0127604409242175,-1.1906284304741275,-1.0598130364156237,-1.1544142140724476,-0.4136974258390622,-0.5523210594100496,-0.44521720161813094,undefined,1496247724169
903d185fccf839df,-1.2793727901311223,-1.0571047816521832,-0.8540649446592029,-0.9024189828907353,-1.944584220689823,-2.028067330772763,1.9846980517825645,-0.7299203103473888,-0.28198305225811426,-0.6739114470402245,0.0801876681680968,-1.2306505601843263,11.084983567290553,-1.02894025942605,-1.2276012269404566,-1.126335518166129,-1.2034582485422554,-1.0162182282385135,-1.1923776331749456,-1.063986015118105,-1.1573216685354117,-0.412963678818554,-0.55161876539107,-0.44500569338076473,undefined,1496247729789
903d185fccf839df,-1.2364063261283194,-1.0394943024805492,-0.8559785958883611,-0.8810165611909289,-1.8690974909387144,-2.010341820514227,1.981650109044438,-0.7275990321432387,-0.24292089353112895,-0.6832760278525472,0.07705891817825808,-1.258432236807706,12.403604055258468,-1.0668994652775294,-1.2476012614345833,-1.1283561136454843,-1.2419966697108378,-1.0418476513396753,-1.2027958845397326,-1.0607523415878473,-1.1755749458579021,-0.4200301586130372,-0.5500402071382174,-0.4443366584112346,undefined,1496247730183
903d185fccf839df,-1.1477013887789869,-0.767119051072302,-0.8464083066469746,-0.8826955113421739,-1.7927776185291773,-1.9070796591536772,1.932349145276922,-0.962892265655188,-0.23765462364672102,-0.6739651287725086,0.07182490810541652,-1.2016643108956426,17.02530358734403,-1.0983778105343858,-1.2770749815603488,-1.168768284681263,-1.3164243695848783,-1.1273360584892596,-1.262023889008414,-1.212196052107819,-1.2620930100364838,-0.47269461556627285,-0.6702324534292958,-0.5239635559567652,undefined,1496247731723
903d185fccf839df,-1.168491622757633,-0.9226782009424237,-0.8642726093697431,-0.901800346227581,-1.7394565645196098,-1.844548902570141,1.9267844748627168,-0.9467921949286249,-0.2678233483543454,-0.6748249291077176,0.07609369257600837,-0.7260308622189519,12.4819379456328,-1.1104136468554795,-1.297075001330008,-1.1526034325191665,-1.3356448842700102,-1.1412495355879262,-1.2755907055307394,-1.206806596309317,-1.2728985559178014,-0.47403171500617836,-0.6716933460540461,-0.525426549864933,undefined,1496247733159
903d185fccf839df,-1.1435433661370444,-0.9766836392255761,-0.8610826823805806,-0.8976608855667607,-1.638749303117522,-1.8151166350358905,1.9316969519228941,-0.871415903707753,-0.2718463090419083,-0.6144252157418995,0.07151555593871105,-0.17566565113529023,-0.6607481060606061,-1.100229481521035,-1.2612854803533187,-1.1142118604958329,-1.2964404821213262,-1.1306101903649344,-1.2555098583330269,-0.9297577659070415,-1.2013446579989417,-0.46877437113977005,-0.6309221093605917,-0.46448568014165936,undefined,1496247734687
903d185fccf839df,-0.7582313069262632,-0.8798260476235777,-0.8094039337153323,-0.8555559833477374,-1.3918308614164114,-1.8112943527749292,1.948151646336471,-0.6958413177891024,-0.3500841887112671,-0.606676232656568,0.07233492038706033,-0.08656185735140802,-0.9001016599821747,-1.0641219644635196,-1.2191801640473807,-0.8131412968650031,-1.1269315925644081,-1.095323028299703,-1.219805132368173,-0.3820812541611297,-1.0481212195458978,-0.46677963497915953,-0.564562033990648,-0.3749701191621841,undefined,1496247736168
903d185fccf839df,-0.7291250104110275,-0.7665320360741806,-0.6652127278992814,-0.7525921394902223,-1.3451543673235982,-1.8313164932202983,1.962123807327888,-0.5976986570719965,-0.3267248020960834,-0.6031654856803766,0.008597931573427961,0.006613447532155115,-0.9653799019607844,-1.0048685964969435,-1.1991801387560461,0.2739457061714937,-0.6283461804964976,-1.0327218804583966,-1.1961629080916762,-0.11776694110464114,-0.9566131955027283,-0.44564832312522473,-0.46217889384738403,-0.3447843231999282,undefined,1496247737740
903d185fccf839df,-0.561417194294463,-0.4906347823611822,-0.03613381359627113,0.02401188999626667,-1.2039523163309682,-1.8001070182680359,1.9073502042208939,-0.8612320448225542,-0.4059710394992177,-0.5323012440450358,-0.10235298424893571,0.024802724796586215,-0.7086188168449198,-0.9011751960800478,-1.1276011188893684,1.4842897330005178,-0.22929704845315338,-0.9359418352690795,-1.1484516545339856,0.4620153258427282,-0.7788610818638787,-0.41863297168576025,-0.3446050644931369,-0.3050252653343316,undefined,1496247739194
903d185fccf839df,-0.7291249759056178,-0.4043434899533612,0.9151409417335231,0.8520947607870721,-1.3092264253136403,-1.8489232150906587,1.9485592653495751,-0.6173298820663843,-0.36222370898726153,-0.5516214349559339,-0.2156108861645781,-0.027935586607030383,-0.7651932932263815,-0.6428675426724847,-1.0549694376324004,1.264043603301591,-0.4866733477605006,-0.7618872111953455,-1.0572832089943938,0.8831628083947957,-0.590037159606936,-0.39366007271688774,-0.5269724032942528,-0.4305617365625949,undefined,1496247740648
903d185fccf839df,-0.6681403562787149,-0.5493362675593247,1.028069236579305,1.0136761493251705,-1.2431613908089247,-1.9052838165951267,1.9638384339485762,-0.5838781927680821,-0.3943934495657491,-0.6917931973092898,-0.12318449572878455,0.0679730785767386,-0.5998217468805704,-0.5965758667559121,-0.9939167334981586,0.46792405224172035,-0.7797997297525282,-0.6143992862745941,-0.998286100024807,0.6686162653126858,-0.5614827201607208,-0.44481999845437475,-0.5974153537318427,-0.5358176169140025,undefined,1496247742166
903d185fccf839df,-0.6321039760196956,-0.5645987159664655,0.7333077333797265,0.7226441812431804,-1.218403719941827,-1.9111371938521593,1.967017866859885,-0.5804398954813601,-0.3972553435371982,-0.6507397558620812,-0.01244091630036835,-0.06161709475517392,-0.7434338792335116,-0.588243351363108,-1.0128641415726054,0.04561694723883231,-0.8820748875733555,-0.605533164567042,-0.9859577196026573,0.07796269899003164,-0.6816128778505317,-0.4235975364609584,-0.53966084101903,-0.47589720215180464,undefined,1496247743648
903d185fccf839df,-0.2634240246293887,-0.5675337617290801,0.45960096816597784,0.4727127738181875,-1.0165777763459587,-1.9339660663513563,1.9839879985622493,-0.45434462982851875,-0.4839639390712192,-0.8123752988092431,0.041848986247087425,0.013055013654042573,-0.8913978943850268,-0.5956500158835427,-1.024443087405838,0.03955526679347237,-0.9351736455298207,-0.6546071456325256,-1.0075918590596744,0.3370261463226523,-0.6409163004501948,-0.44773312145260064,-0.6271465616933788,-0.4079132240774198,undefined,1496247745161
903d185fccf839df,-0.36321708561715205,-0.5211595768774905,0.10167652169365701,0.10222216127546827,-1.1612049642383429,-1.9394467659460233,1.9486933690896338,-0.7361257275986515,-0.4300606117039705,-0.7524131005797062,0.06184193792452987,-0.008191567511568737,-0.8130640040106952,-0.6382383789660598,-1.0223378272042443,0.263842700509996,-0.8446802831731252,-0.6735299806983195,-0.9875389992889805,0.5938414200681608,-0.5793600041593506,-0.4511878229149181,-0.6701205692095656,-0.41673701452968925,undefined,1496247746662
903d185fccf839df,-0.6875445424537354,-0.7477475707482925,-0.2868724437319812,-0.3428661588905552,-1.2263957134025043,-2.017094284215361,2.013744259845383,-0.399743993014488,-0.3802019362551098,-0.6555163846111173,0.07869026032763131,-0.0007035465555265518,-0.847879066399287,-0.6493483822220992,-1.0254957175066348,0.6841291605702662,-0.6924923304539872,-0.7741351242342015,-0.9976703817564964,0.9219206964850735,-0.5508040432865434,-0.41929775771854383,-0.6577588202513822,-0.39094469872743165,undefined,1496247748197
903d185fccf839df,-0.6833865025590882,-0.623887260004718,-0.47636203596105653,-0.547923165468559,-1.2154825870542227,-1.9623035898304728,1.9662184097495021,-0.6767125667818716,-0.32402100378742565,-0.6103655225605842,0.050034952254104766,0.024834413111694723,-0.847879066399287,-0.7252667550727344,-1.0339167951241783,0.6517994350475316,-0.7614361419813864,-0.8242730381709505,-1.0025121746445915,0.9782636064344635,-0.5629182048207213,-0.44018059600345866,-0.6388981824170855,-0.3890996009303988,undefined,1496247749679
903d185fccf839df,-0.2689680778222517,-0.5916014058800493,-0.4833797736824343,-0.6137973211388621,-0.9728635660870286,-1.8992487539939023,1.920867412879426,-0.8530093945042111,-0.22523000195794857,-0.7081643934144095,0.04215700627474325,0.04225309627583032,-0.9262129567736186,-0.8224792835630791,-0.9991799134510778,0.8781074571772302,-0.628851305434679,-0.8780777281579092,-0.9916321344103524,1.3654729170807136,-0.500285605651689,-0.43281542940770473,-0.48247270805845077,-0.3210658826960153,undefined,1496247751185
903d185fccf839df,-0.2606520325383669,-0.5863182270549684,-0.3251530924236279,-0.3660276296608444,-0.7033988742690197,-1.809195707533371,1.8909033945038598,-0.8859997200075589,-0.37554999750524143,-0.802585894404597,0.015080448287978786,0.0011098875080913868,-0.9218610739750446,-0.7872976109025459,-1.0370747001510363,1.1710955752950156,-0.6059001821733968,-0.8660578014513225,-1.0071930414085903,1.233693020480213,-0.532691304306449,-0.43578946512759065,-0.46828610827269124,-0.3481575763675244,undefined,1496247752671
903d185fccf839df,-0.39509539147611433,-0.35268602397871746,0.6312260035353353,0.6252407144498537,-0.6041727550129328,-1.801688570724314,1.9154421120973366,-0.6367879116226455,-0.4302981856406588,-1.1017209821181915,0.0014122818607635859,0.019753461863890476,-0.9218610739750446,-0.7771134455681012,-1.0107588850521287,0.5992636275399978,-0.597988728851236,-0.8327655164451497,-1.010425566889725,0.8208760958241397,-0.6225241131592409,-0.41917938882212336,-0.4891756357432657,-0.3526915200497694,undefined,1496247754163
903d185fccf839df,-0.2592659502293317,-0.3644264116251222,1.0644359799048442,1.019683552811153,-0.6788057725400126,-1.8140265514389178,1.8857647491081992,-0.8455777981088866,-0.5436517047184475,-1.1769402162787506,-0.025418541312014546,0.04326759864579208,-0.9523242535650625,-0.7252667485973472,-1.0623378777869132,0.23353356340043635,-0.7119765813345811,-0.7818613151994931,-1.0266161869158006,0.5722527963484374,-0.6736867362275549,-0.42238140714218303,-0.4134324035279272,-0.3519888289273273,undefined,1496247755662
