UUID,iqrAccX,iqrAccY,iqrAccZ,iqrAccXYZ,meanAccX,meanAccY,meanAccZ,meanAccXYZ, covarianceAccXY, covarianceAccXZ, covarianceAccYZ,pressureDerivative, pressureIQR, iqrGyroX, iqrGyroY, iqrGyroZ, iqrGyroMagnitude, meanGyroX, meanGyroY, meanGyroZ, meanGyroMagnitude, covarianceGyroXY, covarianceGyroXZ, covarianceGyroYZ, class, timestamp 
903d185fccf839df,-0.18303525333287501,-0.34505485823113174,-0.3436552788894491,-0.18636178062767333,-0.9033825356140952,-1.366602987695089,1.838802257397004,-0.45181945714470173,-0.08751227108897001,-0.5246548938261989,0.05378043269886464,8.84278941571745,-0.3626441343582888,-0.28086652770034964,-0.6476005615924186,1.106436152514268,-0.13269122821189566,-0.4746066824888001,-0.6221751605965233,0.9800960264202604,-0.32360417085631604,-0.3464978951607193,-0.3880884016818273,-0.3164321007768041,undefined,1498201533498
903d185fccf839df,-0.2661961374893445,-0.36207835163263663,0.02862409317105248,0.17412304675961268,-0.8445985590597689,-1.2546143093549353,1.6918389701706331,-1.0840511935735355,-0.24911810011110103,-0.3130059257580273,0.06138568433546171,-3.4484222085304626,2.468255626114082,-0.2947540252950116,-0.6654952880304321,0.7790976639311302,-0.5279940565644697,-0.34158639815064124,-0.7254946315241082,0.7428070283682384,-0.34260731860914934,-0.41861695377509756,-0.5975805672441965,-0.31797194473569274,undefined,1498201534890
903d185fccf839df,-0.2287737266794046,-0.2951584664788445,-0.0189073946165554,-0.030941566384962534,-0.6187342765709177,-1.210996101710114,1.7056408147127728,-0.8111026351307482,-0.23161090763484668,-0.25230553728225363,-0.028896138261440624,-2.2774343007590603,3.4778924353832443,-0.30864152288967356,-0.7623374855329867,0.8477982635382274,-0.056256426550448185,-0.47946938326616406,-0.8025595695881184,1.032736363200362,-0.37525553291025854,-0.30049102965480756,-0.33063265973078976,-0.12317051423684736,undefined,1498201536407
903d185fccf839df,-0.1989743372515367,-0.19771391833470947,0.23278793406525905,0.2766652451309426,-0.5497447797712249,-1.3064906343207383,1.761385144414271,-0.6336507315712915,-0.4423729555970014,0.06758874401730279,-0.15137714754283435,-1.7832648460983453,1.249728442513369,-0.3706723851948723,-0.848653389389807,0.33658453347288597,-0.38897810408993033,-0.5218517582953559,-0.872875261869206,0.5718575764522479,-0.5046478895196007,-0.32070340732111674,-0.3487216690755541,-0.12781524710024295,undefined,1498201537915
903d185fccf839df,-0.23986176405431114,-0.026892436969416376,0.6261219170431157,0.5476606862199752,-0.13803525354525809,-1.5068953920543084,1.7690855069968678,-0.8481619814899798,-0.6003428102114198,0.4271044772612405,-0.11636367609848013,0.08263104235248862,0.8450033422459894,-0.2614239961007316,-0.8076007050252243,0.04763762044617177,-0.33580855444145474,-0.4242265688163781,-0.8634906407511422,0.3749958452215486,-0.48824022403683637,-0.28612260282897845,-0.46867918006617265,-0.23653699574731785,undefined,1498201539420
903d185fccf839df,0.20366283642882696,-0.3080729425774767,0.2133285407794346,0.10323752731131972,-0.040876562044593744,-1.777918682355554,1.8592247374611044,-0.7035701865783256,-0.7242589692593925,0.2904111199566422,-0.07119614853422669,-0.022372571558830812,0.549075311942959,-0.3845598892649215,-0.8654955299004264,1.34284728629817,-0.08472728982646184,-0.501157057027975,-0.8804715942067489,1.1946037485046364,-0.33028036724958065,-0.31340486396192163,-0.7613793134369797,-0.329182672945435,undefined,1498201540958
903d185fccf839df,0.0927817035607473,-0.7277890461981691,-0.16182232467260196,-0.1579023143524069,-0.016962316128075517,-1.9381400637401036,1.9283544549602514,-0.5638623404530375,-0.39137804062973064,-0.1392322103548167,0.07190494145978436,-0.156316548901611,1.1757464349376114,-0.40770572722320786,-0.9297061280181756,2.1086574176012656,-0.07461572650887668,-0.5411017953717895,-0.917857758813891,1.4942193222976627,-0.30493251789412973,-0.31053362126362205,-0.626828443853722,-0.34199056280430334,undefined,1498201542410
903d185fccf839df,0.22999702008410677,-0.7043083878173289,-0.024649873125726543,-0.0748305520472471,-0.0002686305648312148,-1.9312292127144504,1.9396731348291538,-0.4069237431512394,-0.5279153460652531,-0.18657631457404258,0.03745892533351242,-0.2180205250458703,0.8754665218360071,-0.16421141580728874,-0.9244429922386591,1.6843300068324178,-0.04378413943754698,-0.3932338956242743,-0.9378826320567741,1.268401114483334,-0.28013226036180683,-0.295551333871514,-0.7694044858200595,-0.43722287224342715,undefined,1498201543916
903d185fccf839df,0.26603350385935526,-0.6561731579713751,0.6931131793219721,0.7141356551628378,-0.11760785781049057,-1.8754276287817333,1.9184874197943909,-0.47986333880007714,-0.6132524220305127,0.28383113599573867,-0.054016156613324186,-0.12277431075553323,-0.5084322081105169,0.006141978244294083,-0.9139166470572881,1.6681650168798037,-0.2558489425997145,-0.19582970777459952,-0.9129949758479552,1.5118967316927345,-0.128330801009204,-0.3475529523160594,-0.9692539223096177,-0.5151844865848582,undefined,1498201545396
903d185fccf839df,0.28405167673616005,-0.4859386039202264,1.9952946434027095,2.112291096148282,0.09623178456751792,-1.84557842822436,1.8740121459064263,-0.5963510223261521,-0.6700225427671065,0.5819954547416796,-0.08755769934891051,0.15188885236521635,-0.7826008244206774,0.13298124252102503,-0.9476009133540594,1.7530307477631228,-0.20821535235786712,-0.13617337850520386,-0.9315645120737001,1.7820624551227213,-0.04950279489881958,-0.3454321758747047,-0.8845799248781664,-0.4825449876546857,undefined,1498201546902
903d185fccf839df,0.3020699876346038,-0.44895668826657137,1.7305197754133956,1.8009711016112804,-0.14263295732272444,-1.8313491047194117,1.9993145240502703,0.1560719377338395,-0.6392634187593476,0.03575263514607863,-0.17935378979834235,0.03158946610550003,-0.8217677696078431,0.08020872705483792,-0.919179804923506,1.631794142795441,-0.23798068992863194,-0.06932915840004501,-0.8983646444393986,1.7106906689469759,-0.049158791619960125,-0.36581446423834646,-0.5568779058922491,-0.6066724551358598,undefined,1498201548439
903d185fccf839df,-0.0915583066398159,-0.5857312997408239,0.7084254387986308,0.57971506014737,-0.6113521691051481,-1.824841210041188,1.9118918868491106,-0.6204512798956088,-0.3652269078894011,-0.4717863405182774,-0.14992956283084655,-0.0030119900011717116,-0.8739903631907309,0.12835209176537468,-0.93075877284344,1.264043603301591,-0.0005468235516102744,-0.08760603283425161,-0.8914098142995232,1.590690582062824,-0.08148857277843792,-0.3836881722709403,-0.3576822574472337,-0.5959739002609366,undefined,1498201549900
903d185fccf839df,-0.7124927128107995,-0.9103508567538823,-0.2690081410092127,-0.25976907200183175,-0.8943631222243777,-1.8707575030015058,1.9176643096419008,-0.8042353836515376,-0.28654449586842895,-0.7795029749640107,-0.11858022247722413,-0.02677072028565826,-0.6302849264705882,-0.14384310456456137,-1.0033904191297975,1.2418168481094523,0.17022844323181244,-0.31292583528992696,-0.9600555261103392,1.1518040884719112,-0.29630174484265526,-0.29300926856012205,0.028583834676361903,-0.42763610470517566,undefined,1498201551408
903d185fccf839df,-0.8039697285146781,-1.0171876740959518,-0.7934532822217221,-0.8300936451840669,-0.899248828911805,-1.9311476875491997,1.9365962815370368,-0.8505031539533697,-0.2675189081049962,-0.735676385493044,0.06296926463103802,-0.012966381842276218,-0.6955631684491979,-0.5178799671897178,-1.0097062365457474,1.1064360677201035,0.08277376891616763,-0.6202065947962625,-1.0330112728523013,0.7128252077085213,-0.5533214880284657,-0.2740449034266154,0.3001214989729776,-0.2500004303441773,undefined,1498201552897
903d185fccf839df,-1.0728566534226314,-1.041255318246921,-0.8808606363325073,-0.9417062006629604,-0.9196865102415843,-1.9214184563315047,1.9247253298467466,-0.9537436382307423,-0.29117149190989483,-0.666551056099728,0.09114066880763795,-0.06289598508798977,-0.6041736296791445,-0.9011751960800478,-1.14128533044587,0.5083362162113189,-0.498379318989438,-0.8769061336827884,-1.1047915550978313,0.21930503185507827,-0.800249669862336,-0.3018219357244012,0.20673488557040082,-0.17219797909664813,undefined,1498201554396
903d185fccf839df,-0.9896957175080473,-1.0594528124166764,-0.8808611446064062,-0.9427309107974126,-0.9703847138789603,-1.9148057455482548,1.9263137332338325,-0.9455726887865079,-0.29176241266302605,-0.6743045464415401,0.09312854759886459,0.0386004187270291,-0.4083389037433155,-1.0650477894343398,-1.2739170765334908,-0.9323571720959023,-1.218715525374897,-1.0721127895781082,-1.2226808216446041,-0.7473015851543393,-1.1350179944049572,-0.4471228326170518,-0.35543121342806444,-0.3844191420366025,undefined,1498201555901
903d185fccf839df,-0.9896957865188668,-1.0342111382694643,-0.8279061201811535,-0.8721781738810102,-1.1103524783622278,-1.9276631455886786,1.9318941772312106,-0.936771211579169,-0.27747884825785,-0.6931037855113711,0.0838373169948881,-0.059629174146435024,-0.5127840909090909,-1.1057844782925141,-1.3002329026757493,-1.0778409369482076,-1.3059240123151843,-1.1310788286566047,-1.2655292913738536,-1.1249792569519668,-1.249896955041287,-0.470859687567339,-0.6616747845244564,-0.5189346769291198,undefined,1498201557407
903d185fccf839df,-0.8926747176221251,-0.9948811333953314,-0.7730369362528438,-0.8324639428030088,-1.257756803396723,-1.9564828216588288,1.9360203404369538,-0.9480280564349283,-0.27640027813547724,-0.6865544825075149,0.08299688220974505,-0.008983360602878266,-0.4866727941176471,-1.1122653162232818,-1.297075005011125,-1.0778409369482076,-1.3245336581474214,-1.1489630609925265,-1.2664318799280083,-1.1293370177671551,-1.2591778706755883,-0.4735165090560745,-0.6704498190909189,-0.5262769142149404,undefined,1498201558902
903d185fccf839df,-0.8857446511310464,-0.943810770102786,-0.7564489092900797,-0.8011802861236165,-1.274399060352743,-1.8938728715987736,1.9388026735490134,-0.8338125314432496,-0.300826357881799,-0.6937445312604164,0.061730484048947744,0.19911180710688073,-0.5084322081105169,-1.10208114441345,-1.286548667191988,-1.0616760600544797,-1.3039250631776371,-1.1032392071822132,-1.248960843150594,-0.9643272770378641,-1.200983007906913,-0.458542596134018,-0.6034583999935849,-0.4989763734125921,undefined,1498201560405
903d185fccf839df,-0.2856002719062504,-0.3556211281973167,-0.6007737630034842,-0.6342555985183566,-0.8724031644526552,-1.7365653738328015,1.8691706756348103,-0.9215787777952501,-0.06648420945770972,-0.8695000629483658,0.0020123926367819024,0.24679283587286494,0.2618510472370767,-0.9715385673026634,-1.2086538372715943,-0.5080295210769217,-0.9726714369973223,-0.9297165510473165,-1.182666060210302,-0.2130987172260833,-0.9517346952836522,-0.3876950391560121,-0.018522532604832036,-0.18106465007290085,undefined,1498201561897
903d185fccf839df,-0.05136374846451042,-0.40375641649925514,-0.2690081410092127,-0.4737529432575564,-0.6361921327944409,-1.7048830624309292,1.8448844244114524,-0.9598038432015012,-0.17077723924654212,-0.9645737092538162,0.0027061305161657423,-0.003931794533644087,0.22703598484848486,-0.5919466836233254,-1.1054958260342065,0.31031662971911905,-0.4164579488812517,-0.7206027501056042,-1.1139993584195187,0.2566308603589978,-0.7371752306878545,-0.32108359921593843,0.20768648234830817,-0.15752978422344743,undefined,1498201563401
903d185fccf839df,-0.19273731191497556,-0.22354270977801605,-0.2262612895683992,-0.24954591790059782,-0.3033366879177747,-1.8234902525035044,1.8428200260736858,-1.0194134218579785,-0.16462670848502992,-0.7814359909709871,-0.019418517920720905,-0.0076794156136494995,0.3445368204099822,-0.5271383075533422,-1.0791799925297145,1.239796287960999,-0.16252343962011126,-0.6562410433517062,-1.086187035404941,0.7340288644090583,-0.5921311518338971,-0.34323103806860267,0.09931532824488751,-0.150576786848932,undefined,1498201564891
903d185fccf839df,-0.20936950599897433,-0.6955031628455081,-0.3723656383397094,-0.44395128820675533,-0.844950635187975,-1.9519408065602994,1.9509655370900942,-0.6721961847787001,-0.28934922353425446,-0.763422656020946,0.07720486495146477,-0.11939880615268803,0.11823891488413549,-0.45121996060425607,-1.0433904733935835,1.1044155923658148,-0.277723621837078,-0.5760343128900669,-1.0786164859629717,0.8651466265764496,-0.5278367583293342,-0.364336605457036,0.009245780294531715,-0.1830358173689549,undefined,1498201566386
903d185fccf839df,-0.6376479947071488,-0.8193634735890826,-0.8221641499458812,-0.8914674084563412,-1.0684176881355056,-1.9568787929446987,1.9623131468921398,-0.7007951902367295,-0.36398969395095554,-0.5889405471740504,0.10672226900317135,-0.1671631034298684,-0.4823209113190731,-0.44844243388869715,-1.0539168038504867,1.1811987010815796,-0.15103875064865724,-0.634810363586265,-1.1030213620806073,0.6942392809585223,-0.5948874571799574,-0.34213049228874043,0.12483604645275423,-0.13537549739862595,undefined,1498201567889
903d185fccf839df,-0.8871306471765573,-0.9825537599787976,-0.8298202796842106,-0.8667180753433505,-1.5057038162680623,-1.920607879945688,1.941753325605485,-0.891333253126629,-0.23119040975517113,-0.6642295985290204,0.10149790503514318,0.19282660109514307,-0.36917195855614976,-0.6465708555065403,-1.1160221583316683,0.19514201610873422,-0.5933522993483867,-0.7664659287986266,-1.1215209302771072,0.10360111098119403,-0.7805334134821275,-0.3609514336478128,-0.2725595877883451,-0.31406703699836835,undefined,1498201569390
903d185fccf839df,-0.8108998640165763,-0.8586935076912078,-0.7385846065673112,-0.773996605954376,-1.3583817754515213,-1.9663518078855775,1.9661395166931146,-0.721571317496471,-0.3174515280388982,-0.19381270173385656,0.030963985757293904,0.17243627834984862,0.7710213346702318,-0.6336091764073113,-1.1265484722235457,0.22747174163146872,-0.5846789921635993,-0.7916203821261207,-1.1376415820353725,0.06225628019225704,-0.8002109575907638,-0.394544137318953,-0.4394968681047401,-0.31387617890626723,undefined,1498201570927
903d185fccf839df,0.04011312921772924,-0.705482447041564,0.7524480577255499,0.7650122922817818,-0.739316532036318,-1.9405158872802322,1.9013516184611705,-0.774279143259607,-0.0886255305011093,0.6390502399027201,0.10178203531365627,0.09927828830633423,0.8624108734402852,-0.37344986010733305,-1.014969398093082,0.0961322228626343,-0.3830443480977727,-0.571151613292651,-1.0771051744098832,-0.06450372183306118,-0.7047706568659365,-0.2949323832485426,-0.33934624467452246,-0.3355200878223488,undefined,1498201572410
903d185fccf839df,0.6846098304692001,-0.6103859004339299,2.1503313976723537,2.303568411344055,-0.030076584401308067,-1.8972968546959914,1.8488422763982555,-0.8018397585834485,-0.2858002024186911,1.1107232865124705,0.05257747283000332,0.16906930846014495,-0.20380041221033868,-0.15032393116340131,-0.9623377421274486,0.48004768164729483,-0.27897310085106747,-0.40395556772536906,-1.003533708090559,0.24840809154074092,-0.5370454773830144,-0.2970348646467404,-0.34644642801120873,-0.26087393607442466,undefined,1498201573902
903d185fccf839df,0.46284753022763103,-0.5933624654884097,2.633305709067104,2.7321075468525247,0.635438864753076,-1.8766201985155955,1.8208742840892056,-0.7054351536452328,-0.4467994227725887,1.4885163732441058,0.05116625441885033,-0.2053772882952907,-0.36917195855614976,-0.06051802834116773,-0.8770745199070618,0.30829598477650116,-0.64260601700651,-0.2100471658375811,-0.9124912055443561,0.49716997849285155,-0.36127315679123817,-0.3883329849018709,-0.60880545218142,-0.39767515565410877,undefined,1498201575410
903d185fccf839df,0.8495457925163817,-0.5833831812923538,2.497409787417183,2.4465560126316075,0.9184498184964677,-1.9107738326293089,1.8033492590112237,-0.8288953610826,-0.7162531158896185,2.0477608615430305,-0.12578119411977,-0.11638143310919492,-0.3778757241532977,0.04132367680637641,-0.8739165927935023,0.06380246907517825,-0.581835195649544,-0.015733454591060354,-0.9009674573942945,0.5590717280022399,-0.2505993045633155,-0.40881815023998574,-0.7212823688896016,-0.4432801902534128,undefined,1498201576901
903d185fccf839df,0.2923678945470935,-0.5546194317704096,2.1764899680134535,2.255485028162778,0.874046466527958,-1.914971121709856,1.8341258869189372,-0.6518225237025793,-0.7101452299671367,1.6456537877734478,-0.19998809800797265,-0.08084538634353576,-0.45185773172905525,0.15705293782706797,-0.8760218677195635,0.06986434737358896,-0.5475036189588894,0.06915332320261476,-0.86549362591922,0.5657854517245997,-0.1994942539977629,-0.46664213784372793,-0.7503313756294944,-0.5074504059718231,undefined,1498201578390
903d185fccf839df,0.18425885728626482,-0.6250613192289531,2.533776276605772,2.4568602345466517,0.7954123156476421,-1.9474593502272195,1.8747169431861401,-0.46490419352536305,-0.6360788806866365,1.2027199051052595,-0.2827494449543618,-0.0912133244059998,-0.8696384803921569,0.12372282445275341,-0.8886534510158267,-0.010959952300886545,-0.54326758834293,0.023613124387989355,-0.898385634113513,0.4766592509758096,-0.2511102012101008,-0.40721439330091314,-0.7546906769878496,-0.46502520257521757,undefined,1498201579904
903d185fccf839df,0.26326147726292376,-0.5047230838601108,2.4706128250591313,2.5792229343974604,0.3456907852229906,-1.876128729477798,1.8108415745786406,-0.9236910164137333,-0.7499430315250759,0.9480897169299252,-0.30478661346778396,-0.09494986187477122,-0.8391753008021391,0.17186624096638836,-0.8854955607134363,-0.16654670161614837,-0.5622409333137734,0.013214431456598234,-0.9041789938925424,0.3289265605446298,-0.2869384875691899,-0.38895198146028276,-0.7589543192481921,-0.5562405343517483,undefined,1498201581428
903d185fccf839df,0.1121859587465873,-0.43956436061265214,2.1050327571223795,2.180928427588488,-0.046945121232752504,-1.855789812121882,1.8184890435746839,-1.044042502264036,-0.7084253442481436,0.9551190092464301,-0.2130566510246368,-0.10011664794916443,-0.6215811608734403,0.09687371898812246,-0.957074576898997,-0.05945463951151368,-0.4880376027674032,-0.00007841712292748414,-0.9249875089381814,0.23587375484734335,-0.32023408703396067,-0.3982905891568779,-0.6219300656145965,-0.5356347985110061,undefined,1498201582889
903d185fccf839df,0.3866167298149452,-0.265220730802646,2.1873360247409455,2.247994531446321,0.009245640242024532,-1.7179454342576748,1.7434475278892607,-1.2529106093220461,-0.5757559586093407,1.121072049131512,-0.2022399308027284,-0.10094124497226806,-0.517135973707665,0.1329812295702505,-0.9012850563987912,-0.01095998056560808,-0.43819908242518807,0.007641441258569951,-0.877849994551372,0.12080117230995276,-0.3171652970527907,-0.3855562709933579,-0.599391294221653,-0.5356274122268876,undefined,1498201584387
903d185fccf839df,1.0422016409683712,-0.24056607165355542,1.7560402078744934,1.7529931266187206,0.6254411839940502,-1.7070329479208428,1.7564282660689057,-0.8621262174901809,-0.6780499262681732,0.3903981849435413,0.13780630479878195,0.029350263529901922,-0.5867660984848485,0.16075623771034897,-0.8760218603573298,0.06178190892672494,-0.3557703960650661,0.053650276576522785,-0.8651227969430351,0.20818735032532718,-0.27328478271118817,-0.40971637639399405,-0.5794841633802318,-0.5246351769355285,undefined,1498201585886
903d185fccf839df,0.43374125096510024,-0.3086598991196134,1.731795542899501,1.4254138854153946,1.3949964625355444,-1.7596504614581279,1.8068995070430487,-0.2755704652278872,-0.6549932853597643,0.2136810258476141,0.2288137860657814,0.08076504149872092,-0.20815229500891266,0.21908380660765397,-0.8770745125448279,0.14058559192330405,-0.2916684115283376,0.08166088696546389,-0.8572373909626786,0.25238088805612946,-0.24656929610001246,-0.3909193213238638,-0.4149821584427878,-0.5374196994881056,undefined,1498201587383
903d185fccf839df,0.49195394751180077,-0.4518917048011936,1.8045290295505794,1.7847210789928518,1.3676879377846414,-1.8887392283716744,1.78890901159679,-0.58953074336956,-0.37554955858890593,0.03148974653903109,0.40756050541658334,0.11070315956795174,-0.1994485294117647,0.1987154500372157,-0.8697060503036137,0.30829601304122267,-0.302161806290753,0.16134198640173264,-0.8329794469008404,0.3788175262945877,-0.18481405568083478,-0.42303302484700106,-0.3121299703273452,-0.5250045965764429,undefined,1498201588881
903d185fccf839df,1.0241834680915665,-0.6321055138204059,1.8964025864105314,2.0281937017794998,1.0479878999743206,-1.9099585981560179,1.8026997077690408,-0.7262982837783101,-0.49793044003865966,0.988553618989733,0.17541765087308728,0.05307996376535032,-0.6389886920677362,0.2403779363458143,-0.8444428763488535,0.273945840428921,-0.3461912230438766,0.21855379925109167,-0.8202312571593302,0.48857764578573826,-0.1307374101824655,-0.37366735493729314,-0.32945125280625814,-0.5299506244634178,undefined,1498201590379
903d185fccf839df,0.9188463194055304,-0.6679134287058105,2.041231167695736,2.066893503611322,0.623939465238614,-1.9410213325683314,1.8891177631896532,-0.3981250421212058,-0.5393178272208206,0.3404868037170001,0.0869777949658309,-0.006859575629606051,-0.691211285650624,0.3005572846925053,-0.8865481834519993,0.4295325614794613,-0.39268413012351683,0.2542526015867771,-0.8464203205643519,0.6882030927937183,-0.08819534304241645,-0.4045401209012094,-0.28084513212519013,-0.5377580548738863,undefined,1498201591913
903d185fccf839df,0.8786520717789125,-0.6262353053832074,2.077597656884326,2.061901822148522,0.7975311748030162,-1.9326733393637443,2.0078114289927678,0.449228943952885,-0.5023858127148502,1.1506228573026573,0.05965326614814951,0.05311920967382793,-0.8087121212121212,0.3190738877151067,-0.8202323472193578,0.506315627798144,-0.3301606009778299,0.30740499683023464,-0.7953785846868073,0.6515701931771231,-0.0492649937563601,-0.4075615443345643,-0.23656870079890635,-0.5967345879869306,undefined,1498201593370
903d185fccf839df,0.7442086438303456,-0.5804481209157429,2.527395660216599,2.6422132138294403,0.5449864575560542,-1.918444016785235,1.9744654880768004,0.18616299775416084,-0.5219500520032357,1.078790368706354,-0.12334684679121219,0.07517115412794474,-0.8739903631907309,0.17186631867103563,-0.8233902375217482,0.5042950393849692,-0.38795289981878894,0.2760695916916724,-0.803110060032659,0.6372496381043379,-0.07424045043328331,-0.4394338609319337,-0.2679441804142809,-0.573369449428961,undefined,1498201594892
903d185fccf839df,0.22306709161466695,-0.6009936604639877,2.8680939418461535,2.8620846747047324,0.45492489929652824,-1.9086845042630771,1.8512354105132556,-0.6052975679947556,-0.5452215387613512,1.3184588561429658,-0.18283480207021194,0.08540075560201778,-0.8565828319964349,0.2440812621306444,-0.8897060958410911,0.44973855867009593,-0.3222662451050758,0.3398676640941261,-0.8275709117444963,0.6462577275730437,-0.03691884330980861,-0.45350918347846,-0.3005480680263734,-0.5944724660586553,undefined,1498201596395
903d185fccf839df,0.28682370333259155,-0.6250612753869645,2.8776644852244893,2.673812215338495,0.1444305680836553,-1.8823571128431646,1.8572971111632857,-0.6632260889329996,-0.5981311825103538,0.20590987207204756,-0.2584845125080924,0.1299452990198543,-0.2516711229946524,0.25889474658080847,-0.9212850798495673,0.48004761098549104,-0.3216701347818012,0.3736855862602955,-0.8559499771557809,0.6821053063372555,-0.022864167658955603,-0.4713155083231957,-0.27197089955308396,-0.6030530293938379,undefined,1498201597879
903d185fccf839df,0.1690123659517942,-0.6021676612322382,2.7832388851184273,2.787394781646345,0.06162041738394372,-1.9002945851195199,1.8407188112730695,-0.8464499895072426,-0.48935939544657453,0.1699787816616264,-0.09091567747784338,0.088028444160321,-0.2647267713903743,0.25982041614233414,-0.918127182184943,0.3588113451944677,-0.3109778682162292,0.3973707977951878,-0.8690620001208508,0.6494759977037255,-0.02572426462996194,-0.48317420315886533,-0.19795178670840263,-0.625403616936388,undefined,1498201599380
903d185fccf839df,0.2507872885681625,-0.535834937216529,2.6007675388846287,2.701436656629765,0.053947279323144214,-1.886048957069159,1.8805551026853473,-0.5853208473352961,-0.5432644246165628,0.36537524593049747,-0.10023603870888557,0.044433560494250686,-0.673803754456328,0.23204545980533386,-0.9981272612635796,0.31839912469542614,-0.3899594646000327,0.3046438370798478,-0.9403315152396708,0.7051105802664954,-0.09194182838655246,-0.4237600559827426,-0.19688804483488787,-0.5909907156270184,undefined,1498201600886
903d185fccf839df,-0.033345644598525105,-0.6109729154320513,2.3825673330683435,2.4500214543600523,-0.01516232209711218,-1.8944039377798363,1.8726656755340603,-0.7275273094731806,-0.45464448207850755,0.5305271576589353,-0.150966255338074,-0.13415227412582273,-0.6607481060606061,0.23019378396214427,-0.9749693327859456,0.3830585757408952,-0.3724648379056749,0.30825361485415453,-0.9573687501219889,0.796161586588373,-0.08023626145907128,-0.4369854571038708,-0.23396229953815234,-0.5936804377375687,undefined,1498201602432
903d185fccf839df,-0.00146726972874333,-0.6092118704376871,2.2154082463112035,2.406278473374881,-0.14628439063621088,-1.8964396922809008,1.8316485994859213,-1.004239266449931,-0.5538073367748042,0.007616035931177502,-0.27363500647721395,-0.09828951208789521,-0.3735238413547237,0.16816294108310736,-0.981285164926363,0.4921713110528693,-0.3429487169310526,0.22650164533795172,-0.9585022335574154,0.8034758473406957,-0.1270416875195404,-0.4246834328217127,-0.15588592329614576,-0.6183194547781121,undefined,1498201603884
903d185fccf839df,-0.20659751390795256,-0.615082020418901,2.30600603568505,2.367056046971842,-0.29081900054750154,-1.9000896109584338,1.8552931841636389,-0.9061333367252518,-0.4753204501995548,-0.38111809424504856,-0.2816307593289531,-0.051189701157376755,-0.5824142156862745,0.14501708369865923,-0.9549693240596371,0.47398584574596647,-0.36968753445005886,0.19699012707046526,-0.9322991763899479,0.7611609185542603,-0.14073174708404235,-0.4534351530654288,-0.32382562910232554,-0.6393645012832385,undefined,1498201605385
903d185fccf839df,0.019322929744492956,-0.5957105400948914,2.5503643035685366,2.411493253713391,-0.10409244790490185,-1.9260117159332133,1.8890388549441992,-0.5335874487668156,-0.4238990873207642,-0.719945259726205,-0.477346899484948,-0.09387984894870832,-0.7738970588235294,0.12464872712822095,-0.9518114190327791,0.5346040634356427,-0.3708777350284491,0.17566077220026918,-0.9175149151054021,0.8041071849636866,-0.13941469067834922,-0.4138027948037712,-0.38834196654898556,-0.6260279042406157,undefined,1498201606888
903d185fccf839df,0.09278184158238624,-0.565772716734716,2.172023765264287,2.172905034973362,-0.008054890369604314,-1.8999335533719142,1.8971623191528042,-0.3962568987282872,-0.5246497538397906,-0.6830720420973143,-0.48355138367140055,-0.0021586730980468647,-0.7347301136363636,0.10150286974377282,-0.9318114029442368,0.5588514918351208,-0.352807779730055,0.17528712921538633,-0.9168222310243568,0.76445618841068,-0.14431984853154817,-0.4609340853001991,-0.3262725425449959,-0.617278692141726,undefined,1498201608392
903d185fccf839df,0.3533525486794061,-0.4196058799045173,2.3340785113922577,2.404099538240296,-0.079715339614088,-1.8566656057484132,2.0168237633676385,0.46757053834682494,-0.5041298860514953,-0.7761072961274599,-0.547262900816121,-0.021311121188048874,-0.7173225824420678,0.1524238388745158,-0.9139166470572881,0.5608720237188527,-0.3153042647907329,0.18392526402592904,-0.8834124587884873,0.7467325809464207,-0.12790509153262325,-0.40542508635580427,-0.34845561631499056,-0.6551854636008086,undefined,1498201609896
903d185fccf839df,0.1662404428715919,-0.387319967323864,2.804930998573411,2.5889804488166974,-0.34949889277952373,-1.7828333805613732,1.9039603844136885,-0.20669008453092183,-0.514916596982349,-0.8415499296361485,-0.5903976564504569,0.028959200890854325,-0.7956564728163993,0.16538536256445022,-0.8823376556865782,0.49419195599548726,-0.29739617489676107,0.27598726605931934,-0.8431947894472697,0.7800394189583063,-0.06257947863850885,-0.28065390482470165,-0.4500682173529766,-0.610546970932672,undefined,1498201611396
903d185fccf839df,-0.041661655377000145,-0.3849719365593708,3.104158450385207,2.834784629677742,-0.4953809381552377,-1.750452296099394,1.89079295035292,-0.3330874280892701,-0.3221634241509118,-0.7072537073501738,-0.40737547383746575,-0.007318497921411075,-0.8087121212121212,0.17742126849595716,-0.7897059270515743,0.5972428695384938,-0.2180765148567114,0.3580368839671163,-0.7586103435971564,0.8446204984061424,0.01257334229966554,-0.15618127094599377,-0.09077411493436048,-0.6439690667009055,undefined,1498201612920
903d185fccf839df,0.12050203853588182,-0.4289980614184748,2.995058474545539,2.9717645181456245,-0.22958824134626607,-1.819838002326152,1.8426490849203425,-0.6802803251603659,-0.42379381732091,-0.06842077640541296,-0.38173937795598073,-0.019418134442349837,-0.7869527072192514,0.31814793323654095,-0.7465480045720994,0.5447072033545677,-0.13784743128528992,0.40213950556357375,-0.6922875736029864,0.778884538174985,0.039517845862815426,-0.11111938390268013,-0.03931214110434542,-0.5435889759056416,undefined,1498201614393
903d185fccf839df,0.1329761582198236,-0.46128391554314346,2.594387430769354,2.6448684872087234,-0.21052884619036322,-1.8191019633797776,1.7443416783510097,-1.4199584190530654,-0.32400079283358735,0.47719399754720254,-0.2884079045011589,-0.06325106066529365,-0.6563962232620321,0.16538544026909752,-0.7476006273106623,0.5406659417340534,-0.1789178043454022,0.3722860103196345,-0.6935959779465042,0.9553353245574449,0.04601112259355958,-0.04914129407719689,-0.04079996421767578,-0.5387249551616973,undefined,1498201615984
903d185fccf839df,0.29652583092551155,-0.4900476796790838,2.3704450005808475,2.304793975477712,-0.2051597092594811,-1.82277983329397,1.6872222916019655,-1.828103475196539,-0.34945150751533544,0.5255448920729165,-0.30988476871934184,-0.007587794770993982,-0.8783422459893049,0.18853124585044745,-0.7876006668499806,0.6740260771807842,-0.20467340476816254,0.3414002457490437,-0.6665672973402712,0.9785099848060207,0.03687337757823592,0.013947808493533892,-0.0673022559592238,-0.5326529935855538,undefined,1498201617378
903d185fccf839df,0.024866982937355963,-0.5587285221432632,2.108860821991544,2.0471074885052927,-0.43129075755192636,-1.787431300848209,1.7754759472213981,-1.296804496620211,-0.25551520075528467,-0.07704324751017716,-0.41576496957795145,-0.013676368960377407,-0.8696384803921569,0.08854116474299473,-0.8244428602603112,0.7306031180441107,-0.35784040458938354,0.20680619334710895,-0.7228636376234306,0.9905823666282506,-0.052527446204765633,-0.14636509020834304,0.09443753635913728,-0.5450191879700675,undefined,1498201618887
903d185fccf839df,-0.2828283143206384,-0.5158764565083942,2.203286422097606,2.281810879429411,-0.46145870451711696,-1.7247165344294326,1.8326531922654474,-0.813257787719417,-0.29765305935255765,-0.12740494835523747,-0.33217260012317856,-0.05369399827113297,-0.8870460115864528,0.12094537544184175,-0.8349691612682795,0.7306030049852246,-0.28476651219574184,0.21932008709705594,-0.7815318966775594,1.06638891263142,-0.055778938836550995,-0.16259720844836684,0.17489788557694078,-0.38148954931732754,undefined,1498201620379
903d185fccf839df,-0.08601414993072369,-0.344467814005018,2.8227953012961797,2.937165952062698,-0.43253532020383856,-1.6955661038851106,1.9446092932145265,0.054457883550400626,-0.40675722086625593,0.3995449676328376,-0.3302087612883837,-0.0875585250343379,-0.6868594028520499,0.11909377730329944,-0.8654955372626602,0.6659436669986417,-0.41973335191284716,0.23190997786535136,-0.838122101892,0.8475154088290442,-0.08487620418105943,-0.3106584245452039,-0.30449480967761017,-0.552207074247236,undefined,1498201621885
903d185fccf839df,-0.18857920300950884,-0.21297630828586553,3.119470963998815,3.1151218238264944,-0.2849047164782277,-1.7265240210507713,1.7999331418240834,-0.7938986391209023,-0.5319006631808745,0.4747244108613526,-0.3509536444613833,-0.053803082568384356,-0.7303782308377896,0.2329713365792523,-0.8402323485834324,0.5002537777644549,-0.343065166295235,0.33190082051057035,-0.7977155178802452,0.7899406207264995,-0.03138048031319521,-0.22622933968720096,-0.1971469125091097,-0.5359644902261012,undefined,1498201623422
903d185fccf839df,-0.16501697693984105,-0.3450548290031394,3.1826339072715575,3.0748283492866695,-0.12620669644958632,-1.7747113214027008,1.7295332344896042,-1.2934662502337027,-0.6128205442435206,0.6442031658224385,-0.3753703325364659,-0.07036246382373192,-0.9088054255793226,0.3172222377734662,-0.8791797506597202,0.47802710736648074,-0.2862448661826649,0.40503998724562673,-0.8200423418281505,0.7897866371066997,0.006623984387474481,-0.2827367455277226,-0.1718017811605728,-0.5404513212138494,undefined,1498201624887
903d185fccf839df,-0.28560034091706993,-0.45247874902730734,2.928705350146685,2.822566389058754,-0.09024790614880504,-1.8685656879212293,1.768141417373936,-1.228942177109854,-0.4861692346511375,0.06728657449852793,-0.49357956205245473,0.00042359958259287453,-0.9697317847593583,0.3125930093131686,-0.8497060342150714,0.4800477240443772,-0.2942134002776634,0.46706483824211026,-0.8209239399557924,0.7994876554896547,0.04522696427117611,-0.31309367929779747,-0.16200017464837593,-0.5543480552996282,undefined,1498201626386
903d185fccf839df,0.03595522734472092,-0.5704688805616756,2.553554738831598,2.527769763457545,-0.09939188640485484,-1.8844627457910512,1.794276437192586,-1.1302196601338246,-0.5609285108277376,0.2848159689133913,-0.41453478372646163,-0.009911898875637093,-0.9784355503565063,0.3505521698369371,-0.8402323338589649,0.44367682169529293,-0.26029774311251647,0.44797734906576375,-0.8322587734047316,0.7257906932951347,0.023876989392593286,-0.29490532329071895,-0.17789821538614337,-0.5591339167449569,undefined,1498201627881
903d185fccf839df,0.12327406513231332,-0.5434661175781109,1.8007007105444652,1.7198130966519924,-0.41312621507559844,-1.9129726346258351,1.9213065780113543,-0.5405958122387364,-0.5253035003731825,-0.060306239453016955,-0.3312271630886163,-0.03983078773909197,-0.9827874331550802,0.3024088310279494,-0.8370744509188083,0.48813013422651963,-0.26158757823298695,0.27373906766540573,-0.8497438044890101,0.8660243365668077,-0.05953880420870788,-0.28583868545366214,-0.03769255346739083,-0.5552920412562312,undefined,1498201629387
903d185fccf839df,0.12881811832517634,-0.5628376855860975,2.0437834650787954,1.9683362961576383,-0.3681777190855086,-1.8727583196604372,1.8798792468615164,-0.7369471923346237,-0.4604383051879459,-0.5205454027803087,-0.3169644167366885,-0.0365071435607631,-0.852230949197861,0.2394520595718959,-0.8581271118326149,0.47600649068858436,-0.3082198078675041,0.20357005307084922,-0.8686212002465193,0.8450824507329331,-0.10929437833671769,-0.32945581658498063,-0.09214924973413138,-0.5502890981308017,undefined,1498201630886
903d185fccf839df,0.27989370585233225,-0.43252023909118015,2.3143003033033818,2.0524999226771374,-0.455667860267288,-1.770437169104615,1.8854070984559483,-0.5655600482507654,-0.5013289891531321,-0.06544719704509123,-0.42761553350785353,0.0016532702566669655,-0.9392686051693405,0.20704787477459793,-0.8802323660360494,0.6437168835417815,-0.29080721749626276,0.10685967066615988,-0.8828667071424976,0.6947166306537746,-0.1884084544042418,-0.36911261367340353,-0.060511405549880146,-0.5722987006520311,undefined,1498201632381
903d185fccf839df,0.250787357578982,-0.4278240021942397,2.420210352153887,2.2102164212267037,-0.4527775797135602,-1.767593168567319,1.8294027551843812,-0.88092500615493,-0.44978607748988797,-0.1489238220583721,-0.49883610028392467,-0.059608360090522935,-0.8348234180035651,0.20889962832243483,-0.9033903018759173,0.6619024053781274,-0.2510516701784235,0.14233682168950285,-0.897420073955615,0.7499816503912106,-0.16933425483229073,-0.3657651211600089,-0.03109480797662949,-0.6054096783217455,undefined,1498201633893
903d185fccf839df,-0.016713485019936074,-0.4289981491024518,2.143313151677077,2.084880956401842,-0.3777125608903384,-1.7807626869501543,1.7737244949720445,-1.2639004316738875,-0.5391411430107967,0.46145819069112765,-0.3311350329300795,-0.024190310253755423,-0.8217677696078431,0.0996512457036814,-0.9223376878636628,0.6720054322381662,-0.3076397009296953,0.06616417382010581,-0.887015816793702,0.6447640748241665,-0.22678643351347108,-0.406947094028387,-0.1234540765855852,-0.5848749969039726,undefined,1498201635425
903d185fccf839df,-0.1456127907648205,-0.3967122949777832,2.244118605761464,2.1328407245008054,-0.2834647183166919,-1.859011149342705,1.807320262241329,-1.1097143461298837,-0.43802377360715955,-0.09790259273074824,-0.3864947325482317,-0.08347864047913565,-0.7434338792335116,0.1274262020406817,-0.9549693240596371,0.831633471438664,-0.24334790295370312,0.11727736229570303,-0.8861971886181969,0.7485034005976534,-0.18321462140062758,-0.422973354496317,-0.11107926200251245,-0.5831430202480101,undefined,1498201636885
903d185fccf839df,-0.1400687375719575,-0.5528584013900416,2.1969060598453822,2.206403875868809,-0.19550143442697535,-1.9247515969677371,1.8850836245116256,-0.6847077898095185,-0.3749950926916768,-0.5402491246682891,-0.24611578778555318,0.055560666580711085,-0.7695451760249554,0.1413138097169273,-0.9454956237035306,0.872045663672984,-0.20435322313746437,0.16476177002453513,-0.8849237691303975,0.8124685448797135,-0.1531683857767222,-0.3580801222307039,-0.00019353835314055683,-0.49790017998307035,undefined,1498201638386
903d185fccf839df,0.01516482083902623,-0.6315184695942921,2.1324665866756862,2.146284884429273,-0.38954110855155266,-1.9352215261597634,1.9531929812785036,-0.2829986383766616,-0.3665847535216861,-0.6155816966856474,-0.381829981448564,0.018316478695335623,-0.7434338792335116,0.10242864291149488,-0.9233903032399919,0.898313623956194,-0.2518070944061797,0.1308615203767662,-0.8849937373920908,0.8783892913565071,-0.15736290699648195,-0.39050130696493834,0.036027208512078385,-0.5327462324430974,undefined,1498201639878
903d185fccf839df,0.06367535528739703,-0.6180171100235041,2.2619829084842324,2.3174933358955476,-0.25173334551568394,-1.954034792032297,1.970249898852092,-0.138269719572653,-0.28332060298584005,-0.19902138995170374,-0.19774588618246847,-0.020054885670179913,-0.669451871657754,0.14964623445430958,-0.8254954829988743,0.9003342406340904,-0.2773833487329523,0.27078791180353484,-0.8356452309089438,1.001576857094231,-0.05058970120897793,-0.3478624891929682,0.21344987355495337,-0.5825854023727214,undefined,1498201641383
903d185fccf839df,0.8079652555482701,-0.6021677196882228,2.439988560242763,2.587490524314775,0.06585811798607967,-1.9445245078559263,1.8848390520038651,-0.5706244573726313,-0.4040520177791922,0.9830177901068284,-0.17821727364706957,0.017028343696716228,-0.8348234180035651,0.26352376782871334,-0.8244428381736099,0.8174892677522754,-0.17807281233884076,0.3320781393014845,-0.7793768771107757,1.0627702822056326,0.01844253614560034,-0.26936074455071635,0.18426576349884155,-0.6564483104466491,undefined,1498201642884
903d185fccf839df,0.6998560112549831,-0.6092118704376871,2.6958307685967937,2.8730637882357613,0.1348957179006433,-1.9602212515154334,1.8469488031081855,-0.8397142881444296,-0.39409168837422764,1.303101099287144,-0.23463055716417444,-0.07896649550244919,-0.8565828319964349,0.39128883117471547,-0.8086533572127225,0.7366649398130783,0.004399671676843817,0.4466537596846895,-0.7589881709563027,1.0363465511121865,0.0761008975247651,-0.2986765236584246,0.3503664825755488,-0.647803162262857,undefined,1498201644389
903d185fccf839df,0.8800380850771282,-0.5557934763806486,3.116918666615756,3.1892660667563852,0.06490154525074404,-1.9225714282416564,1.757764198895785,-1.3071599128824725,-0.49033426446314393,0.4145834176248928,-0.3345226328474336,0.017630012405960266,-0.8087121212121212,0.35981062675753234,-0.7107585001604358,0.6821085438923697,-0.014831469806686122,0.3974721213062665,-0.741195281037605,0.9256779204049216,0.04078081183959416,-0.29971691096286274,0.3170400814381672,-0.6747920358907306,undefined,1498201645881
903d185fccf839df,0.19950493455581864,-0.606276780833084,3.103520312505205,3.086941502236887,-0.08517705527025717,-1.9250008253932571,1.8145943135489593,-1.019333009234114,-0.4462571356695471,-0.3993352170959201,-0.17981280608241434,-0.07421500539114065,-0.7434338792335116,0.6690390938865439,-0.709705870059639,0.5729957520509525,0.15188567263041272,0.4552729019317057,-0.7349891092945104,0.9314369391499184,0.07570278462583377,-0.2952590794274577,0.31420615560160114,-0.6788026802758221,undefined,1498201647429
903d185fccf839df,0.2119790542397604,-0.6368015899633885,2.792808666085915,2.7165123322896765,-0.0219508700353479,-1.9183811282840504,1.9100589091211015,-0.40314628159631155,-0.4455187894086864,-0.46068119620515896,-0.10961539284747844,-0.011320996546083255,-0.843527183600713,0.5570131586506825,-0.766548042747343,0.5224804764271506,0.06792313643569513,0.47741920568917545,-0.7520963117962303,0.7981171976143815,0.059558477572830976,-0.25671378040012316,0.208303087904221,-0.5839259648653754,undefined,1498201648879
903d185fccf839df,0.16208257550399333,-0.5980585708593846,2.7321977660592824,2.4283102684478677,-0.061705081637088016,-1.9201746416002121,1.9492693125466403,-0.1872773770329363,-0.2992728010077773,-0.556941580158078,-0.25622396115990403,0.08969139855758418,-0.8130640040106952,0.26722709361354346,-0.8118112327906454,0.6699848438249915,-0.13210633368588395,0.36265360169074146,-0.8335251968891065,0.8476232001684492,-0.017771258757440785,-0.34735516079261264,0.05491932440125644,-0.5493591549315505,undefined,1498201650392
903d185fccf839df,0.14960838680923208,-0.4935698281237968,2.585454771134071,2.325742762403901,-0.07459306509760989,-1.8795620258836658,1.8610734974143417,-0.7022238132602382,-0.2589703856810801,-0.7016030586586194,-0.39734238946256134,-0.0331649324744233,-0.7347301136363636,0.3662913497501759,-0.8097059873135193,0.8275923228770358,-0.08670918694151229,0.32153379668260573,-0.8157463010142394,0.928495834050331,-0.024270411132727113,-0.3346368691277267,-0.05270191066981924,-0.551113489417801,undefined,1498201651903
903d185fccf839df,0.24662924867351527,-0.48006845393901254,2.319404135658652,2.2898253007716267,0.06189812503637621,-1.8507796162388843,1.832613735523916,-0.8208201522399154,-0.36599377487015405,-0.5297676961772902,-0.3141717769924609,0.00874498662448914,-0.5563029188948306,0.3755497289661239,-0.8381270662951374,0.8740662803508804,-0.04157563985208315,0.2548922299833802,-0.8191887319349792,0.8830550190612748,-0.0634645113054358,-0.35611555480744084,0.015697403701987387,-0.5920590228582131,undefined,1498201653384
903d185fccf839df,-0.2592659502293317,-0.586318285510953,1.9729641379307743,2.0770484411150605,-0.04453826919002792,-1.8643637409194687,1.8405846737504337,-0.9240129550234493,-0.4064475241458991,-0.3771174480364542,0.07976216158259074,-0.06402445974730227,-0.517135973707665,0.29222462684118117,-0.8097059578645841,1.1023948908937538,-0.20795765631195162,0.2662978580693369,-0.812492784708983,1.045785792301193,-0.02512793242273107,-0.41232500337202405,-0.020782323626791884,-0.6181955288263318,undefined,1498201654884
903d185fccf839df,-0.15808697945958175,-0.5781000755372536,2.9618816582091627,2.8846243292789167,-0.08015763604172577,-1.8638070520881536,1.8618256196336616,-0.668227025511882,-0.3995112416451242,-0.667184390719232,-0.05871614395005434,0.016941480588547133,-0.691211285650624,0.33944221838399585,-0.8381270957440726,1.0417766166746345,-0.19838849067398853,0.3059737514484106,-0.822911035180679,1.1666789876615362,0.004619842164593115,-0.3831224571461689,-0.014535043038238058,-0.5839960093191858,undefined,1498201656381
903d185fccf839df,-0.03195956228948988,-0.5827962101362208,3.262385385780963,3.1813956477867786,-0.16553920593973598,-1.9074313733826587,1.9271210777905026,-0.2680038251790411,-0.31317478625857104,-0.9422931686660021,-0.15682618028681714,0.05668535444177385,-0.7695451760249554,0.3514780725124046,-0.8076007123874581,0.9205401812952819,-0.11011523979689589,0.38981559453745274,-0.8027882075520181,1.268940060760532,0.06234506320779717,-0.3191257665981931,0.20259961702876234,-0.6192114738713963,undefined,1498201657867
903d185fccf839df,-0.07353996123596244,-0.5487492964031919,3.695595108013522,3.476255339032693,0.08874379681543229,-1.899563203244028,1.864978771270683,-0.5303060358965467,-0.30773532901653994,-0.7564007409236261,-0.07166077281315962,-0.044875728500835106,-0.8391753008021391,0.32185128492292014,-0.7528637999013478,0.9346845263052782,-0.058773050874751494,0.519748599728427,-0.7943290628534428,1.276777873558309,0.1336854346216588,-0.2544156667294966,0.19548181425069866,-0.5918350013349453,undefined,1498201659411
903d185fccf839df,0.062289411000000745,-0.5734039263242902,3.5801147699216305,3.317700317177779,-0.12530156572096468,-1.9066091525208937,1.9677989190123486,0.0317683899133127,-0.41980497262943195,-0.8003752343516269,-0.05188979256739894,-0.09976950216747973,-0.6041736296791445,0.3866597063206142,-0.7939164695414629,1.0660240733388342,-0.015867679213708668,0.48265654962315213,-0.8120309946283526,1.3075901656291775,0.11332444461299444,-0.26424757116287656,0.23554270196879548,-0.6297488609922046,undefined,1498201660879
903d185fccf839df,0.15515233648586588,-0.5798611059176216,2.586092909014073,2.570433920069854,-0.34307033976246865,-1.9320444450154797,1.9729796465010365,-0.1424079248187139,-0.4364435350657118,-0.9610069197240946,-0.17094167005087196,-0.05199355745304647,-0.6433405748663101,0.4755398100735766,-0.8149691672664385,1.0397561413203458,0.08049927193878693,0.5006294426944039,-0.8322237912282862,1.3402810668194223,0.12464065337960702,-0.3104140023930233,0.3048170470216779,-0.6522592226438354,undefined,1498201662384
903d185fccf839df,0.3561246442866571,-0.5763390305428895,2.616079544224338,2.5813336810870395,-0.1751460536854136,-1.9346019493332938,1.97503878208931,-0.10266548197199177,-0.46686776846421607,-0.18726838170734159,-0.18916173446875154,-0.10892198160418236,-0.6650999888591801,0.30981545669606053,-0.7697059404119672,1.1306835243843032,0.15387128286960589,0.36172898834822936,-0.7454073614728666,1.2641973456884263,0.0646857369060303,-0.3227843823885795,0.48501613018653333,-0.5537834596539875,undefined,1498201663899
903d185fccf839df,0.28127965013972855,-0.4354552702397986,1.975516181176884,2.000493609280204,-0.20618828235021028,-1.7833574577689932,1.8075332894159069,-0.8098157659425387,-0.639745792584719,-0.002854671662136161,-0.3618342523288419,0.025526638285801113,-0.7086188168449198,0.2588946688761612,-0.731811146349775,0.8801280738551265,-0.005009471609398779,0.28290917025422263,-0.6956670310970989,1.1000499188734139,0.027901998678635787,-0.28992686525558564,0.23740487206813465,-0.5521184901964891,undefined,1498201665385
903d185fccf839df,-0.10957641050580122,0.11516536794391341,1.4395863370829818,1.6235165215338032,-0.5589362598938669,-1.510214563393741,1.721144149786894,-1.015646646021223,-0.8480820597114438,-0.03001060904346261,-0.14771121195273132,-0.021959608569016076,-0.47361714572192515,-0.02903966851469005,-0.6897058539710967,0.7124177092666509,-0.15752565903320204,0.10687866821822216,-0.6502227445815388,0.8657779689920225,-0.07651737852340715,-0.24335832636329746,0.11025531775185811,-0.5576259714832474,undefined,1498201666885
903d185fccf839df,-0.15947292374697802,-0.37968886003226293,0.7345837550027814,0.9939675160729133,-0.6628423706762938,-1.2251436318565956,1.6768950379492815,-0.7773045499188161,-0.912662263020599,0.005934331176465447,-0.0038156672424008663,-0.015411899914593555,-0.6955631684491979,-0.11421639467972418,-0.7433900995452413,0.6982733642566546,-0.17151060123112324,-0.036815824558178015,-0.6520489116881673,0.6212506556415504,-0.19042408944659509,-0.19274955677098007,0.047766401859100346,-0.46497164210747444,undefined,1498201668390
903d185fccf839df,-0.4339039018477943,-0.45482677979180053,0.707149417175576,0.7977031274903403,-1.0710302591823184,-1.1519379734031552,1.7060122541100644,-0.6671938536098898,-0.4531870363533524,-0.6627970264379954,0.08835786687226055,-0.058284126356448675,-0.865286597593583,-0.2632756266162103,-0.7139163904628263,0.06178186652964264,-0.3270989484544324,-0.15920629268328856,-0.6226343183099539,0.18404259034261497,-0.31465066053929486,-0.13038352875679454,0.11978852670266482,-0.29763636640757446,undefined,1498201669940
903d185fccf839df,-0.32302273447430496,-0.4289981198744595,0.7849867361819243,0.9658673957505015,-0.9802795549941139,-1.0666179417146633,1.6711147312455896,-0.6479770558622164,-0.3411602320482462,-0.3752846197343994,0.174079169240736,0.038063255056322055,-0.9349167223707665,-0.3530815682907675,-0.7370743189404604,-0.24737110021714925,-0.5103078705180922,-0.3291761696187614,-0.6713251256411789,-0.12112379997718813,-0.46016252822830345,-0.0829572986702246,-0.21120987029734803,-0.2854482750911971,undefined,1498201671370
903d185fccf839df,-0.26758209902944563,-0.38908110000220514,0.880688357911041,1.0329436594183872,-0.8022238496781734,-1.1169830815167607,1.6902807556489898,-0.6262594236951465,-0.4296288319312647,-0.33038886492861425,0.17395778972978806,-0.005520383328352727,-0.9349167223707665,-0.45121992175193243,-0.776021721016748,-0.3463808934632492,-0.6860764598307602,-0.40534248303297116,-0.7419159499948541,-0.28779657033761313,-0.5454936760818468,-0.17808689111021944,-0.4454894522409739,-0.44717530816129875,undefined,1498201672909
903d185fccf839df,-0.25372189703646864,-0.3450549751431011,1.074006015009281,1.14221759994048,-0.7222011254625607,-1.2164485836000294,1.6585495224398759,-0.9845118878500808,-0.3776387457215222,-0.22132512370657095,0.06408868848214534,0.12383388000982251,-0.7477857620320856,-0.48269825567686103,-0.833916516443015,-0.45751433024728433,-0.8289974153583958,-0.507131885735409,-0.7995836668125123,-0.4456614336856712,-0.6472437702127394,-0.36487308899378934,-0.5245258559670897,-0.5296814595112522,undefined,1498201674389
903d185fccf839df,-0.08185611003607643,-0.38966799808835717,1.410876231769671,1.3276935947947006,-0.5125786235475426,-1.3774782079891579,1.7801780418376474,-0.4289952624690925,-0.5127427189795933,-0.4821199051190678,-0.13471133333288726,0.06964489646549038,-0.3517644273618538,-0.4623299379587464,-0.803390184622037,-0.34436029091771353,-0.7372367050946491,-0.45109166762693076,-0.8253109405039273,-0.26776319300046664,-0.6047737037598464,-0.3753492896048521,-0.43914433543916254,-0.49377263590977305,undefined,1498201675889
903d185fccf839df,-0.1858072454238968,-0.30924688488974245,1.9499957487157862,1.7736528832545293,-0.5257546038764519,-1.6206298193821962,1.8967336784723392,-0.10115481222372577,-0.49673594767647355,-0.3208366764442757,-0.41713800172698406,0.14340362011656546,-0.5475991532976827,-0.31141899132674705,-0.834969175992747,-0.049351584386753286,-0.6210862248813857,-0.3099746825230525,-0.8438874731674081,-0.09051168842408658,-0.5098665777486748,-0.3710043613571901,-0.3491701758831175,-0.5110788333998473,undefined,1498201677401
903d185fccf839df,-0.3188646255688382,-0.4424994648312514,2.1043943651054278,2.1322354233331775,-0.5986184821530819,-1.7881137672246188,2.0112853938687545,0.2491866852608676,-0.3239335343150833,-0.388207235212588,-0.30150042291290285,0.03014132201450201,-0.865286597593583,-0.23920398311326554,-0.8265481057374373,0.1890802791339312,-0.6409367852595507,-0.22301703291646677,-0.8307894429065324,0.20812576043414957,-0.4190811286351636,-0.3286282279788926,-0.27711697334807417,-0.49686008744268534,undefined,1498201678901
903d185fccf839df,-0.3576731014351085,-0.5023750530956176,1.9538238135849508,2.098693976331858,-0.7301931144280672,-1.840689354561991,1.9340111747808157,-0.48930874328639573,-0.27028827582957965,-0.1432644846766309,-0.144102828050775,0.08618786744087199,-0.7826008244206774,-0.14199140281982267,-0.7981270193935853,0.2820281375521773,-0.6535926046963627,-0.138142922261433,-0.799534689381058,0.38339086600567746,-0.34154155523840196,-0.3604858317979769,-0.1091706728611935,-0.5261163731246826,undefined,1498201680398
903d185fccf839df,-0.39925346587617133,-0.6303444103700571,1.5352884670859974,1.519371356079092,-0.7627267758371798,-1.8594583626709147,1.954897093268245,-0.43651760166041714,-0.2765395703490879,0.1712914287112291,0.0627957829207149,0.020756880758547504,-0.8261196524064172,-0.12254892302330282,-0.8602323867586761,0.409326422965219,-0.566049804128518,-0.10173482836802326,-0.857307357627819,0.5232087482482057,-0.3231441846953791,-0.3515548138526724,-0.10781354536941189,-0.49687946813067746,undefined,1498201681938
903d185fccf839df,-0.4546940668156209,-0.6955031920735004,1.6469399778978762,1.7471854276987142,-0.76690276872677,-1.8843276484477036,1.8978487180216104,-0.8616565168263007,-0.26280088689421305,0.1359023551614446,0.15511966188426562,0.006332431315985283,-0.843527183600713,-0.022558841915850104,-0.8770744830958928,0.3123371333381293,-0.529153728744843,-0.05620729535216594,-0.8774091948238499,0.6513546088155241,-0.2960101495775713,-0.3143882552457136,-0.05726185185147681,-0.46399768314147244,undefined,1498201683395
903d185fccf839df,-0.44499193922270086,-0.67613163867951,1.8683301107033239,1.8714012541561278,-0.7058674466855877,-1.8937261291017506,1.9125493324774137,-0.72335992513047,-0.2876548004443619,-0.020322440990003954,0.1258632687908861,0.06862534998300002,-0.8565828319964349,-0.05681470255633762,-0.88128500349908,0.28202808102273424,-0.48360424424736836,-0.1345964715929638,-0.896783363731526,0.6284725149513479,-0.34878511199562073,-0.33287005706227996,-0.004067816513615014,-0.4901942289086142,undefined,1498201684900
903d185fccf839df,-0.4616240988012899,-0.6514769795304194,1.828135810782519,1.9020612863942175,-0.7467633773083296,-1.900201414114712,1.8802816104577806,-0.9358018735157877,-0.2108354390876313,-0.37991868609990087,0.18048881060692143,0.12305976092708976,-0.5127840909090909,-0.06977634280324298,-0.8423376235094937,0.39518216274938733,-0.44675270873822404,-0.11466669780145457,-0.8576222138848211,0.7570803313052706,-0.31508127338872083,-0.2356454983320131,0.12326993861550013,-0.3923928986321431,undefined,1498201686396
903d185fccf839df,-0.3382688462492685,-0.622713215394479,1.8160132241580733,1.87000916167248,-0.7248034097480577,-1.8817352065668203,1.8350647215178497,-1.1884081471697685,-0.2379712535406559,0.03331163739964866,0.10299692551711451,0.13270996197272786,0.30101799242424243,-0.1401397399274076,-0.8570744743695843,0.41740883314736144,-0.47588061448341246,-0.14607809616021228,-0.8710281036346418,0.6903896637543083,-0.34243573508004943,-0.25993619651532834,0.045760333005122104,-0.4024093328723505,undefined,1498201687897
903d185fccf839df,-0.19828133060242883,-0.670261488698296,1.5308220101998813,1.5233961226246757,-0.7679210490326144,-1.889731484484156,1.8847812041840784,-0.9352524517839063,-0.21245821298590012,0.16101636500411368,0.2642625968345719,0.02667647384293581,-0.4300983177361854,-0.1123647188365346,-0.8107586321387837,0.40124404104779804,-0.4176754665672476,-0.10894171325667604,-0.7984221978280052,0.917609130831214,-0.26339620531293095,-0.26349580726395055,0.14268876364581853,-0.3603850115527431,undefined,1498201689386
903d185fccf839df,0.02625296173016198,-0.6866979086456949,1.379613320799402,1.4164894712099263,-0.4197090590736698,-1.8878238381803931,1.9811820045516697,-0.15763852490208557,-0.22288284083641083,0.05932119061116893,0.30757046634236296,-0.09171360741276595,-0.39528325534759357,-0.13088139956378328,-0.82233758533425,0.5830987506462698,-0.23367115847321687,-0.11189919910010797,-0.8234148060348137,1.3370627857842696,-0.17740258142518378,-0.2910836797324193,0.0369683669897814,-0.4770255581985311,undefined,1498201690902
903d185fccf839df,0.10248379664825756,-0.7025473720509571,1.497007310120452,1.5170536646020643,-0.4852289532817753,-1.898538337999043,1.9733425494275627,-0.21390036350650415,-0.2828343743167659,-0.3333742999713096,0.23400788646373663,-0.16764089295956058,-0.3778757241532977,-0.14013972697663307,-0.8044428073606,0.6881703656613374,-0.1984909436262494,-0.1205436664446148,-0.8233798220783032,1.1756716833696799,-0.20301184707424053,-0.2980313481594067,0.08469824700438766,-0.46221001018724495,undefined,1498201692423
903d185fccf839df,0.02902502283200322,-0.5804481063017468,1.3560070478413613,1.2637418711562385,-0.6579463821128232,-1.8816979393590745,1.9918116769606184,-0.14019461119250798,-0.3647159434702538,-0.611367200627477,0.21467570064385127,-0.06948452143249392,-0.6389886920677362,-0.11791973341532883,-0.8602323573097409,0.7649535167741847,-0.2326458423736898,-0.18298016020858845,-0.8695028001358748,1.0528228860165374,-0.26059633412919364,-0.3827790952409246,0.09719724887982951,-0.4765363117932633,undefined,1498201693910
903d185fccf839df,-0.18303528783828477,-0.4835905731557332,1.0797479852445533,1.0091264029397045,-0.9435081898720553,-1.8599940886722772,1.8990426341288003,-0.8209029084361267,-0.4733348363295623,-0.678616010856653,-0.14128956680076604,-0.00597134409597256,-0.8739903631907309,-0.11051303004257045,-0.9139166470572881,0.637655118302257,-0.30294949757048917,-0.21317563633232986,-0.9013592795802553,0.933176968493328,-0.30015683339873506,-0.4346107352454866,0.014494287990166872,-0.5090634001249404,undefined,1498201695399
903d185fccf839df,-0.45330805351740516,-0.48241657238748276,1.2692373233366792,1.2897885959074586,-0.9739024231663511,-1.826876965205483,1.9346107621141135,-0.5719509249590558,-0.40203142515018275,-0.6511247569789324,-0.09196119619233786,0.06386542947873786,-0.6650999888591801,-0.11884555838614909,-0.9391798430987497,0.43761494339688223,-0.2774643640024641,-0.21055380052341938,-0.9030595042134447,0.9400446742200097,-0.3018679522195441,-0.36920972798078944,-0.011002679426391491,-0.47411404407834806,undefined,1498201696885
903d185fccf839df,-0.4214296786476234,-0.46304498976549996,1.3132604505374972,1.3248608618547344,-0.8720843026191016,-1.8054898900755898,1.9056381953571688,-0.6797628829958545,-0.3805897193277666,-0.3332734861178274,-0.18558794376352677,0.019168995625453482,-0.5693585672905526,-0.2410556201041315,-0.9865483007058795,0.27192513895686,-0.5177169089146588,-0.2907162013814534,-0.9637148572568138,0.42730723002219556,-0.45709887281497563,-0.3904317244425036,-0.330105962863707,-0.5364718616067898,undefined,1498201698386
903d185fccf839df,-0.1941233942240108,-0.4683281247485925,1.4319302073446525,1.5248422374901351,-0.6673063630029402,-1.8053291712997246,1.9658923167388143,-0.24988889054898852,-0.36002212209420875,0.2569882525909817,-0.11599036436250043,0.09656881042367067,-0.8043602384135473,-0.25957228788060566,-0.9844430478665197,0.23151300325198304,-0.5245436195536359,-0.28980425718185576,-0.9650652419823438,0.39492430093144354,-0.4686398492431613,-0.3771589070936915,-0.35818296049985326,-0.5295693470222429,undefined,1498201699875
903d185fccf839df,-0.1941233252131913,-0.2816572384340219,0.9355572877024013,0.8023883165944323,-0.5841876422522989,-1.5735721975171515,1.8845287467178948,-0.35234399732952454,-0.39991033363890993,0.2661095595223807,-0.1290082298373885,-0.05165166123806644,-0.8957497771836007,-0.34104574006390787,-0.9644430244157436,0.13856506003957228,-0.6165691424969749,-0.3027741259937178,-0.9597546623189657,0.5288137842484525,-0.45440211312034234,-0.3854228449276148,-0.41426788442010654,-0.5109814036534734,undefined,1498201701388
903d185fccf839df,-0.01671345051452634,-0.02454431852094615,1.0089289122334817,1.04937701868899,-0.5977956146829552,-1.3157976256622637,1.7108090161515155,-0.824096708771103,-0.4209112368140384,-0.367172238869277,-0.07875280647933842,-0.049771423200393336,-0.7869527072192514,-0.324380670425976,-0.9570745916234645,0.1527092354612393,-0.5917155905205607,-0.3368326974782983,-0.9553956483292267,0.39224497002370945,-0.4904188625108678,-0.3673825488872706,-0.37907216917706293,-0.5145988195251647,undefined,1498201702890
903d185fccf839df,-0.18303528783828477,-0.21180233674560744,0.6548325306303255,0.8043245647303955,-0.6163715862431351,-1.0318936470699829,1.604467553977494,-0.8059251477531837,-0.2972234492322907,-0.4935907953852014,0.13528710567381508,0.10793049375137655,-0.6259330436720143,-0.4558490984091319,-0.950758796294216,0.1304824802691006,-0.6577937071122519,-0.4577665884634855,-0.9718031693456697,0.29654363205968187,-0.5713307488453322,-0.4199408840268634,-0.3926160722174455,-0.5105477975050129,undefined,1498201704444
903d185fccf839df,-0.06106591056284015,-0.1689503587947155,0.6267600549231179,0.9059754625953981,-0.5464597054671836,-1.0822517991612222,1.6072341119350977,-0.8485135653740474,-0.3821251199626859,-0.3602669532641443,0.020151940857518005,0.03701522580789063,-0.26037488859180036,-0.45399743551671684,-0.9307587654812062,0.14058559192330405,-0.6672618138852416,-0.4554993950809858,-0.9426894397771808,0.17968483123713977,-0.5753872233838255,-0.4256585516528401,-0.512368455474827,-0.5619316625447721,undefined,1498201705885
903d185fccf839df,0.07476346167312305,-0.17012415496701958,0.5827374359961989,0.9628595177898288,-0.19348545041071802,-1.0347655957687956,1.5447972552499085,-0.8720250935900938,-0.17293362054903144,-0.28410009641505873,-0.054905269516070276,0.15618279618786493,-0.669451871657754,-0.4836241195000049,-0.9128640022320238,0.005204882195759173,-0.689745768028529,-0.481565791655771,-0.9343352479146326,0.0028490843243268484,-0.6100881075328491,-0.42677528455351854,-0.5565865971398472,-0.5586388167695353,undefined,1498201708094
903d185fccf839df,0.37137072155621087,-0.01984819853597505,0.8813264957910432,1.1407244865334758,0.01754619103631945,-1.194747060658822,1.5719342181417066,-0.9625010718887251,-0.33459509463976284,-0.2527253701835946,-0.21696993705258064,0.1758930610217637,-0.7608414104278075,-0.45029413563343584,-0.8991797741104962,0.13452375602197567,-0.6480959725925277,-0.4587228635788782,-0.9250224932739495,0.06274903762194939,-0.586869996034003,-0.4313006544030865,-0.5108802645872883,-0.545125490303863,undefined,1498201708894
903d185fccf839df,0.7691567451765902,-0.019261183537853662,1.546772407556542,1.455213933225683,0.10209462498164833,-1.4714839716677568,1.7391583231539025,-0.4972735523410646,0.06794946109068886,-0.3210646200855754,-0.38811227834725437,-0.0022778766175495127,0.13129456327985742,-0.3882632280005262,-0.9012850490365575,0.13452377015433645,-0.6378332162410774,-0.4567849824924697,-0.9265408014054662,0.08156593647645746,-0.5852498753696299,-0.3975973228692122,-0.4331630363000996,-0.5681455192104633,undefined,1498201710399
903d185fccf839df,0.8952842313575016,-0.19477893102807955,1.9034210865427574,1.5255942249665604,0.5004288129360934,-1.6281229799504648,1.7255201435360419,-0.7432207022664036,0.038217102822780936,-0.33789220010439686,-0.5336178771679663,-0.07635051836526971,-0.025373217468805696,-0.36974656022405206,-0.921285057762866,0.211306907134823,-0.5627460154525841,-0.4205668761785419,-0.8906401651520252,0.11893796582280049,-0.5506303706667035,-0.38157377380015955,-0.39525748636325914,-0.5110615759247523,undefined,1498201711883
903d185fccf839df,0.9146882795108832,-0.47126317051120703,2.215408500448153,2.1820544472906964,0.2900554681346525,-1.7905408322462406,1.904186539131388,-0.1890564322596189,-0.1538618704274434,-0.5712903674440137,-0.11005557945326024,-0.16935195911214737,0.23138786764705885,-0.19846725702161444,-0.8728639626927055,0.47600646242386285,-0.4772087923638559,-0.35495757943161127,-0.8522276739161981,0.3100788667647263,-0.47114605879304344,-0.4017052553158649,-0.36500193418770244,-0.44089186818252063,undefined,1498201713388
903d185fccf839df,0.9202325397362046,-0.48124245470726296,2.247309041024525,2.404196252350716,0.34462109138584873,-1.7901425315095896,1.9210541194976487,-0.08795220549363161,-0.265961727262643,-0.4084294452502373,-0.1273579348081399,-0.14564017576858845,0.2574991644385027,-0.13273311425929651,-0.8328639010666858,0.556830846892503,-0.5167585007372586,-0.2852952001762194,-0.8160401687349005,0.4033472519367931,-0.41172191043224354,-0.4040391324947927,-0.2684499163115661,-0.43861090429688304,undefined,1498201715872
903d185fccf839df,0.950724832296951,-0.507071202308581,2.6856231038862535,2.657025450200674,0.3469765128368322,-1.8085924354752028,1.9201731353373277,-0.1081962304052541,-0.3708330852758583,-0.13486222360468467,-0.23704350702753416,-0.20550446587224977,0.17481339126559717,-0.1549530948698262,-0.8233902007105793,0.5325835598166324,-0.5468175917779511,-0.3021788278042165,-0.8229110373032994,0.4113236471895375,-0.4198093367129336,-0.4156854809177749,-0.2790977011013126,-0.4342477459253258,undefined,1498201716398
903d185fccf839df,0.8786520027680931,-0.6262353346111997,2.625011441448773,2.6895408429380963,0.1348340143411793,-1.8775891591834066,1.912239017763747,-0.38117132740192394,-0.35649038475258565,-0.359620915125751,-0.09270552173678073,-0.18267037707681102,-0.6650999888591801,-0.08736723741199505,-0.8023375397967726,0.6033048043663476,-0.4482841241973503,-0.23829842473658047,-0.7879899541872182,0.7805783705665785,-0.3244912764648426,-0.3609309640142394,-0.09761931878748548,-0.41438479859005783,undefined,1498201717890
903d185fccf839df,0.6693637186942365,-0.662043307952589,2.418933822256933,2.494206817992223,0.17365222845466421,-1.88560407101811,1.8741094617286036,-0.596328284593863,-0.5350974933999245,-0.022737634568081738,-0.21764875586322038,-0.20675435168166664,-0.6259330436720143,-0.07718303322522681,-0.8076007197496918,0.8599220201350488,-0.4207043459484663,-0.20572176291961944,-0.7600936685306784,0.9105104560694295,-0.27326627219042876,-0.35314533578145485,-0.1100714356484596,-0.43085759840580373,undefined,1498201719429
903d185fccf839df,0.8024212713662267,-0.6649783537152036,2.162453221885951,2.11287237465515,0.21014588175720525,-1.8982145730152173,1.81982763134555,-0.9419653588811799,-0.5447583334772914,-0.5052484500333743,-0.12970555345850496,-0.20623496520002352,0.2618510472370767,0.011697044626186514,-0.7918112314265706,1.134724701210653,-0.3507099561976781,-0.09279271218898924,-0.7376339055614909,1.1228396186454854,-0.1781730604218981,-0.4060120804719322,0.13825472905750283,-0.43633922276243037,undefined,1498201720887
903d185fccf839df,0.6776797984835311,-0.5334868772240434,2.427866481892216,2.472057915761076,0.14302141169324475,-1.86070450549844,1.8371028139645664,-0.7434231753066484,-0.7177324870417956,-0.2554082085222384,-0.15747342122439936,-0.18523681518556762,0.2400916332442068,-0.004967986159421668,-0.7044426901067198,1.112497946018514,-0.40822463951130583,-0.028006699365869206,-0.6708913269514227,1.2327229276657035,-0.1161590092723755,-0.3053926015022769,0.24469218353331088,-0.48300787935747547,undefined,1498201722436
903d185fccf839df,0.5778867720011774,-0.519985488425263,2.1694714678812277,2.232673338300208,0.18714705516910338,-1.8926639980982516,1.7802464101806907,-1.1258055222510417,-0.616292527369742,-0.6199354453084246,-0.08229456944786416,-0.09232077620886578,-0.9305648395721926,0.08391206579044257,-0.6876005790450356,0.9548905800253559,-0.3725357082577781,0.02258718895732169,-0.641224848393883,1.2841229358864086,-0.07585762148710033,-0.33014981018112544,0.20288511639904683,-0.5516725506133313,undefined,1498201723901
903d185fccf839df,0.814895322039349,-0.35562111358332055,2.616079544224338,2.6051450968985783,0.34261536002402365,-1.8489511664247187,1.8468094243102535,-0.5136948225070117,-0.6207018066160758,-0.12013310052818343,-0.1784352466350781,-0.05531576861954192,-0.9784355503565063,0.031139498521157265,-0.6865479268575374,1.049859196445106,-0.39618049712125036,0.057716027198078314,-0.6030712386221917,1.4094354884015639,-0.02888374363835449,-0.3036566333956854,0.18174319531477526,-0.5465502456439428,undefined,1498201725387
903d185fccf839df,0.482251785413471,-0.43134617986694507,2.592473271266297,2.4880525271962326,0.35277763325121647,-1.8619157110627995,1.7991152704590254,-0.8429820102998133,-0.5360534766317845,-0.18567923241362982,-0.22257633673500327,0.04711149004345706,-0.8870460115864528,0.05150785509159555,-0.6644426432051677,1.11653923590375,-0.28576379010702757,0.1266374526190283,-0.562104907764492,1.366504613100625,0.00783028719867149,-0.32371574799326713,0.19722192727254698,-0.554551191003083,undefined,1498201726884
903d185fccf839df,0.8481597102073465,-0.42312799912123794,2.5720566711604693,2.4993405319704207,0.2441915256810791,-1.8355300887752442,1.794194900845891,-0.853107143712334,-0.5609953447468339,-0.334690442486786,-0.42977534553346397,0.0850311949798905,-0.8087121212121212,0.002438691311787625,-0.6360215936724847,0.9164990044689323,-0.35031512599487175,0.07119886469695902,-0.5602647463938187,1.3764058117994118,-0.024832298366363723,-0.27938650994696024,0.16416841215928868,-0.5322987624834217,undefined,1498201728395
903d185fccf839df,0.3893889634438351,-0.4565878832421494,2.508893727887727,2.3099897039713784,0.05002843184229289,-1.8428089604136728,1.8084353075519697,-0.9098045405589976,-0.4722193171075754,-0.5524756115524303,-0.38630348187491353,0.05818221048675732,-0.5345435049019608,-0.0429271466831902,-0.5486530376281662,0.886189839094651,-0.45301157058935076,0.04666504045888266,-0.530423347650001,1.3054805713199265,-0.03391428537524639,-0.3230467831790202,-0.04114298823423526,-0.5571657699940695,undefined,1498201729927
903d185fccf839df,0.40186308312777685,-0.47126322896719175,1.7235017835550686,1.838016512166048,-0.03277141935878534,-1.857662520041692,1.8719372341161749,-0.608438572718853,-0.5523981094449651,-0.2727299487001054,-0.31350053797167954,0.01610295545092381,-0.8783422459893049,-0.03922389860300738,-0.612863613659214,0.7447473499952209,-0.4729700365848153,0.00494994070505174,-0.6001675580833443,1.1208994036955566,-0.105639175119697,-0.3179191995464514,-0.1305726646134928,-0.5278731836181498,undefined,1498201731390
903d185fccf839df,0.22445303590206322,-0.553445416388163,1.8995925133996938,1.8189956662188405,-0.061849088009349136,-1.8855015867757767,1.998265226706906,0.08093707538366107,-0.48754345625854073,-0.02797321581095157,-0.22044292585515027,-0.050314560094330524,-0.7477857620320856,-0.004967986159421668,-0.6212846544655886,0.9245814711805178,-0.4138345301562321,-0.01537247464214916,-0.6106907612993114,1.125749913189936,-0.11120267399996721,-0.4109807745107286,0.07727123449653807,-0.5691054285324977,undefined,1498201732899
903d185fccf839df,0.1828725679447712,-0.6180171246375002,1.7349859781625625,1.7578037116716365,0.04478273188611522,-1.9408932247366222,1.9496664094652048,-0.2913253059286735,-0.4760438976264604,-0.18807666976575838,-0.19397766207633318,-0.061489978971553914,-0.7651932932263815,0.011696966921539232,-0.6518110378222032,0.7609122834183919,-0.39771043068891143,-0.01511915800792338,-0.6553374132589851,0.919610925939071,-0.15704814487783844,-0.46825243681151,-0.031400063949311725,-0.6406624237580735,undefined,1498201734394
903d185fccf839df,-0.015327333700081384,-0.5857312558988355,1.4312925777385492,1.5515146675520834,-0.11055187407525574,-1.924183261485041,1.987409390152562,-0.10343751180153478,-0.35775085832336995,-0.6101429142096538,-0.1393795849622701,0.05142339534108571,-0.7260263480392157,-0.15124978203577066,-0.705495342294218,0.6214903827321365,-0.5443315763574205,-0.08772635672109232,-0.698738632956015,0.8315010200722837,-0.21869681347326977,-0.47671505977396256,-0.1366816453135873,-0.630146199046437,undefined,1498201735888
903d185fccf839df,-0.007011391932425808,-0.5816221362979895,1.4134280208788312,1.4960495620385559,-0.16459292132607023,-1.9227414630819308,1.9410853628583717,-0.4310081022912991,-0.46594267734451966,-0.3961319439852017,-0.12838690073702483,0.048320610651683,-0.49102467691622104,-0.20402227160040867,-0.7254953510205264,0.637655118302257,-0.500282623195835,-0.08189371379479796,-0.7160697329837113,0.7006758322589793,-0.24588066557939442,-0.5087805101911984,-0.00920093144997805,-0.6106166011545094,undefined,1498201737408
903d185fccf839df,0.09832561873197136,-0.5176374430467737,1.8415336566191711,1.8142099374062601,-0.2130385496440241,-1.8762708108878592,1.8894070410468935,-0.6778086991076124,-0.49883889337362974,-0.40961013109272354,-0.15331679624426187,-0.031112634047643768,-0.44315396613190733,-0.1669889360474604,-0.7286532634096182,0.6962527475787583,-0.504782810574106,-0.013212940748498499,-0.7326311843960939,0.7293169388370376,-0.21074102960350377,-0.5038306685236829,0.12363309075600265,-0.6548500713615333,undefined,1498201738892
903d185fccf839df,0.2189090517200197,-0.5287907718530686,2.672862633518755,2.5712191126386204,-0.1532580767520009,-1.8753996758181373,1.783607315767579,-1.2213531004858778,-0.4733969671355846,-0.8694437484736124,-0.29145142857079753,-0.1007970306905204,-0.5214878565062389,-0.049407999183579236,-0.7149690205636231,0.815468651074379,-0.3369819652901673,0.0144683571671783,-0.676404812882344,0.8442509306132163,-0.1605381364089888,-0.3583660547891578,0.2879943472363159,-0.5773730743343358,undefined,1498201740395
903d185fccf839df,0.5501665750476818,-0.4284111048763381,3.020578907006637,3.052447329765665,0.04106960117076874,-1.8517462510928104,1.8624015592934016,-0.40201233012697213,-0.4859301685460238,-1.5102088138780712,-0.4332938613500788,0.03331422244650504,-0.6607481060606061,0.13853628300136836,-0.7139164125495276,0.9468081133137703,-0.20267716424766186,0.0885827959883398,-0.6804559661169064,1.053623592821344,-0.08939670077616099,-0.25164917353284605,0.46773903494777996,-0.5447401521403138,undefined,1498201741903
903d185fccf839df,0.3561244372541986,-0.3573822462616617,3.2043260207265414,3.009699641283249,0.02626848036969286,-1.87433754215492,1.8045484568542391,-0.7592745542975974,-0.3635671346703805,-1.801494731698657,-0.5463135827029504,0.09734165640280759,-0.33870877896613194,0.22093543064774537,-0.7086532399588422,1.3105176455696002,-0.12148695104106758,0.14932205730330628,-0.6497399661174941,1.2659835613484276,-0.018306192871804516,-0.2027162244569326,0.5642108457342286,-0.5106334478748827,undefined,1498201743421
903d185fccf839df,0.17317061287889987,-0.3409458117002667,3.0965023206468776,2.9517746039773827,-0.0025211863871748776,-1.8768321581785832,1.8696387841867252,-0.4433914816546084,-0.45536384410806946,-1.3574054070948411,-0.496134181198101,0.1757318130691728,-0.1994485294117647,0.22741628314813442,-0.6928637221867858,1.2236314393319923,-0.21468435566968638,0.1915374591425712,-0.6703385766777891,1.4306391378459158,0.02708301858867803,-0.19649660252780607,0.42572486976686136,-0.5308113191672846,undefined,1498201744892
903d185fccf839df,-0.06799604606473839,-0.49415682850792203,2.44190271974582,2.5127618307171726,-0.3150315231179059,-1.9066767012197487,1.8628170668003157,-0.8238998479511943,-0.28773478759921745,0.13693168893207008,-0.15901001084696542,-0.06044755159845824,-0.4300983177361854,0.26630139815046866,-0.6981269242264064,1.2802084236658757,-0.20777011148677518,0.1841975775810372,-0.6580171932439107,1.3671205504069086,0.023895581533958828,-0.19395448439064472,0.16442120335271354,-0.5520217989107833,undefined,1498201746381
903d185fccf839df,-0.047205743075272893,-0.423714984891367,2.5229302198782806,2.499060816484247,-0.41702450517002154,-1.8794781743984996,1.9631625768153433,-0.18255150303851922,-0.2751265055335182,0.5003475697914433,-0.09922103045320284,0.000012349200172645752,-0.499728442513369,0.37277225405366315,-0.7286532486851507,1.213528440736675,-0.14922951737648926,0.23409483986843863,-0.6711292174813294,1.436244172634555,0.056781336345164045,-0.12985646057668004,0.1440379856303441,-0.5470015555324783,undefined,1498201747885
903d185fccf839df,-0.10680441841477945,-0.6262353638391921,2.2613450247411797,2.3437155414451247,-0.44009531918014816,-1.8944877905139963,1.8942905900070908,-0.6628588647609728,-0.1638965755246321,0.32129076871514767,-0.02293408988268944,-0.10547546437603945,-0.7390819964349377,0.15797876279788822,-0.8002322869574128,1.0781476038178832,-0.32197017102537506,0.07181949121182706,-0.7444348045897307,1.2616566027686686,-0.06918741317365054,-0.2978033649357222,-0.24243728884295407,-0.5026336264731308,undefined,1498201749384
903d185fccf839df,-0.3022325004956589,-0.6238872746187142,1.0995267016073282,1.1495194997732503,-0.5005032163886838,-1.8747335120744624,1.9736292165986118,-0.1766849391871115,-0.24984324557105073,-0.32942815090833016,-0.0867524755839024,-0.14333420357474683,-0.3343568961675579,-0.0244105177590397,-0.8497060489395389,0.9710554569190839,-0.2994013764336978,-0.08622544961768043,-0.8058528102205207,0.960817170328584,-0.21056672707994603,-0.333231492726949,-0.29354973454844646,-0.49100745785614086,undefined,1498201750896
903d185fccf839df,-0.525380779530034,-0.5921884062641746,0.13995717038530373,0.07771924707447865,-0.7725907558401708,-1.8834518545706491,1.9654873411469571,-0.46645447106778104,-0.2527452589504366,-0.7201597051107941,0.1236489020151947,-0.0805473096639622,-0.08194769385026737,-0.22253895232765736,-0.9244429775141915,0.8983134826325863,-0.26761071822580573,-0.23970433969464117,-0.8297958975054066,0.8571394358598177,-0.30139283265564015,-0.30037353604571415,-0.2932873303202031,-0.48101519992013086,undefined,1498201752390
903d185fccf839df,-0.5309249707445359,-0.5728169113261687,-0.09164088126763356,-0.1766331171378574,-0.9527241734102604,-1.880959568595762,1.88548337218409,-1.0742589983180468,-0.2777664807607736,-0.8677069043152262,0.06804071942556258,-0.10647057803101677,-0.8130640040106952,-0.3864115910096602,-0.9939167114114572,0.6053253645148009,-0.3768460575054175,-0.42605120719704315,-0.9122603101737198,0.4938285145386256,-0.4915769351171627,-0.3080215958243216,-0.11380007182191491,-0.3811828250449157,undefined,1498201753918
903d185fccf839df,-0.6293319149178543,-0.5827961662942324,0.15016534336974285,0.036859033643276036,-0.8626523272791295,-1.889447317155515,1.9325779329406505,-0.7008623710217942,-0.34246472733128397,-0.9085242810890428,-0.0272728644471037,0.09809027489089012,-0.9044535427807487,-0.4660332896451256,-0.992864096035128,0.7265617857617925,-0.501681693356339,-0.46603741429586254,-0.9259250823174694,0.4707462451646621,-0.5105848938313255,-0.3572948636813236,-0.32527544402583836,-0.3089427793924733,undefined,1498201755383
903d185fccf839df,-0.3438128994421315,-0.6896330128642942,1.3004997260330493,1.2032495612839553,-0.6917451856400276,-1.899642397909288,1.894982221771018,-0.8467939277732245,-0.330907530509841,-0.8335419580257256,-0.09992115404433147,0.054974833479348645,-0.8304715352049912,-0.5799108359703039,-0.9949693562367217,0.4618621880756704,-0.5546994036541459,-0.5642740335633271,-0.9662057221613592,0.2672711839814876,-0.601294466725889,-0.43127756318006155,-0.56853016719845,-0.45469275343240206,undefined,1498201756885
903d185fccf839df,-0.26619612023663963,-0.5064841873104596,2.046973392067958,1.893177085071486,-0.5995441962989119,-1.8291829117656893,1.8756663017127555,-0.8358312056189872,-0.4615445726801826,-0.6193585746373266,-0.08685621316934188,0.10574951795695005,-0.5780623328877006,-0.4854757953431945,-0.9823377876649261,0.42549122919714316,-0.5835271926223673,-0.5101526965309154,-0.9594537996592486,0.15586343190456925,-0.5949117869663427,-0.3900415677365182,-0.6062154348635148,-0.42496446799286985,undefined,1498201758389
903d185fccf839df,-0.3077765191831122,-0.4906347239051975,1.3375046072385905,1.2344890113283673,-0.587612780092298,-1.8647503946069819,1.8272121262803596,-1.2340212934413897,-0.4998364199724474,-0.11054156066851212,-0.01993378170936669,0.016407443526578944,-0.6346368092691622,-0.23364898148524585,-0.9654956471543067,0.10623530625211623,-0.602181408391987,-0.41079514272784295,-0.9576066410556215,0.08473801307474961,-0.553138370617199,-0.4201593190440991,-0.6432930501002013,-0.4228693053954815,undefined,1498201759874
903d185fccf839df,-0.09571634653446316,-0.6209521996281072,1.0937844772351066,1.1063573029688345,-0.5093591974077293,-1.8944179144355966,1.8154174436043635,-1.3336887900204528,-0.488954573786951,0.13589468411882574,-0.04793520569267463,-0.004273744244268644,-0.5258397393048129,-0.07440555831276606,-0.9307587581189725,0.27192513895686,-0.5470839675831851,-0.26571373525287384,-0.8921094942738856,0.2991921616608858,-0.4166680525784097,-0.47280628903727895,-0.6553070929996189,-0.449719308214533,undefined,1498201761398
903d185fccf839df,0.04149921152676446,-0.6291703949878105,1.2698754612166814,1.4084291881922661,-0.4055867979240828,-1.925464344451996,1.8828062207353586,-0.8950680764365089,-0.5098865472651398,0.1302929340134645,0.012613473840638328,-0.09546978863427112,-0.5127840909090909,-0.1540272569482314,-0.9033903166003848,-0.027124913988779174,-0.6609706641728569,-0.2842565959514474,-0.8646889923931342,0.17826816799610756,-0.44815226919082224,-0.4748362995870252,-0.6512229505133922,-0.4745761867035659,undefined,1498201762885
903d185fccf839df,0.24524323537529952,-0.6596952187321111,1.3936495586530058,1.5735862013086976,-0.3984896734612308,-1.940967759798129,1.8862880889014,-0.8779912532898323,-0.47355873509098007,0.09904030035743563,0.047744312048500014,-0.030131070222408504,-0.8348234180035651,-0.19106063135350332,-0.9065482069027753,-0.027124942253500713,-0.6406996814185476,-0.30972136361325703,-0.8661933066826834,0.2215993961744197,-0.4558076818378663,-0.4504796292074917,-0.6172955557141316,-0.45830690669013485,undefined,1498201764384
903d185fccf839df,0.28266573244876375,-0.6309314838241631,1.3145362180236027,1.5945082691258026,-0.3328052142741176,-1.936598106592334,1.9129096145044109,-0.6965434316038124,-0.43129916657069084,0.08479748164396698,0.1269590481647625,0.0522622551790065,-0.7608414104278075,-0.2660531662825438,-0.9223377173125978,0.0981528395405307,-0.6005272978605228,-0.3193917689076145,-0.8530602923857754,0.40268511295342285,-0.4265949548610878,-0.46814640330184354,-0.6059137666089971,-0.4962182852251773,undefined,1498201765945
903d185fccf839df,0.011006780944378972,-0.6379756345736275,1.3802514586794041,1.5722961562067612,-0.43012847951207084,-1.93060497320093,1.9575584559447372,-0.4133217375262178,-0.39894243292631265,-0.19003311311893128,0.04137547829465369,-0.03800410210490488,-0.7477857620320856,-0.21050311115002315,-0.9412850738514081,0.37295557714557787,-0.6115991241469457,-0.30633324001928536,-0.8372474996209732,0.5252259425150111,-0.4023660551169135,-0.41360899276262447,-0.5292680815353947,-0.5121220240270602,undefined,1498201767384
903d185fccf839df,-0.013941354907275367,-0.5522713863919202,1.5997271778448452,1.5350248265571456,-0.5991019075952861,-1.878227371780121,1.9507761807654935,-0.4485966262204619,-0.4631762302392944,-0.10311051124037698,-0.008417975692101972,0.09594732798182473,-0.6476924576648841,-0.41511245002212804,-0.9286534979173788,0.2800075491390025,-0.6801981368812007,-0.35885867492386775,-0.8455737050780522,0.5235475128094915,-0.4394841756312677,-0.4058756137882914,-0.5098606238467239,-0.5487927999302603,undefined,1498201768896
903d185fccf839df,-0.22877365766858512,-0.6332795292026525,1.37642313967329,1.359441700843515,-0.7614719185438996,-1.926871203845071,1.9054488411276118,-0.8351279218219355,-0.4493719374475171,-0.38675399927695253,-0.018933884401015108,0.04980864771746368,-0.673803754456328,-0.40677993462932394,-0.8802323660360494,0.3244608899349507,-0.6908647733318193,-0.4033222717575335,-0.8639263400993323,0.6546498793046722,-0.44333735942462243,-0.44053180678912324,-0.5150165405606868,-0.5385539379864382,undefined,1498201770387
903d185fccf839df,-0.2772842266223656,-0.7160487023937528,1.3789754370563492,1.402214071721111,-0.7808193169358482,-1.9553601295146628,1.948375166013098,-0.6074786226437691,-0.43103121534639965,-0.15286406225960122,-0.00843253196428837,0.058502322398429715,-0.5998217468805704,-0.33178734789718534,-0.8360218208180115,0.22343059306984056,-0.7546722541411973,-0.34014482620768455,-0.8461264529782662,0.6464117154873202,-0.41140378890378154,-0.42055790061621023,-0.4363129573769927,-0.5666580941684094,undefined,1498201771884
903d185fccf839df,-0.041661724387819614,-0.71487467239751,1.2239384286497559,1.2945167022062054,-0.661731519565225,-1.9688976678452308,1.9422687639417944,-0.6310731119463272,-0.4360790424177784,-0.1364140550448692,-0.016248030292384457,-0.012396848348761634,-0.7956564728163993,-0.37993069965694753,-0.8412850007709307,0.22747176989619025,-0.7267395171143773,-0.3660592324165822,-0.8250030820181804,0.5148781941081961,-0.4417403357970698,-0.40729432203157057,-0.4388883357695039,-0.5605017086975955,undefined,1498201773393
903d185fccf839df,-0.2343176763560384,-0.6244742750028394,1.218196712551433,1.3010035474811759,-0.8378329365983341,-1.939237135500961,1.9213486632469468,-0.8094773719434804,-0.38215150402467607,-0.12402753461122053,0.000055263828911961805,0.2529330777090023,-0.6389886920677362,-0.34660068988882936,-0.8033902140709722,0.25778085047630683,-0.7574757312085028,-0.34562282200140193,-0.8259196641879716,0.4630932236339623,-0.43928354934413766,-0.41330324441934435,-0.27906155584299386,-0.5421868844515803,undefined,1498201774897
903d185fccf839df,-0.23708973745787962,-0.5728168820981764,1.0746441528892832,1.1963960484513547,-0.8191232521949716,-1.8893960744626292,1.9126387567941558,-0.8014142904593059,-0.31926002328364195,-0.29674963723350206,0.05411934353246243,0.12622669739408757,0.5012046011586453,-0.3669690723608167,-0.7876006962989158,0.2638427853041606,-0.7514104644117918,-0.393962181799628,-0.7490876840001158,0.3417380751390897,-0.44094517812780876,-0.4905713473108083,-0.31552457431762077,-0.352995849046077,undefined,1498201776442
903d185fccf839df,0.8966701411394881,-0.605102736222845,1.0867659771028806,1.1892181524419527,-0.13119526058352235,-1.8831770054057417,1.8735309117754932,-0.7800896734653707,-0.38338345165072407,-0.3778502481871322,0.07914445318725269,0.2203211370645963,-0.3822276069518717,-0.39937321830579103,-0.7791796481303075,0.22949233004464356,-0.7119457097432583,-0.41262536662865545,-0.7337156906875679,0.24075506879843345,-0.46286789097937536,-0.4816103573371035,-0.2786230714122015,-0.3548593250499948,undefined,1498201777893
903d185fccf839df,1.7310510093006144,-0.5258556530204731,1.0446575176790185,1.0785796747277423,1.05845874726949,-1.8632177543653448,1.8131032238890072,-0.6102178414813245,-0.12737600092099807,-0.6521803259624409,0.05636048798137676,-0.012461175037432888,-0.6259330436720143,-0.4530715846443475,-0.807600749198627,-0.11805218399385047,-0.7466093591800583,-0.4561643547539985,-0.7303712150579309,-0.0267775266798256,-0.5283188524149622,-0.47591770744936107,-0.41058100423143196,-0.3050861133471944,undefined,1498201779385
903d185fccf839df,0.7497529730664865,-0.5722298963280473,0.7862630119419286,0.8921024828044919,2.2976589605315274,-1.8864798668409126,1.7123264106549956,-0.7557644888574185,0.06000734555288578,-0.35299534612808453,0.05791286440544404,-0.09710313465224048,-0.5867660984848485,-0.46325578883111573,-0.8139165298034079,-0.09380486865325843,-0.735920354276677,-0.4864611580596282,-0.7623606342087043,-0.08946459658387931,-0.5564970555694195,-0.5094493226003378,-0.4194576357852485,-0.3246565923274801,undefined,1498201780900
903d185fccf839df,0.5002700273010953,-0.5675337763430763,0.5623205817534218,0.6941887168173945,2.6987600078050957,-1.8874185500015284,1.68919200496854,-0.7002087511697759,-0.07057050775130591,-0.17300421198606797,-0.009202264769568529,-0.055107851137474496,-0.5606548016934046,-0.5354708488476955,-0.8381270589329036,-0.2594947437550845,-0.8193511752333983,-0.5608099177955896,-0.7770679309712157,-0.2392298779368239,-0.6249574393559924,-0.5406474790211094,-0.6083063960957142,-0.31184303570033783,undefined,1498201782382
903d185fccf839df,0.2549456735169071,-0.6526510241406583,0.5431805115445478,0.670251793480079,2.786229575884354,-1.9552949105578845,1.7515184046706473,-0.39602714071600886,-0.2296870572224259,0.15739291417556936,0.007713779693305737,-0.12461867040040597,-0.8957497771836007,-0.5678750336449934,-0.8707586804044105,-0.3281954281563463,-0.8660430979386425,-0.6148299257027434,-0.7762283139902186,-0.2718129893896785,-0.6594532296150616,-0.516991228863077,-0.6551670492954756,-0.3090948710334925,undefined,1498201783897
903d185fccf839df,1.22099777050312,-0.7125266416330168,0.720547771286127,0.9166030018246217,2.017692568710376,-1.9661468353762257,1.794983843456268,-0.46767376805931277,-0.15408898200366908,-0.18214911223494304,-0.04836656221146659,-0.05688784831460643,-0.5084322081105169,-0.5762074842839247,-0.8897060811166235,-0.34031905756192077,-0.9158936298463107,-0.6251652902271804,-0.8620441998025076,-0.36726795156691233,-0.7197747872212467,-0.46219325498846914,-0.6588238001517681,-0.5544701131057564,undefined,1498201785411
903d185fccf839df,1.3249487678693015,-0.7694671549067761,0.8864308364202121,0.9291598250150794,1.0575844619829495,-1.9811191857699033,1.7975005690373032,-0.9045142218199441,-0.24386602902087384,-0.4875850693876126,0.012841323310894956,-0.19053425426203854,-0.4823209113190731,-0.6613842298751207,-0.8697060576658474,-0.32011298970948227,-0.9192043850049758,-0.6714591080770557,-0.8365828043861049,-0.33205170824479757,-0.7194856176690093,-0.49568836327206844,-0.651762220036845,-0.5366772633440137,undefined,1498201786893
903d185fccf839df,0.867563896382367,-0.7137006716292597,1.0287068661854084,1.0077739669882222,0.37470674821154293,-1.9576264790194908,1.8268386879033909,-1.0401076349680396,-0.27986469974359635,-0.30816136589912846,-0.018849696112603703,-0.1605212194037071,-0.24296735739750447,-0.6576808717133542,-0.851811294416665,-0.3968961408223296,-0.9125713563974845,-0.6983297869818232,-0.8653326995137387,-0.3122647062905756,-0.7438827916967963,-0.4846836577476718,-0.630903223368961,-0.507815103135921,undefined,1498201788444
903d185fccf839df,0.29513964510024715,-0.6755446236813886,1.1180288880731495,1.1274742803329092,0.25042467304828786,-1.8923379035082564,1.7728671827092224,-1.4071491631876425,-0.3253624403252528,-0.022792262773267492,0.02841078803308409,-0.09851776505459281,-0.2516711229946524,-0.6271283757100204,-0.8844429085259381,-0.37466939976255165,-0.8407327288427688,-0.6981777965494959,-0.8839582105690525,-0.3383034758843821,-0.7529429214178905,-0.4611668946079089,-0.6333088462419099,-0.5107699059387734,undefined,1498201789878
903d185fccf839df,-0.05413570605012245,-0.6467808595454483,0.9323673607132388,0.9380786704112039,0.4279352345507026,-1.863492605335109,1.8333790096412392,-0.9467495109034766,-0.366744083834424,-0.3867478590063167,0.04471238980223665,0.003414569779922867,-0.8043602384135473,-0.6178700353463961,-0.9054955988886799,-0.33627789486793186,-0.7977932888359077,-0.7182722277458737,-0.8984905868210816,-0.31574475314402467,-0.7583974858385787,-0.4702880160378827,-0.5947939701520857,-0.5158175867750012,undefined,1498201791383
903d185fccf839df,-0.35767317044592795,-0.6074508546713153,0.779244765946652,0.7975665661690704,0.270810923190171,-1.8192091094429748,1.8490552769919681,-0.8567138589592131,-0.2279557022125691,-0.6236879634706701,0.09315762157387189,0.04846713266443169,-0.5693585672905526,-0.615092528056999,-0.9012850490365575,-0.20291771702411873,-0.7976337700106799,-0.6992860625456859,-0.9188932864627325,-0.15823405253345238,-0.7344677957317035,-0.46793274003338375,-0.604543021461773,-0.45901067127270156,undefined,1498201792905
903d185fccf839df,-0.44221998163708887,-0.6285833946036853,0.5374385413092756,0.5667018096741151,0.27564520056819125,-1.8538775065758808,1.8930545632619042,-0.6069276005394436,-0.27075253511072445,-0.6733266050606239,0.07227663000232526,0.17712888296422757,-0.5998217468805704,-0.6058341876933746,-0.89917978147273,-0.16250558131924175,-0.8129408711833999,-0.6868291628194826,-0.9457190591131134,-0.14805568082042184,-0.73589614041364,-0.4527414472555728,-0.6124445032653623,-0.5039903194498109,undefined,1498201794387
903d185fccf839df,-0.2925304074081487,-0.650889964532298,0.7371357982488912,0.7613433250203072,0.030547325408411926,-1.8594117778883699,1.91153947432959,-0.5735412010801955,-0.23631760020551384,-0.4039603068370275,0.08263356220856942,0.09716182960625036,-0.49537655971479505,-0.5928725215449202,-0.9107587273059625,-0.1039079803074619,-0.8111892703338626,-0.6878677654884515,-0.9385613224671294,-0.055957576169504024,-0.7266045050586843,-0.4357014838631271,-0.5624826724840905,-0.462571175853692,undefined,1498201795877
903d185fccf839df,-0.09433036774165714,-0.6749576379112595,0.9017428417599215,0.9425785220119851,-0.05573938507678747,-1.8351713853068934,1.9269212162626521,-0.45271600677440127,-0.2216906597753121,-0.26338422050282784,0.0266559078798464,0.08806485510585098,-0.5780623328877006,-0.6595325410811566,-0.896021876445872,0.017328511601333654,-0.9019668536950624,-0.6798819242863935,-0.8652207505030096,0.07248085565557005,-0.6784281239482135,-0.4541666413619893,-0.5353456503725593,-0.4841636867973065,undefined,1498201797387
903d185fccf839df,-0.07492611255581715,-0.6233002596205928,0.8966387552677019,0.9186688258852345,-0.24154021730792544,-1.7772222427962843,1.8321903426657586,-1.0221046201050685,-0.32243548650866566,-0.4310626307110274,-0.01611805711628597,0.024098822559385596,-0.8957497771836007,-0.6382383530645107,-0.9076008443658059,-0.10794917126617237,-0.9824370047969204,-0.6498447729338966,-0.8398643077268878,-0.011902626318979462,-0.6714960294236472,-0.45270158234205443,-0.5588645023281095,-0.4905520524201906,undefined,1498201798950
903d185fccf839df,-0.01255530710364988,-0.6626303229507104,1.2890157855625048,1.2285190471364391,-0.013516601640631202,-1.7431478022025801,1.8155357779513357,-0.9973401541765196,-0.3779691605954048,0.16571482641285382,-0.08431537048267465,0.03677219580293638,-0.8913978943850268,-0.6150925215816117,-0.8760218750817973,-0.010960008830329618,-0.9431926965310627,-0.643625820996948,-0.7988490023372209,0.08064203125745889,-0.6335601289343059,-0.40487371180138887,-0.6018626736990468,-0.5384037449671802,undefined,1498201800375
903d185fccf839df,-0.17056109914352352,-0.48182952816136904,1.1537574935186865,1.0826733625925946,0.05087186126803815,-1.7064063816656394,1.8153253957692874,-0.9125243597018263,-0.5941520585480582,0.10091037167243834,-0.06988577410760322,0.06785134289783346,-0.7913045900178254,-0.5456550012313655,-0.9276008604543482,-0.17058801976610577,-0.929368786060793,-0.5946151699883448,-0.8207560171859801,-0.0002614015211999765,-0.633626304303958,-0.4357878356772697,-0.6018263331850626,-0.5259470569271243,undefined,1498201801895
903d185fccf839df,-0.24263392867238157,-0.6303444395980494,1.3145362180236027,1.2362598268978324,-0.011654891230864836,-1.7009699367032634,1.8192438045014028,-0.8781816996075438,-0.5613541112701963,0.13266288258301498,-0.05870886496949494,0.12032372886587223,-0.504080325311943,-0.5400999996033458,-0.8949692610695428,-0.08976369182690873,-0.8534392382785949,-0.5312540679645184,-0.8256397907680576,0.03724921130324566,-0.5936535367121691,-0.4516165215725183,-0.622009905028451,-0.5708280187053022,undefined,1498201803383
903d185fccf839df,-0.03057347998045466,-0.6960901778436295,1.9633941028263373,2.118594604463822,0.06401698560811896,-1.6635227582838537,1.77168901975853,-0.988038820836622,-0.3860631368420055,0.3947542302877559,-0.0803726346684634,0.11607616764252619,-0.7782489416221035,-0.4271482393966641,-0.7781269885805755,0.06178188066200341,-0.7476685671234143,-0.44898912874255015,-0.7304901611119851,0.18107068959066755,-0.4930097819260219,-0.3950602629398716,-0.6260647455146415,-0.47630972153196455,undefined,1498201804890
903d185fccf839df,0.1523803443948441,-0.6796538163522153,2.2619834167581314,2.2883871385562746,0.10396662715203252,-1.6862677789884677,1.7782924766824197,-0.9446112398969757,-0.39845358532283326,0.5451900875741669,-0.0934862489368653,0.12777446103444606,-0.8217677696078431,-0.3864115521573366,-0.7676006728481398,-0.0655164612804813,-0.7221261837309806,-0.45011639258424596,-0.7266489120874988,0.2241401448156591,-0.48737775794656196,-0.41795388089642227,-0.6065894878765392,-0.49098253077206727,undefined,1498201806382
903d185fccf839df,0.4087930115972167,-0.6303444980540341,1.7547639321144892,1.8229388112858067,-0.014658322488108975,-1.7084188455168647,1.840250696043203,-0.6275682799289114,-0.5341212305569334,0.03136637891684609,-0.07079443164158941,0.04043633523025147,-0.7173225824420678,-0.30216063801234816,-0.7718112079757946,-0.16250555305452022,-0.7124304992066792,-0.38647664084483097,-0.7268798065650443,0.14696313382911777,-0.46383420826414956,-0.5057772582545481,-0.5524915923898899,-0.48740374993878594,undefined,1498201807882
903d185fccf839df,0.2923676875146351,-0.5340739214501572,1.3828032477885646,1.1976722023477824,-0.2171836981157998,-1.6775145005184282,1.9025928735185704,-0.3132136692808397,-0.7057213050283713,-0.7121238527522417,0.04924088422874236,-0.04612406562909653,-0.6476924576648841,-0.31975153262110023,-0.7676006875726074,-0.03924858579143596,-0.7171214132982952,-0.4090219201868563,-0.7063581603983254,0.2027824976160824,-0.4613341412568905,-0.4814630521805964,-0.5331059396850503,-0.5004260748372227,undefined,1498201809381
903d185fccf839df,0.20089074082157599,-0.5921884062641746,0.9093989714982508,0.8089342868407711,-0.18532888775793588,-1.66852363731327,1.8897857159853095,-0.3821636041822015,-0.5601086801087385,-1.2077262995223037,0.033352258910692385,-0.11786386338039805,-0.042780748663101595,-0.3493781907028392,-0.7791796407680737,0.013287306510262416,-0.7658863611120319,-0.39833191187952527,-0.7223878540066858,0.1862599665945786,-0.469367933706203,-0.48473463254263444,-0.4121795297545515,-0.5050751615971132,undefined,1498201810941
903d185fccf839df,0.10248379664825756,-0.6362145895792632,1.0797482393815028,1.093868295616448,-0.19799058135043077,-1.7049319751022203,1.8601294055654258,-0.6581125263261378,-0.5118829834085037,-0.8044864879252499,-0.10566114473475147,-0.1970942044252504,0.4141669451871658,-0.4327032539754583,-0.8107586321387837,0.04763762044617177,-0.8139182746309732,-0.4359875956773811,-0.7922859936247906,0.21987477464622388,-0.508485920985972,-0.51165378139113,-0.48490193813076704,-0.5635619141257432,undefined,1498201812388
903d185fccf839df,-0.054135844071761384,-0.6127340481103924,1.065073863647897,1.1089699436431282,-0.1339106867162287,-1.6909029660766843,1.8784012946961428,-0.471092074902241,-0.46011303566113837,-1.0380975419573828,-0.205525635682967,-0.21412191495716393,-0.4213945521390374,-0.33363899783882583,-0.8149691378175034,0.13654433030278976,-0.7425809342680939,-0.3597769523661227,-0.8007031566873559,0.3725657582511339,-0.44987825704390083,-0.46259464012068735,-0.39856050424978895,-0.5252969728453317,undefined,1498201813883
903d185fccf839df,-0.08878617652715519,-0.557554462919028,1.1716215421045055,1.1925008946192592,-0.2021151414977199,-1.650479019809098,1.8790797939412203,-0.4265599840519778,-0.46768682143586515,-0.7982976442953005,-0.13094292727489246,-0.08300116585443328,-0.8565828319964349,-0.4178899249345888,-0.7549690601029414,0.12846192012064728,-0.7932664395639266,-0.4169317715405483,-0.791075545502169,0.3775086605183115,-0.48215337215002196,-0.44866665455624544,-0.4014555015998909,-0.4798149202252327,undefined,1498201815375
903d185fccf839df,-0.009783487539676783,-0.4383903598444017,1.0318970473115203,1.0330369594201994,-0.06181822819352398,-1.6494029116193447,1.9170068456819669,-0.12591633809300445,-0.6374214642190671,-0.49029265179126963,-0.16854157494606803,-0.2554552394000214,-0.7564895276292335,-0.3901148908929412,-0.7412848246191801,0.18301837257079898,-0.697426117479905,-0.32103200479708516,-0.7673283687077328,0.5106282221553478,-0.4029544311342002,-0.4434878999685813,-0.35421892477952605,-0.564448878890141,undefined,1498201816899
903d185fccf839df,0.18148655464655544,-0.4859386331482188,1.1875719394611663,1.2668977754940207,0.012629645710583082,-1.6394919978752818,1.9398914205631368,0.06426592116845643,-0.628101031303286,-0.24217459364518,-0.11221380641794546,-0.2821411680738551,1.1322276069518717,-0.3475265019088751,-0.7307585088867443,0.34870820527554275,-0.6528521238973983,-0.33497714728407546,-0.7564063472045075,0.6522015265056372,-0.3757949444501155,-0.4225145799832253,-0.3770574683800802,-0.5811927039303578,undefined,1498201818378
903d185fccf839df,0.24662924867351527,-0.4389773748425231,2.1567115057876283,2.0440105688646018,0.07741925403059316,-1.6968425263005815,1.9196550582936196,-0.07477713736999549,-0.5489431030082934,-0.047668907150992146,-0.2407230448308284,-0.03631511171892558,0.8101882798573976,-0.13921394085813646,-0.7760217504656832,0.5628926121320275,-0.515156012919558,-0.24587896270345794,-0.7732686613194265,0.8087575181136156,-0.31067153418325516,-0.40394065814583324,-0.2950208865564845,-0.6746307841593071,undefined,1498201819881
903d185fccf839df,0.3450364688901116,-0.4747852897279277,2.1433128975401274,2.05330614302787,-0.058115389480858565,-1.7957513400200578,1.8853623813218483,-0.5013032072494875,-0.4888785294128352,-0.4121098436963852,-0.23792678409932874,0.265406526211585,1.1191719585561497,-0.20402229750195777,-0.7854954213728546,0.5527895287425456,-0.5459427394757232,-0.2569932758896279,-0.7462819624226081,0.8350734566695113,-0.303620665464933,-0.41457388578726484,-0.3134906933745144,-0.7177022760409203,undefined,1498201821384
903d185fccf839df,0.33394815547192713,-0.5534454456161553,1.5939849534726236,1.6095757381457543,-0.13687297655967687,-1.8087438363836135,1.9006783786920796,-0.4833303548446147,-0.5040510838276837,-0.1586085196464333,-0.13004029543845436,0.430094111928834,1.7414911987522284,-0.20865143530683355,-0.816021775280534,0.4275119165368434,-0.5770507400433897,-0.25274387093678463,-0.7365424009176409,0.8023209624648324,-0.3078967432479542,-0.40899496260928897,-0.28584482292046204,-0.7183014152539149,undefined,1498201822953
903d185fccf839df,0.41295112050268346,-0.5845571820606041,0.720547771286127,0.7548709505297397,-0.14416554476829765,-1.7606124384868822,1.866575053854822,-0.6738591850472855,-0.5533305329132724,-0.579817026363018,-0.06762585492826995,0.1170285862563037,0.10518326648841357,-0.19754144500156873,-0.8012849096959758,0.37497605249986654,-0.6751389230357034,-0.31203288956147823,-0.7537475596708422,0.8097430144892491,-0.341146587420204,-0.4001361218301419,-0.3283897597664781,-0.660365114666161,undefined,1498201824398
903d185fccf839df,0.6804519631016015,-0.6379756345736275,0.7250137198983444,0.7715754937956983,-0.11893472258101936,-1.7171278714276614,1.8513379615874788,-0.683830716254922,-0.5352262139996328,-0.9064670489451037,-0.05678861218941798,-0.07432152366726995,0.24879539884135474,-0.234574780554517,-0.8065480675621937,0.4800477240443772,-0.7030046600497077,-0.3172005706056301,-0.7349821126793797,0.7356303022508288,-0.34178671621144996,-0.47376746449936696,-0.26590856873291113,-0.7307908406576415,undefined,1498201825876
903d185fccf839df,0.7317344551355843,-0.6397366795679916,1.594623345489575,1.5951622319762282,-0.11520101280960028,-1.689477471539447,1.8754900928341907,-0.4198193536323238,-0.5889173038347616,-0.7488814253655858,-0.2218676249830983,-0.2771163384726011,0.47074142156862747,-0.367894897331637,-0.7444427517327394,0.30829604130594424,-0.743073470972313,-0.3517974425906956,-0.7153280706270574,0.6284417244685148,-0.37436437707079295,-0.4527703424163536,-0.21549729398695391,-0.6939410679911742,undefined,1498201827380
903d185fccf839df,0.28405167673616005,-0.6021676612322382,1.600365569861797,1.4559922048603058,-0.35324289608602266,-1.6921584232575384,1.949671669595893,-0.026666010544162566,-0.5441368353105291,-0.4530813844523293,-0.25248907618500865,-0.12749193882796087,-0.2516711229946524,-0.35308151648766933,-0.7191795704157455,0.30829604130594424,-0.8273963789446047,-0.33277961379606413,-0.734478341702904,0.6199571863317608,-0.3665920606958309,-0.5036792861372015,-0.2606610146714369,-0.7404310335221995,undefined,1498201828876
903d185fccf839df,0.1745564881554767,-0.5798610913036254,1.1365308204020212,1.3170138401456688,-0.13780896908063833,-1.7319488176103661,1.963370328932047,0.05662537615824832,-0.6007894730866841,-0.49362240312102124,-0.20240113444149746,-0.05558373982151817,-0.6041736296791445,-0.3651173835668526,-0.6581268331514516,0.35072876542399606,-0.7616512131776858,-0.29133049781510034,-0.7277264197207436,0.7570187476471422,-0.3200617489304113,-0.495530801457667,-0.18494828369199598,-0.7638721298687321,undefined,1498201830376
903d185fccf839df,0.22445303590206322,-0.5176375015027583,1.4816955589176921,1.5143116436238213,-0.10579987683212606,-1.8044440609822485,1.996679448409436,0.1572757442027292,-0.5767820056626403,-0.14271234828242482,-0.05653425277746249,0.03889036708886273,-0.673803754456328,-0.4058540578554055,-0.6612847308160759,0.4578210819111246,-0.7991330364109821,-0.31088662890409663,-0.7191413326099001,0.7112391679891014,-0.33633626574764613,-0.453044501173511,-0.1721955664294373,-0.6972453530150692,undefined,1498201831880
903d185fccf839df,0.3672126816615636,-0.5100062480711957,1.0842139338567707,1.2184277540122435,-0.010904029619564872,-1.815855002193113,1.9592625706842235,-0.06645918521968773,-0.5809893136766533,-0.31977084203081946,-0.00674358693572138,0.17108318158574237,-0.39528325534759357,-0.3549332441339571,-0.6423373301038628,0.46792405224172035,-0.8017654516369513,-0.243225454707198,-0.7067849654274915,0.7635938851316261,-0.2960642151754454,-0.5139304439303181,-0.09565666862061825,-0.7600797568543011,undefined,1498201833419
903d185fccf839df,0.25355945318623296,-0.5581415363731341,0.9011049580168687,0.9309357483895707,-0.10270387686220253,-1.843223563438759,1.9948753979957656,0.05414399350776416,-0.6061390206334721,-0.4718971908157497,0.03410116907531084,0.1653111565655601,-0.29954183377896615,-0.3012348130415279,-0.6686531856950564,0.4497387282584252,-0.7497550586505719,-0.27620109251289143,-0.727397570435343,0.6748064470728609,-0.33349870361470674,-0.47792803181587706,-0.1118505113159983,-0.7076817424914836,undefined,1498201834885
903d185fccf839df,0.06921940848026004,-0.5816221655259819,0.9853223851384915,1.036746460356896,-0.3206578017845697,-1.7970324206919814,1.9312472424365887,-0.4125662224705187,-0.4697646529719827,-0.2517128928267493,-0.047583762137480175,0.12848641745365758,-0.44315396613190733,-0.28179230734345895,-0.7423374915311458,0.4780272204253669,-0.7516518174117582,-0.33713667655461016,-0.7456592466277245,0.621373838870257,-0.3792318637596859,-0.4242835961192426,-0.17790815506479124,-0.6602215144601892,undefined,1498201836396
903d185fccf839df,-0.08462813663250794,-0.579274076305504,1.3713193073180199,1.4507397565512414,-0.5322757371231859,-1.74867974574864,1.8537784155354156,-0.9579229869763647,-0.3977213616317335,0.06940223415524575,0.006141748949046826,0.02141630513309277,-0.7434338792335116,-0.34011987624076395,-0.7812849009696673,0.40932647949466205,-0.682749040122634,-0.37664157939135445,-0.7568751335882984,0.391428854528639,-0.44166636465904563,-0.41942633111186844,-0.20866891138036933,-0.5907413536164801,undefined,1498201837887
903d185fccf839df,0.09139569026253154,-0.5064841580824673,1.1543956313986885,1.2821072088549752,-0.498404934264855,-1.5672017309577053,1.8276302650310792,-0.8485145112065242,-0.11217963000730277,0.06310490798216212,0.21341491880311098,0.013045399739059967,-0.8565828319964349,-0.41233491035579456,-0.8128638776159097,0.15068861878334291,-0.7592144702389633,-0.42131416418580075,-0.7825254418707049,0.15549387278137045,-0.514789393931462,-0.42922835136749704,-0.30573925007652675,-0.5605646501598199,undefined,1498201839376
903d185fccf839df,0.1981188522467834,-0.4254760298857312,1.1543953772617392,1.2467095921698732,-0.26271846818430766,-1.516573389206552,1.7581560479920426,-1.1471568406116142,-0.16080807342073647,-0.06217613741753894,0.2815378954623072,-0.028266077017321194,-0.9349167223707665,-0.4428874193099029,-0.8391797332071033,-0.09784615853849428,-0.8073817218580077,-0.5335085968161464,-0.8225681912764442,-0.03136626470173822,-0.614968155461094,-0.4356023906490713,-0.49772627435752537,-0.49467749799952065,undefined,1498201840879
903d185fccf839df,-0.08462827465414688,-0.3738185931390797,0.9515076850590621,1.0135989002568975,0.08331295506875931,-1.633380077552635,1.8311410526550462,-0.7388647979535929,-0.17265672331749232,-0.13130547753480074,0.1316554720627713,-0.015839235036088306,-0.9305648395721926,-0.4762174161272465,-0.9265482229913176,-0.2291855783808033,-0.7868368370611906,-0.5824305849633395,-0.864654007959493,-0.24206319123928732,-0.687304318319564,-0.437233262964268,-0.5889360144397704,-0.4053956961443041,undefined,1498201842388
903d185fccf839df,0.1371342671252903,-0.5792741055334963,1.2054364963208841,1.1465879136640849,0.11893231833752378,-1.8236276782556722,1.8733678503429636,-0.7574583368215596,-0.17138808781732176,0.40258105745036127,0.0006621772033217424,-0.1374845377618644,-0.7216744652406417,-0.5058441389628583,-0.9486535360926224,-0.3968961266899689,-0.7808691679708005,-0.6061917895855475,-0.8892408030684456,-0.3028408571524182,-0.7196890594140467,-0.4317129139109586,-0.5890999805538462,-0.3877457836701149,undefined,1498201843889
903d185fccf839df,0.13990615570008288,-0.6743705936851458,1.0612460529156815,0.9832407075133061,-0.10880330471049006,-1.8830046425376417,1.8922419712757474,-0.7931201623068478,-0.1825772922930168,0.12374703407036994,0.09286189390558948,-0.1918227673801549,-0.08194769385026737,-0.5438032865358522,-0.9370745681726885,-0.32819544228870706,-0.84610597005507,-0.614620937642303,-0.8989383827049549,-0.3191478113646788,-0.7274004704386351,-0.43375250932995013,-0.6008349378188238,-0.4318284821188396,undefined,1498201845426
903d185fccf839df,0.042885224824980216,-0.615082020418901,1.1435493205342473,1.1169741936381348,-0.4340267604761156,-1.9097443092361444,1.8773809440462708,-0.9896911705991839,-0.25280576843334696,-0.090427137097077,0.09329748268389045,-0.12746885230861701,-0.08194769385026737,-0.5734299705191404,-0.9223377099503641,-0.23322682586895685,-0.8222721523106108,-0.646766958995758,-0.9202856530261353,-0.23533407311017435,-0.7364835850306997,-0.44207271978986457,-0.5907958976235154,-0.42489731848907136,undefined,1498201846919
903d185fccf839df,-0.018099498318151826,-0.6990252820622288,1.1716215421045055,1.1922554107185699,-0.49111237373023314,-1.9499376597986822,1.8634482311543301,-1.1185145089549788,-0.34175179085971397,-0.5424761850362002,0.042483545826367125,-0.08131540247610985,-0.8043602384135473,-0.5799108100687548,-0.866548167363457,-0.1524025544592029,-0.8390466087603913,-0.6375398607720277,-0.8684182928779051,-0.18488876442805954,-0.7030806037399122,-0.4311150626811574,-0.6122259325581413,-0.46578872939579696,undefined,1498201848379
903d185fccf839df,0.12188798282327809,-0.6491289487659262,1.1250468799314766,1.2397005738681695,-0.34602232849286324,-1.9616910017649767,1.8876266672445705,-0.8402437750779194,-0.38911206284606,-0.22116366753430589,-0.02691046317445175,-0.03385194318692706,-0.9436204879679144,-0.5780591342255652,-0.7907586086880076,0.05976132051355009,-0.8411959449317441,-0.614069972649703,-0.8151445760373608,0.09637923876104164,-0.6237622591187826,-0.3708109464164386,-0.55774018995563,-0.4882068709828984,undefined,1498201849895
903d185fccf839df,0.33394815547192713,-0.6491289487659262,0.9974444634890383,1.115843280393393,-0.14882495022473827,-1.9666802313578058,1.9357074032524764,-0.4453029491131013,-0.34540747060015287,0.005651521937367181,-0.1345851316739642,0.08088090396752254,-0.847879066399287,-0.4845499315200506,-0.7739164608151544,0.47600649068858436,-0.7230738769580562,-0.5401265214862679,-0.7837708742801583,0.36471254746562887,-0.5321142590547396,-0.36585302099957984,-0.45853873379043647,-0.5512513635143903,undefined,1498201851381
903d185fccf839df,0.39216092102944716,-0.6749576379112595,1.2309566746450324,1.3076080067383826,-0.0668376601453695,-1.9604262246997948,1.9050727907550502,-0.6021178018308811,-0.34108430005951945,-0.2888061272035251,-0.13747101982751592,0.035988586310408924,-0.47361714572192515,-0.3901149038437158,-0.7781270033050431,0.45175923187743544,-0.7309516474815078,-0.4359939278071686,-0.7552518740949666,0.5041608700599283,-0.44961747442506567,-0.3884539430003122,-0.4268918738082646,-0.6095235965607467,undefined,1498201852889
903d185fccf839df,0.080307652887625,-0.7594878707107202,1.340695042501652,1.337008898964709,-0.0831302004453115,-1.9657322319434156,1.9547787515886195,-0.33453180537577093,-0.345948299810731,-0.4289912273428141,0.014577666846539961,0.10512677103881289,-0.3125974821746881,-0.3308615488279142,-0.7739164829018559,0.46186228700219584,-0.7786671952359513,-0.36476731134719104,-0.7296995206693514,0.6538183600869301,-0.3822850407118278,-0.38836224888894183,-0.4114094759280559,-0.6613073407384668,undefined,1498201854383
903d185fccf839df,-0.07631198783239396,-0.6972642224538684,1.4357582722138171,1.6377854309884683,0.020703908613365633,-1.9445850687234183,1.9086151349730591,-0.5608593077492277,-0.3390289969682022,-0.27967724843403885,0.1117444706908002,0.03127192168881187,-0.8957497771836007,-0.29105068655940697,-0.7591796173172977,0.5669338172230988,-0.7212035404452267,-0.29545957591345007,-0.6842622316742472,0.7054339500306209,-0.32500191100997095,-0.4304212904495469,-0.35028530809333214,-0.6797572734363843,undefined,1498201855918
903d185fccf839df,-0.019485580627187048,-0.6990252674482326,1.628437791432055,1.6956226331775703,-0.08594848646516254,-1.9371128682143932,1.9905125488119682,-0.07344356557726132,-0.2673907733338398,-0.2000349038982014,0.10758009601058335,0.1037333462945912,-0.8304715352049912,-0.2577206897420633,-0.7128637750864971,0.417408861412083,-0.6749155899287604,-0.30558595324116644,-0.6977450852487573,0.635940765004565,-0.34326495129180384,-0.4540395932892209,-0.32175948545220956,-0.6959480221148991,undefined,1498201857398
903d185fccf839df,-0.033345575587705636,-0.7324851223411517,0.9196071444826899,1.011680690582921,-0.012416037010805141,-1.9465020304772873,1.9887032408864147,-0.0760571594076915,-0.16697233508310846,-0.49640385210922733,0.04834991698785124,0.051410202939470684,-0.6085255124777184,-0.40307656999217023,-0.7360216814774297,0.29011049120487675,-0.7480332329042477,-0.3349961429204514,-0.6877326500158885,0.5325710022044976,-0.37366902914063144,-0.44300544808130293,-0.3937111574047845,-0.6889597710167074,undefined,1498201858890
903d185fccf839df,0.15515230198045615,-0.6837628628830803,0.797747460686372,0.6958182782025435,-0.015049170565380358,-1.9208361457279017,1.9762274522073566,-0.15116028650140154,-0.22390039978861254,-0.5194486417860974,-0.08795743268347499,0.11961864839070607,-0.8957497771836007,-0.3938182296285459,-0.7612848775188913,0.16079175870226792,-0.7784529076158015,-0.353520004649576,-0.6990744794927206,0.3848845118483897,-0.4085775421443104,-0.4578543225782966,-0.43804942129928526,-0.6394873938677136,undefined,1498201860370
903d185fccf839df,0.23692736261846342,-0.6297574392139242,0.6516420953672641,0.6360253276815343,0.0770078198854231,-1.937990993106982,1.9730822046460315,-0.14047521936410448,-0.243583427521991,-0.6602042628892771,-0.023841077439055662,0.04988730558038539,-0.8739903631907309,-0.3938182425793204,-0.7286532339606832,0.0718848509925992,-0.7075691180659449,-0.3891934764230817,-0.7117247128420569,0.31670019638151925,-0.43285425591620347,-0.4762375260292634,-0.46868361219589233,-0.6440132582994255,undefined,1498201861895
903d185fccf839df,0.4184953117171854,-0.5892533751155561,0.7275657631444542,0.6349248165492816,-0.00798289718607896,-1.9434320955805824,1.9281125208980097,-0.46233618000342114,-0.2943188749513015,-0.7087604335880443,0.127776916543881,0.14009685842499864,-0.7738970588235294,-0.4327032928277819,-0.7781270033050431,-0.0372279125840965,-0.8529375222027313,-0.4388310873553101,-0.791628292319663,0.11103855772199703,-0.5250064122613998,-0.4279563917548792,-0.5434025814650669,-0.6233792302081039,undefined,1498201863382
903d185fccf839df,0.19257479905392041,-0.629170438829799,0.9757520958971051,1.0046686242805865,-0.40809651373096134,-1.9686437806028645,1.9240284225011843,-0.6655944129961475,-0.2859030362288389,-0.917837390400239,0.37488537790508863,0.16624633571761524,-0.012317569073083769,-0.4095574224925593,-0.7518111845250186,-0.02106303569036848,-0.8213466722761085,-0.4173244111362603,-0.7584074339652296,0.013658790712102945,-0.5178024376467517,-0.47108812204998335,-0.5598675401966003,-0.6118505492553558,undefined,1498201864882
903d185fccf839df,0.22861114480752998,-0.6221262442383462,1.1518430798786798,1.267838904677243,-0.3743902840577753,-1.9208547801667022,1.9744549463412273,-0.3164402580998012,-0.3195957263864876,-0.6399412396675163,0.38928887065505635,0.16917412729010478,-0.19509664661319073,-0.423444939513383,-0.6886531796968972,0.15270926372596083,-0.7144025095809922,-0.4249746078349263,-0.7334568064768717,0.1616686483552713,-0.4861000872059822,-0.4638348485703845,-0.5628278892076432,-0.5474909842180322,undefined,1498201866373
903d185fccf839df,0.11495791633219933,-0.7500956015127856,0.9113131310013078,0.9146943414065519,-0.3194955220622757,-1.9505129831426413,1.9236208050593624,-0.6875389685323787,-0.26481840561354536,-0.4157150362822849,0.2262669251595241,0.13717760200383086,-0.691211285650624,-0.425296576504249,-0.6928637074623183,0.1890801378103235,-0.6411580485788944,-0.4332454314471003,-0.7218840810115799,0.27518598510242653,-0.469723958583437,-0.44383044057248217,-0.5768543376113457,-0.5189833758750979,undefined,1498201867923
903d185fccf839df,0.0983257567536103,-0.6743706375271343,1.158861580010906,1.1334624430998903,-0.3090761087397283,-1.9514749585187552,1.9028979354342017,-0.7797156076421269,-0.3543334384388838,-0.4549261062447293,0.0032324135871259693,-0.027041384532454565,-0.7695451760249554,-0.46047826211555676,-0.7518111992494861,0.207265687911391,-0.6605590472278932,-0.41773605209326076,-0.7367802927015451,0.31847101673279216,-0.46036074047783654,-0.4508524035359331,-0.5774926250002749,-0.5466230992206075,undefined,1498201869380
903d185fccf839df,0.15099433109662835,-0.6626302644947257,1.987000375784378,1.9950961364719657,-0.3753777084768182,-1.9536271755601335,1.9077972697621919,-0.7308783110644562,-0.3476202594592926,-0.5212660101368123,-0.1012751757993428,0.02931528366077795,-0.7173225824420678,-0.46788495253754064,-0.7949691143667273,0.42751197306628647,-0.6576699033616281,-0.42263141729012477,-0.7423357620179555,0.5109207854434162,-0.4348844715581326,-0.5028129033386461,-0.46112622602783676,-0.6003603902854567,undefined,1498201870879
903d185fccf839df,0.284051814757799,-0.626822349609321,2.418934076393883,2.3363164314720875,-0.3065766846354524,-1.9366563381417814,1.9639409926173321,-0.2949703468813885,-0.3646841210516064,-0.4459956290377343,-0.1970288126891166,0.005547838508204924,-0.6302849264705882,-0.4049282458353598,-0.8033901993465046,0.5346041199650857,-0.5994801129096287,-0.42168147460903616,-0.7207086195920293,0.828621509589145,-0.38615255418038597,-0.4447573254706238,-0.3404655536437369,-0.5467689354765471,undefined,1498201872378
903d185fccf839df,0.20782080731265473,-0.5534453871601707,2.016987010994643,1.9704416580923545,-0.2798133003692081,-1.9085331049185135,2.032137123601754,0.20859498155596465,-0.4756980315965559,-0.2955552596659768,-0.1817565316190335,0.017198010476824423,-0.3125974821746881,-0.3734498989596567,-0.8139165150789404,0.5386454098503216,-0.6058017067022364,-0.4230050592396512,-0.7055955088997415,0.813869799174698,-0.38692257861682566,-0.42411517327437065,-0.28305262119875496,-0.6411621290787751,undefined,1498201873883
903d185fccf839df,0.1302041316233921,-0.5827961955222247,1.869606386463328,1.7746861364807935,-0.10818615749477704,-1.862530630096715,2.0013736559722184,0.15082901893649028,-0.4298220857420341,-0.4965002370822931,-0.26843525053644957,-0.018485775954300596,-0.26907865418894833,-0.31419647918998234,-0.7949691290911949,0.5649131722804808,-0.6525775578616839,-0.3821069078415741,-0.677412354511091,0.851041648555229,-0.3549901992186113,-0.4046800334520242,-0.18316381874029358,-0.6466708000263984,undefined,1498201875373
903d185fccf839df,0.21613688710194925,-0.6878719678699301,1.4134280208788312,1.4789656635585677,-0.23462822217632373,-1.804001506432378,1.9336114451781026,-0.27653314840633153,-0.523395028116089,-0.48132473208959864,-0.18759101118063332,-0.17916508283401772,0.14435021167557935,-0.33919405126994373,-0.7244427282819634,0.45580040870378513,-0.6587696781141108,-0.394158499111521,-0.700158985417171,0.7811327065791086,-0.38094247153948385,-0.4240319663404708,-0.19808460079608217,-0.6137463343416014,undefined,1498201876882
