UUID,iqrAccX,iqrAccY,iqrAccZ,iqrAccXYZ,meanAccX,meanAccY,meanAccZ,meanAccXYZ, covarianceAccXY, covarianceAccXZ, covarianceAccYZ,pressureDerivative, pressureIQR, iqrGyroX, iqrGyroY, iqrGyroZ, iqrGyroMagnitude, meanGyroX, meanGyroY, meanGyroZ, meanGyroMagnitude, covarianceGyroXY, covarianceGyroXZ, covarianceGyroYZ, class, timestamp 
903d185fccf839df,-0.722194909414539,-0.31629112332318376,-0.2575236922647693,-0.1909822699667796,-1.1279821576887572,-1.1414121525415828,1.6548809408467202,-1.0308824620750234,-0.41403730425662866,-0.524504858602269,-0.01193246549811687,-0.25393908345655863,-0.24514329879679145,-0.31697399295476675,-0.4718108267652187,-0.14836132110341013,-0.45971337598516065,-0.5096513921376044,-0.33802061501796726,0.1329586531099838,-0.33047457025677396,-0.5666636689916315,-0.4900615075657219,-0.8213225057171331,undefined,1497541014224
903d185fccf839df,0.06228932473647641,-0.21150882924654674,0.6350541954729747,0.3987879204707683,-0.6044830334328288,-1.4093251247491956,1.8142811441638171,-0.4725535907539615,-0.4061471904347685,0.07047922201300036,0.006065079306141208,-0.9070859139321531,1.267135973707665,-0.14476894248615615,-0.5170740094462873,-0.3847724831520336,-0.7209990905308244,-0.42229384988306234,-0.6446683769000218,-0.15484293805280488,-0.47295401427857214,-0.6059389801148687,-0.6064783538671805,-0.5827418883466113,undefined,1497541015653
903d185fccf839df,0.5501666440585014,-0.05330811188487881,1.073367877129279,0.9317351257599913,-0.0349949232258358,-1.5189889115898776,1.8143620864385097,-0.5088339387819422,-0.5797092081663466,0.5550017578536657,-0.046415250918745286,-0.6296561553270087,2.470431567513369,-0.30956735433588106,-0.7076006172202792,-0.5686477528989587,-0.6735466771553003,-0.416000516466176,-0.7531823323749848,-0.35360048441196645,-0.5553363894471732,-0.5300879102930571,-0.6255118923426121,-0.511789175661948,undefined,1497541017153
903d185fccf839df,0.9354784789841194,-0.0756147402694762,1.5461342696765399,1.755401608079901,0.5883715388232216,-1.559939163004392,1.8315250026513368,-0.217450567799776,-0.21068342875853305,1.4567037131466902,0.06691126284182568,-0.31487130587372436,0.6796317959001783,-0.33734241427907774,-0.8107586026898486,-0.5201530939530531,-0.6715847994327947,-0.38822372016294204,-0.8150864514843554,-0.44094799016320635,-0.5792475880381723,-0.46717611953738925,-0.6169372095580252,-0.4565945559511618,undefined,1497541018618
903d185fccf839df,0.46146165495105423,-0.22060762017341293,2.3857575141944554,2.375001016159702,1.2392093030689515,-1.6185125378657212,1.7104382117680972,-0.8727530408942956,0.257433581954266,2.060412291105916,0.16509953214726084,0.018728328565287763,0.24879539884135474,-0.3354906736820154,-0.9223377025881303,-0.5868332182058615,-0.6636137737182433,-0.3387488855149059,-0.863399004523138,-0.5006105258876857,-0.5764863952852782,-0.4898741401561107,-0.6559396268051771,-0.4543590449257669,undefined,1497541020143
903d185fccf839df,0.8162814733592036,-0.11024868361462274,2.3934133897958354,2.4079862568147097,1.6979205322751125,-1.5714339561987518,1.7547215225734774,-0.2350296172691118,0.4371971806567429,3.0851341891024426,0.2877425344701305,0.06552865017549522,0.24879539884135474,-0.26234984049771365,-0.9160219072588818,-0.44539068670934906,-0.714544211769959,-0.2786012795231059,-0.875366125032428,-0.432973118636237,-0.5496403969523079,-0.399975051721621,-0.6428280964152691,-0.4448408251428827,undefined,1497541021616
903d185fccf839df,0.909144502361298,-0.10613957862777303,2.663930228020422,2.673634259233397,1.701664519347383,-1.5714968474665685,1.6332744465206752,-0.9119354539490749,0.21246639750837173,3.737464126509048,0.09305278258769954,-0.05339999482889507,0.10953514928698754,-0.27531153254771723,-0.9507588036564498,-0.33627779594140644,-0.5968721089014725,-0.21966057224146573,-0.908524011752533,-0.22994461553464757,-0.4991826769653765,-0.3817209842878774,-0.6644658517198785,-0.4178336356871357,undefined,1497541023114
903d185fccf839df,1.9999377961869287,-0.1284460901004011,2.904460939308642,3.194661063720793,1.7723992527255883,-1.6271144226395298,1.7289704642738573,-0.37553021193918185,0.349413779961088,5.312174038872452,0.04293754644932128,-0.12992240458591042,0.2749066956327986,-0.10866141895325358,-0.8897060884788572,0.03551399104059729,-0.5776588065882773,-0.11757985233045158,-0.8373384586823202,0.00597496491316483,-0.38810603395437643,-0.3331533480087642,-0.6513921672380708,-0.296862939936719,undefined,1497541024635
903d185fccf839df,2.1704177079107443,-0.18538666183014502,3.52269405102111,3.4883981479735553,1.4297621167250991,-1.5918078127368533,1.7748710908534766,-0.23953664075604153,0.3665679955581548,5.699564348088073,0.2425495465969182,-0.13970101522463324,-0.6215811608734403,-0.11977142220929297,-0.8591797124844766,0.10421454825061217,-0.5866997917126834,-0.06976612752184878,-0.8096310868888653,0.0920984707654262,-0.3367845992543213,-0.33344815909526193,-0.6898292743258354,-0.3502167762617339,undefined,1497541026110
903d185fccf839df,2.2896149895789377,-0.217672545182806,2.9465696528694534,3.3600254925739823,1.1938390939904124,-1.5616068958194622,1.756675464451923,-0.49442463887910704,0.47088000498676036,5.698815603143192,0.4693746051181474,-0.00038153005435539214,-0.9305648395721926,-0.0882930882843644,-0.813916492992239,-0.010960037095051153,-0.604473236379188,-0.12165193549704457,-0.8268922194500863,0.17468033479777018,-0.36352125544266617,-0.27010842825797343,-0.5535158322751381,-0.33541099255621043,undefined,1497541027646
903d185fccf839df,1.3097026215889283,-0.1988880067869369,2.95869173122,3.035564483304336,1.10724381148577,-1.5081648331085387,1.720470924290288,-0.6661265911437281,0.4755016625105946,4.723198031398193,0.4553151520171826,0.07678037796596003,-0.847879066399287,-0.11884558428769817,-0.8486534114765084,-0.08572245847111595,-0.6042794280999508,-0.0861684509652842,-0.8625269771838325,-0.004850138991157952,-0.3851778132765319,-0.261184019187963,-0.52326702903539,-0.3428644827223336,undefined,1497541029122
903d185fccf839df,1.1128885952206524,-0.16601516689213922,2.8655421527369933,2.8853406552691774,1.2487750056478557,-1.4666391588495764,1.7542271148084638,-0.2866009183731854,0.2538465299820389,4.347960469238262,0.40638326397996477,0.1651513725760573,-0.5867660984848485,-0.16606308517509105,-0.7981270120313516,-0.1584643338310882,-0.6160266460242927,-0.10545859784401657,-0.8375623561960625,-0.09911942226910797,-0.4073231441130716,-0.10727069227417443,-0.4462584812209435,-0.2867821019994835,undefined,1497541030629
903d185fccf839df,1.182189122109801,-0.1249241170236421,2.7870664417136934,2.9307386411093335,1.0309856451883619,-1.48528471990796,1.6851762950795526,-0.8205230956519967,0.08176431583604299,3.5269562406726607,0.250355580559419,0.17370610112997928,0.1878690396613191,-0.19198644337354903,-0.8791797580219539,-0.2473711284818708,-0.6585478314905829,-0.17061192350989507,-0.9281990446534455,-0.2937711710613799,-0.4957527399423652,-0.1389061987209744,-0.4802871440393566,-0.4396105835558672,undefined,1497541032145
903d185fccf839df,1.1974354064118133,-0.19830093333283086,2.9063748446747497,2.895392618384642,0.8045460284293993,-1.45579421994222,1.8356800897669732,0.06439278061854432,0.11488715066745343,3.487852662008967,0.2140448403585986,0.14339723841957172,-0.1124108734402852,-0.22994560389731755,-0.9297061427426432,-0.2978862769144259,-0.6617288479768975,-0.21515785048829664,-0.9534155514016625,-0.3446630310266134,-0.5382423492644737,-0.14791756884795781,-0.44674123338012184,-0.41017701327551254,undefined,1497541033635
903d185fccf839df,0.9742869893557994,-0.1613190469071681,2.7768582687292542,2.8870073241047227,0.5632847139898552,-1.5048363523433455,1.8325558790620744,-0.21809433435766423,0.21657869711988073,3.002107730507901,0.30451118543080846,0.11308536685545616,-0.8609347147950089,-0.29660570113820117,-0.9286535015984957,-0.30596872949365067,-0.7154560215697173,-0.21514518484455505,-0.9491404996929791,-0.35973811031667347,-0.5368891226643809,-0.2058753186080579,-0.5141067953563809,-0.4255051070778649,undefined,1497541035111
903d185fccf839df,0.8135093087411331,-0.21356344019595627,3.4793093158372437,3.4453086563563047,0.8676590600960462,-1.5107759102260023,1.7731354066878064,-0.41955378548239175,0.10915623395489488,3.093959586030874,0.4376815946194395,0.02033288961922238,-0.8217677696078431,-0.2456847838105564,-0.8886534362913591,-0.3281953716269032,-0.7246917739953653,-0.1748170023527694,-0.9389461462762457,-0.3642652530624847,-0.5075870243353463,-0.19059088299334054,-0.5718586323357934,-0.41726656480618884,undefined,1497541036606
903d185fccf839df,0.8440016013018797,-0.1460565400440427,3.380417512982015,3.201269648207477,1.0479570428171883,-1.489277030711223,1.8381836629262445,0.14526490304950498,0.1931795889213064,3.1656278285829873,0.46127391279097973,0.05485490238866686,-0.5867660984848485,-0.23272318241597467,-0.8949692353017245,-0.4090197419631826,-0.6790283086001744,-0.12360881909083132,-0.9429203351845198,-0.37401247222055145,-0.480515605454307,-0.24465052498717596,-0.6249164824397596,-0.44340206761652623,undefined,1497541038152
903d185fccf839df,0.9742871273774384,-0.13666441698606985,3.33448022627814,3.323305033392038,0.8361436857945495,-1.4564533914483968,1.6962372523758542,-0.7138813283290515,0.01615986924112536,3.2647299077348535,0.35695571136015686,-0.03284942483357517,-0.5563029188948306,-0.3030865018354921,-0.9339166557835966,-0.42316397391429267,-0.721327013720696,-0.0482087909258895,-0.9387782228641419,-0.3323596753766984,-0.4305856989188459,-0.2625749441986422,-0.6222583581275857,-0.42626717256834845,undefined,1497541039621
903d185fccf839df,1.1419947364615444,-0.11670579013797333,3.292371766854278,3.2703047252880015,0.5887418118734696,-1.4852917017330993,1.6848554606282706,-0.916764486999765,0.14744334652128382,3.051432333258225,0.26867271322984815,-0.12164441156814804,0.20092468805704103,-0.1762472375587611,-0.9286534979173788,-0.42518460472454983,-0.651767961332485,-0.004600141206301737,-0.9327259816454452,-0.32458346213603706,-0.3973709351507757,-0.30408093234098266,-0.6964061446201963,-0.4578362766834603,undefined,1497541041109
903d185fccf839df,0.10664197456454376,-0.21532442673433577,3.2821633397328895,3.1450655898263298,0.2602783653797262,-1.5102844422582533,1.7484178737196612,-0.7331368802813599,0.19419327722452123,2.006979779726833,0.12842652393964055,-0.11598960605337036,0.24444351604278078,-0.10032889060967494,-0.9212850504006321,-0.2837420025662335,-0.6098974296758535,0.05254834241667677,-0.9482239178168069,-0.31043229179403525,-0.362276946681955,-0.27984999482317235,-0.6968900304819272,-0.44626970664615384,undefined,1497541042613
903d185fccf839df,0.11773008095026978,-0.293984553394571,3.160941285542675,3.0840283212097086,0.13663400092420283,-1.5823837123527615,1.6776471719532213,-1.4165115262527352,0.21449863507219927,1.4396484204538327,0.16666420378102537,-0.0667570951942275,-0.4866727941176471,-0.12902969781904458,-0.9318113661330678,-0.3140511396757931,-0.623037621669362,0.022903834585388062,-0.9534505363185515,-0.3561502762836731,-0.38798140721357177,-0.24141589589474358,-0.6852951345816334,-0.5018364966478549,undefined,1497541044101
903d185fccf839df,0.2937538388344898,-0.3198132133119121,3.4652728238466906,3.423289585878771,0.21822015493066316,-1.623948988989256,1.7991442108673872,-0.728066774546799,0.1516795906483223,1.8081654770707787,0.19405147160205602,-0.017901706316131406,-0.43445020053475936,-0.052185499997589084,-0.9876009308066763,-0.3100099769818042,-0.577920211288547,0.00828106687023017,-0.9844604019588242,-0.33488502236846207,-0.4009972008407499,-0.2594303966443202,-0.66612896504857,-0.5098101519707476,undefined,1497541045622
903d185fccf839df,0.5557106282405448,-0.21121538020347072,3.139248917950742,3.3546726457836273,0.2729914923946995,-1.6041621003163646,1.800950884275629,-0.6232432866814592,0.23086861379592202,1.8165405303408424,0.1386667301641611,-0.06648064807320224,-0.33000501336898397,-0.0845897106964361,-0.9928641107595956,-0.3585045511335452,-0.565768689588979,-0.061273655177418944,-1.004849109098144,-0.4076734735622645,-0.4512908030742568,-0.31804874976768305,-0.7228443158747948,-0.562899201508321,undefined,1497541047115
903d185fccf839df,0.6430295350389568,-0.18479958837603894,3.09714045852688,3.2516981641805582,0.25482694942624334,-1.6029602127531024,1.7953125709842668,-0.617558164615732,0.1878902801271425,1.5241125361670709,0.028789888967393797,-0.05658132306331818,-0.6259330436720143,-0.20309642072803932,-0.988653568269707,-0.3706281664067589,-0.6603938321200252,-0.06989279020462294,-1.0185278741968873,-0.365712709209566,-0.45957209490523804,-0.32501461202095167,-0.6729409811037349,-0.5651226412991066,undefined,1497541048627
903d185fccf839df,0.504428136206562,-0.2194335317211855,3.0709818881857798,2.8547488604816014,0.2055893180211773,-1.5767306494066153,1.883887055293612,-0.0026444334380119577,0.020166878171680325,1.0064184804144352,-0.008531040418268073,0.025410641320796342,-0.865286597593583,-0.27901481948022366,-0.9897062020516206,-0.3059687577583722,-0.671632533770469,-0.10944835455329326,-1.0095579630200107,-0.37251882299879935,-0.4822987430012574,-0.33372432249285106,-0.6539800711334567,-0.5788885108012293,undefined,1497541050106
903d185fccf839df,0.457303615056407,-0.27578702999682336,2.7896187390967526,2.697764703874195,0.15757567681166976,-1.5526626194309368,1.7742530739454974,-0.7001542503761753,-0.19245633363892367,1.0786735402206995,0.07401173182362514,0.21096025120768677,-0.5345435049019608,-0.2567948129681449,-0.9960220157864537,-0.36658700371277,-0.6312218378005137,-0.0916464487245179,-0.9994685614177551,-0.3821274532669152,-0.4733789378500843,-0.34861958748009003,-0.6593877813717224,-0.5540320216376372,undefined,1497541051604
903d185fccf839df,0.6250113621621519,-0.163667048443669,3.3804172588450654,2.9134101240213353,0.17641907524252345,-1.5205191188152394,1.8411553479109364,-0.18336057848259377,-0.08876945084411346,1.5346452300674318,0.08293807859280117,0.16790481623242176,0.40981506238859183,-0.2419815098288245,-0.9960219936997522,-0.26353599124323807,-0.6723122128486643,-0.11504034028803756,-0.9965229040631421,-0.38155770969495556,-0.48161863472786004,-0.32787905351256474,-0.7298562918629483,-0.5746354691957783,undefined,1497541053091
903d185fccf839df,0.4767076632097886,-0.08089781679658402,3.0850181260393836,2.885736651022194,0.3529833514250885,-1.513603605720463,1.8164009895760058,-0.28378442234873114,0.04571272935676853,1.8038206688345018,0.09456772443638618,0.22744755970295719,-0.23861547459893048,-0.2160580998272683,-1.0202325301914819,-0.20695896451227228,-0.7030767469520782,-0.11811815021209351,-0.9936752011371265,-0.3780776625991851,-0.48148681367784263,-0.3351237142344215,-0.7674454297493323,-0.5625892353668571,undefined,1497541054613
903d185fccf839df,0.5917469049833349,-0.043915930370921286,2.908926887920859,2.9241595213215623,0.4125169676522052,-1.5360202054789236,1.7652354849394278,-0.6560558483519728,0.15722624472665714,2.2863525241289504,0.20114968285403023,0.06350672058100172,-1.021954378342246,-0.18735726671634959,-1.017074654613559,-0.3605251536790808,-0.6105000971972306,-0.19032004136594585,-0.9909744319491004,-0.48195557501441705,-0.5363511684028448,-0.3268475758739086,-0.7835622365226044,-0.5581929720810821,undefined,1497541056101
903d185fccf839df,0.9049863244450118,-0.06563548530141262,2.830451431034509,2.980175567476312,0.5801841219240648,-1.5411817981976248,1.816706039183256,-0.3367524641037523,0.3215883604855845,2.4299628634351347,0.33743941317949727,0.03867488490862717,-0.8870460115864528,-0.110513042993345,-1.0233904573050412,-0.33829845501638517,-0.5595349944533612,-0.1375349574205169,-0.9831589942487883,-0.47336324004563574,-0.5012955056341026,-0.32975025719860424,-0.7873574913288094,-0.5565320164234238,undefined,1497541057594
903d185fccf839df,0.6319413596424113,-0.1178798201342161,3.07863776378716,2.9375037933164903,0.3721661866665058,-1.543336344379461,1.7255148936186915,-0.9684019930052448,0.4635589033076281,2.1164088113594697,0.26596748792126457,0.028663908004941847,-0.8261196524064172,-0.12717804787740408,-1.0002325214651733,-0.24535049767161365,-0.5247789062033961,-0.1743103634147718,-0.952491972255834,-0.3102475095063181,-0.4940500642612161,-0.37833533647543266,-0.7237086974470868,-0.4931852162229292,undefined,1497541059094
903d185fccf839df,0.7594547901107188,-0.14664361349814875,2.8853206149628186,2.67232396133442,0.5057568197141123,-1.4992857724942816,1.7439971662408589,-0.691073452567211,0.4873283100760352,1.2585319094537688,0.22325565651083154,-0.05483493804939825,-0.7564895276292335,-0.19106063135350332,-0.9539166571476714,-0.19079403108910117,-0.6100600300631892,-0.2294639713462483,-0.9523870204107711,-0.2419861998467191,-0.5181314714941326,-0.4192845058217547,-0.6614672610822079,-0.4609390422627871,undefined,1497541060649
903d185fccf839df,0.5986771094960527,-0.21532442673433577,2.9771941718227706,2.8642676370390485,0.6550228503031095,-1.456656036165044,1.799338809514805,-0.15755331078859297,0.3607306452425937,1.5413988301807542,0.24733036833756747,0.025035300531650907,-0.3778757241532977,-0.13736225206417232,-0.9212850945740348,-0.16856744548529168,-0.5387670708340335,-0.18322081608794877,-0.9455441400584915,-0.1879376545532285,-0.4817665721955957,-0.4536181347758765,-0.6205316650881064,-0.4720945914381793,undefined,1497541062096
903d185fccf839df,0.8190534999556351,-0.13959937506470743,2.762184401269547,2.6259432180935596,0.7009793436547225,-1.4642726474443064,1.6993483190391632,-0.7376280833377623,0.442964214089461,1.732524130184704,0.3359606155149283,-0.031161709131463097,-0.29954183377896615,-0.16050808354707136,-0.9876009455311439,-0.08774311754609465,-0.5176249722716166,-0.17178985291081966,-0.9773236547912086,-0.07528262752011096,-0.4719957081635275,-0.4911048668780483,-0.5709167515760513,-0.48266495225873746,undefined,1497541063599
903d185fccf839df,0.8287555930431454,-0.09498623520748199,3.336394385781197,3.5998809057376677,0.6821359377979342,-1.5273973597189798,1.7820583431958603,-0.35177170719648987,0.47194787578810665,2.515822985315118,0.380495324249042,0.08373755899899507,-0.33870877896613194,-0.12254887122020464,-0.9739167100473826,-0.19887648366832597,-0.5003213004973337,-0.1456537928205666,-0.9791568193754735,-0.09947358554508631,-0.4609619144019964,-0.4856815506514942,-0.5629820023075665,-0.4871479139955919,undefined,1497541065116
903d185fccf839df,0.8412297127270871,-0.1313812235469927,3.378503099342008,3.2143428979811697,0.6684868191942428,-1.5594174114067954,1.8122590375980236,-0.23077667633651838,0.44644676153288243,1.56369455461073,0.21467390360645916,0.034752430900492674,-0.9392686051693405,-0.07718303322522681,-1.0349694178627413,-0.1321964442096821,-0.5045399946412151,-0.10528127629584287,-1.01008972062217,-0.07438951511292513,-0.43972908086578133,-0.49296251454873397,-0.5404098706337798,-0.5461144479985062,undefined,1497541066612
903d185fccf839df,0.8162813353375648,-0.16718913843239733,3.169235807297956,2.9839752632652443,0.45955344714772006,-1.604127159875672,1.7585531409824002,-0.7531830189767093,0.3927387233533308,0.7281621683808216,0.11032891859216093,-0.01062313246673453,-0.9349167223707665,-0.09107058909837425,-1.057074708877345,-0.002877556251104838,-0.48894945686966185,-0.058601146545173594,-1.0318777891293731,-0.04092869245810451,-0.409242276573091,-0.4782865923382408,-0.6199643765319813,-0.5674401726317397,undefined,1497541068085
903d185fccf839df,0.6388716331659484,-0.13959943352069212,3.5998929780105065,3.2366741445217073,0.42617637283916626,-1.606554227777635,1.8640872634445393,-0.10352694289069528,0.2276225372330898,0.22874613712609346,0.05425747170934152,0.06486867229192798,-0.9001016599821747,-0.0790347349699655,-1.0697062995358417,0.021369759089487194,-0.4519916158680757,-0.03374434287163359,-1.042463963606528,-0.014628146935806833,-0.3944682775608069,-0.45059777646726323,-0.5990655955466937,-0.5605248570921662,undefined,1497541069593
903d185fccf839df,0.5681846099028477,-0.2364569666667057,3.6139297241380093,3.6162592978504255,0.22185100177214523,-1.5717274439816282,1.814678467259796,-0.46109201009036954,0.1370647000009609,1.1137024820599104,0.24122524572783463,0.010543311074082655,-0.7738970588235294,-0.026262154749905654,-1.0486536533465027,0.005204882195759173,-0.47169306832697133,-0.05267984534182861,-1.0363977281543717,-0.0251914839583106,-0.3976806551713223,-0.4292858203638695,-0.6057798075435975,-0.5413226954638674,undefined,1497541071094
903d185fccf839df,0.43235530667770394,-0.21767242827083663,4.085419840925266,3.8837077344195854,0.14504770212793733,-1.5925252192848582,1.8937278034238154,0.0006557681385100822,0.18251322932106917,1.1497938390611522,0.1991294941495007,0.08160618386933764,-0.691211285650624,-0.16421139638112692,-1.0265483476074315,0.027431594990815586,-0.5806728639824889,-0.10911904015880573,-1.0053878627710156,0.04271565988093355,-0.41584374898646753,-0.4101068239397414,-0.632604250515888,-0.5605495795079036,undefined,1497541072628
903d185fccf839df,0.5515525883458976,-0.19830105024480021,3.462082896857528,3.566109215998764,0.008268500593778995,-1.6060930358420276,1.895392469016303,-0.08344202493011309,0.23696905893661385,1.4121502894996676,0.24378846478365795,-0.055577314141698204,-0.7651932932263815,-0.11421635582740054,-1.0360220626880057,-0.023083581706461024,-0.5638669481955196,-0.13867488830119395,-1.0146236526021621,-0.054217556155474946,-0.4533654348384611,-0.4014973702015159,-0.6396668355462306,-0.5399638105296094,undefined,1497541074097
903d185fccf839df,0.3200880915005891,-0.26228574349601613,3.0301491962480234,3.1059800805629405,-0.04045485263710292,-1.595054771579559,1.9056802690700216,-0.029834409900705364,0.4495563771602387,1.4665225080600204,0.17899578966486884,0.021892703724637398,-0.7956564728163993,-0.1855056426762582,-1.0360220626880057,0.029452197536351206,-0.6352464903533624,-0.19041504009439286,-1.019227554880829,-0.009346485855749953,-0.48376263410342657,-0.41253556047441303,-0.6179366291449201,-0.5346065760827883,undefined,1497541075602
903d185fccf839df,0.02902509184282269,-0.1718853168733531,2.5956629441185104,3.081887352819837,-0.2394728041683098,-1.6205156865794292,1.8899829543876483,-0.24341162934384908,0.45403574712393696,1.187714112177573,0.1772294706424514,-0.014819704717440632,-0.8130640040106952,-0.1984673088247126,-1.0181272994388233,0.05167883966960378,-0.6600019783656786,-0.19365117492811004,-1.0125456006037092,-0.000600170861605454,-0.48220913611209976,-0.39946969303071395,-0.6312336501310043,-0.566279702697224,undefined,1497541077094
903d185fccf839df,0.29513985213270555,-0.3791017281221722,2.8980808311933677,3.0875645155958336,-0.16179522464697066,-1.6331541383408605,1.9516045714753463,0.14712826213884161,0.19245492744012618,0.8267666118937202,0.0303384646063068,0.024795630677736637,-0.7956564728163993,-0.2493881613984847,-1.0097062365457474,-0.008939363887711695,-0.6706630270568867,-0.23013526167629525,-1.01985726848367,-0.04206818167521949,-0.5135078834638044,-0.41636903000416237,-0.6524783379311486,-0.5937167454390821,undefined,1497541078594
903d185fccf839df,0.275735665957685,-0.4806554397091416,2.892338606821146,3.281697226404505,-0.16831635182812482,-1.6116762225530266,1.8657098511340868,-0.3627972742261782,0.06786592248497401,0.17891514890295335,0.08996636589230741,-0.06530805112673102,-0.8000083556149733,-0.25586896209577553,-1.0444431145377309,0.06582309988543542,-0.6654909420829429,-0.2184763119066735,-1.0472707731069995,-0.03459993537798659,-0.5156110884813748,-0.41368168035814534,-0.6044550856203503,-0.5782277229862111,undefined,1497541080121
903d185fccf839df,0.504428136206562,-0.38144978811465774,2.588644952260183,2.4787303231794753,-0.03412915030879658,-1.6333870620483648,1.7907840541337168,-0.8390083970117957,0.08437820786981563,-0.013112103425228307,0.08007707246156204,-0.04188984086804489,-0.7913045900178254,-0.3678948714300879,-1.0402325904534269,0.005204868063398404,-0.6600384380362972,-0.2352142828377637,-1.0557509081097465,0.001324639302129259,-0.5164288322792199,-0.42729625527379317,-0.6217838741565453,-0.5894703215729455,undefined,1497541081602
903d185fccf839df,0.47532164991157283,-0.3397717232480393,2.7353874389114954,2.7836941950102725,0.17420764971307934,-1.625197458103626,1.871492801520906,-0.23997869266585672,0.10931789041850913,0.24503336291023248,0.08252092660294146,0.043157308179283954,-0.8391753008021391,-0.3262323851214893,-1.071811574461903,0.04763767697561484,-0.5837963392635291,-0.2716477073653296,-1.053868765763706,0.05586593215743911,-0.525866509011547,-0.4310909121490264,-0.5571931965550726,-0.6088688380703592,undefined,1497541083095
903d185fccf839df,0.3505803150505162,-0.3368366482574323,2.8649037607200416,2.88847720689081,0.2498486609927422,-1.6229031590673293,1.815322774345998,-0.6171821768746604,0.1775292382068259,0.9026139776582206,0.20437354644004105,0.06691418880099306,-0.7564895276292335,-0.23364898148524585,-1.068653669435045,0.09007045762310975,-0.5740067072598112,-0.26408617231554377,-1.0488310617428696,0.04645747980886392,-0.5121390737302483,-0.4463441045742331,-0.6191797922382944,-0.6051054610399272,undefined,1497541084623
903d185fccf839df,0.37552862342921917,-0.3004417183739063,2.6556362145390398,2.585949479435516,0.16129910060797784,-1.6535769081287677,1.7533934770619448,-1.0846422529455286,0.22319150887491296,0.8877182995176133,0.16093144793238545,0.05601414064229061,-0.678155637254902,-0.21142894907161797,-1.0728642045626997,0.11431771643425871,-0.5367297296251647,-0.23513195432634432,-1.0571432731867034,0.06125538576158449,-0.4919896414632545,-0.4278872954901211,-0.6477340350878773,-0.6053717270448742,undefined,1497541086089
903d185fccf839df,0.3117719427004751,-0.2822441949761586,3.603721297016621,3.562607216990558,0.33042681859792966,-1.6394524012022584,1.850280778500049,-0.39464657631774114,0.2681569366424039,2.2197203648631176,0.2827056862767898,0.0034712569535776537,-0.7477857620320856,-0.1818022650883299,-1.0654957680893038,0.17897719574444926,-0.5374993931412977,-0.17964903493481318,-1.0368875053989868,0.1333355080879132,-0.4400225234594129,-0.4575981102198606,-0.6918609930388765,-0.6091687561156134,undefined,1497541087595
903d185fccf839df,0.3921607830078082,-0.15897095768669023,4.143478951842738,3.9523502524264944,0.3038485888875058,-1.6318474331540276,1.8490842252567428,-0.28929413776464163,0.23779869722691502,1.9598648048517044,0.21124334364573294,0.0009220716519148876,-0.669451871657754,-0.1688405600875518,-1.051811551011127,0.17089470076814217,-0.5189352350541543,-0.15878198525204673,-1.0097958537456633,0.1730173005894511,-0.4129933890116351,-0.45006162358249674,-0.7024401007638461,-0.6167029296510734,undefined,1497541089096
903d185fccf839df,0.5972909581761979,-0.18010346839106783,4.200261787000206,4.343423111336562,0.237495557130303,-1.6538121612480932,1.9042049535170036,0.035128996108407154,0.35316801579710244,2.1222584413137415,0.24049066742977138,-0.04344230722168858,-0.7347301136363636,-0.2401298080840858,-0.9728640652221181,0.15675046881703208,-0.5807018068747203,-0.10980933369938786,-0.9824243287335965,0.05444927004724078,-0.4052023802316092,-0.4426200214995704,-0.6800877801365383,-0.5970898214670974,undefined,1497541090599
903d185fccf839df,0.6471875059227845,-0.39906029651428404,3.3281001181628653,3.359004079663704,0.14958370213988637,-1.6410316269476588,2.007080345201157,0.6670643180802635,0.24162639701062733,1.3686667508259154,0.1271466659975929,-0.054609628539504046,-0.9044535427807487,-0.2827181452650538,-0.9939167114114572,0.06784370243097103,-0.6542032645427377,-0.12091731658286992,-0.9914851992593219,0.05053806587317026,-0.4221606315043476,-0.4296135318504985,-0.6542261540249781,-0.5771664600046229,undefined,1497541092088
903d185fccf839df,0.2923678945470935,-0.5070711730805887,2.889786563575036,2.8097309484007686,0.20534246354884178,-1.6514246925416043,1.8530105302081408,-0.3482281253512816,0.17151019658080127,1.8954736922974167,0.08102948718947886,-0.013609603998267735,-0.9088054255793226,-0.25494313712495525,-0.990758813746833,0.11633836137687663,-0.6144037471162362,-0.10792844868528922,-0.9759522788255967,0.14186624607087975,-0.39805926239408834,-0.4438537682126542,-0.655195139833089,-0.5569979434647028,undefined,1497541093603
903d185fccf839df,0.4157232161099344,-0.5170504280486523,3.0371671881063507,3.428681247483155,0.5334561979456944,-1.6482941924306191,1.8776807358797563,-0.04054490627204679,0.2681905438350579,2.695263611251485,0.08365619408629475,-0.03512544260082238,-0.9653799019607844,-0.21698397660118676,-1.002337781666767,0.015307923188158802,-0.5763895488813822,-0.0943316208965716,-0.9866573997972341,0.11017624685020062,-0.39928348391494584,-0.4493315510660918,-0.6351856533971919,-0.5334247498048641,undefined,1497541095100
903d185fccf839df,0.5390783996511364,-0.47067618474107803,3.1181946882388107,3.732498733592017,0.7092901923852437,-1.657066107315107,1.8760791787615045,0.0011929838482714202,0.25437547849430137,4.79731553910116,0.08768376197112933,0.017515996134561188,-0.9523242535650625,-0.23364895558369675,-0.990758813746833,0.03551397690823652,-0.6420691869441321,-0.1135584365612605,-0.9935842424978568,0.05754436035518022,-0.4191990714843637,-0.467769155041515,-0.6783614269468553,-0.468588068863201,undefined,1497541096638
903d185fccf839df,0.7636126919837272,-0.4389773748425231,2.9427415880002887,3.316500651874055,0.8332225520547232,-1.6441644503083996,1.8284612698315688,-0.252878769952843,0.4300244714642258,4.55133133919737,0.17531316229183716,-0.09370361962381493,-0.843527183600713,-0.20957724732687927,-1.012864115804787,0.2092863328540089,-0.6623157256798767,-0.14479884560682857,-1.0197173315443233,0.16847476363882105,-0.4156937523233895,-0.46901139231910693,-0.7676891106743721,-0.5027969383067398,undefined,1497541098094
903d185fccf839df,0.6208533222675047,-0.29809365838142077,2.720713317314839,2.7300763462516415,0.7325975841290006,-1.6603829440700633,1.8630747791595788,-0.15709518534738937,0.4224945221510265,4.204361351939516,0.11074224736603117,-0.07958074036261326,-0.6607481060606061,-0.19754141910001963,-1.0076009542574524,0.19514204437345575,-0.7044346036212131,-0.18026333125219007,-1.0264692536916442,0.1774058637208428,-0.4304453611299973,-0.4709481124935303,-0.7974239890178165,-0.4929394005415336,undefined,1497541099603
903d185fccf839df,0.4767076632097886,-0.39084214499656933,2.8821304338367066,3.0980622256714025,0.7091153318946412,-1.650458055639999,1.9395074703049662,0.3210615725905641,0.3598849033561514,3.1015839914831465,0.0697688783195688,-0.07319858107422916,-0.6346368092691622,-0.29567987616738095,-1.0433904844369342,0.18908019433976658,-0.7440965495521741,-0.22934364448621786,-1.0506922129895202,0.14784084719851548,-0.47241884976226667,-0.47334016063682777,-0.7658304140773973,-0.5006712500421787,undefined,1497541101094
903d185fccf839df,0.2701915437540025,-0.4031694015011338,2.9274290743866804,2.8699889323456995,0.3737296098956446,-1.6637230734373691,1.7950417080364032,-0.7499517956853643,0.1728709482468388,2.4693865635750782,-0.026788180273630707,-0.1525246498622158,-0.5911179812834225,-0.3169740188563158,-1.0591799617167046,0.16685349567707095,-0.759358862164667,-0.28542185878400733,-1.0564365944195362,0.08592369795129903,-0.5149988225354397,-0.48244596462102424,-0.7893325093253354,-0.5185922024415396,undefined,1497541102609
903d185fccf839df,0.6638196655013735,-0.3391846497939332,3.6847485430121316,3.703905500199285,0.5814286874787333,-1.64880662506036,1.8636112705889019,-0.19610718288570644,0.2934486559161337,3.405658840514077,0.08419298133892253,-0.13461377752089448,-0.6650999888591801,-0.38548572718651636,-1.072864200881583,0.11835892152532995,-0.7379972088855853,-0.3095123784152727,-1.0766853650415864,0.08715557500054447,-0.5380255271411059,-0.47829534086818176,-0.7460732530768875,-0.5484477754540487,undefined,1497541104096
903d185fccf839df,0.6125372424782102,-0.36207829317665197,3.284077753372896,3.2215342765681765,0.6688262542763559,-1.641700115550239,1.7644649506914163,-0.7648066169690059,0.35838473236637974,2.4642738559535244,0.07820169895440929,-0.024188444555823797,-0.7129706996434938,-0.3336390237403749,-1.0623378741057965,-0.006918775474536844,-0.6930641710141124,-0.2869670986081673,-1.0619710717862854,-0.007683453734088576,-0.5449294793153138,-0.49511951845354146,-0.6454237868258514,-0.5336931023273033,undefined,1497541105597
903d185fccf839df,0.6236253488639362,-0.3016156899141644,2.945293377109449,3.267638486377357,0.7284627312148317,-1.6447700539674122,1.7314503644881076,-0.9466353711552333,0.4744638751091255,3.0573307215043397,0.11989038602504287,-0.06300552569955026,-0.6825075200534759,-0.30401233975708686,-1.0507589135480964,-0.08168128164476626,-0.6897321860174108,-0.2682025860823419,-1.0370274404603956,0.012981260377923413,-0.5240702064243387,-0.505062251307571,-0.6323794388937041,-0.5415722290161988,undefined,1497541107129
903d185fccf839df,0.5127440089633981,-0.30807285489349967,2.9019086419255826,2.8979982539994884,0.6233634755548954,-1.6305989633048483,1.7171468414513802,-1.0627717278262678,0.543521985779677,2.8410126921923076,0.22761058840879905,-0.019853020470197283,-0.6476924576648841,-0.31789983087636153,-0.9928641107595956,-0.10592854045591521,-0.6783919768923989,-0.28423126622530415,-1.0104045754355457,-0.03500029930791605,-0.5302019441646545,-0.5123884101405725,-0.6111253680824853,-0.5481911673935957,undefined,1497541108602
903d185fccf839df,0.6458014926245688,-0.188908810274858,2.588644952260183,2.650412123287431,0.5468173153658753,-1.5856772564369284,1.7651460587895218,-0.7688354441991758,0.5275263063282962,2.9924483816666494,0.3282452794081478,0.010282404550790507,-0.7129706996434938,-0.41233491035579456,-0.9854956853295502,-0.13017582753178572,-0.7036610812376549,-0.34059446587871595,-1.0143227893735585,-0.11139198540338084,-0.5667352896240314,-0.5281124066482416,-0.6384494965484839,-0.5253393980334262,undefined,1497541110089
903d185fccf839df,0.4919540165226203,-0.08559405369352446,2.299625927569776,2.393526725987249,0.270090921650763,-1.5565943745651858,1.7689356081994403,-0.8167615089752918,0.47403600608844143,2.106531825991212,0.3052884015103643,-0.11978291812399912,-0.7216744652406417,-0.3956699054717355,-0.9991799134510778,-0.019042390747750555,-0.7247384141170511,-0.3854190388354565,-1.0124546411080508,-0.07617574010230665,-0.5780527398784703,-0.5256351949734093,-0.6618889954804156,-0.5283535572130429,undefined,1497541111594
903d185fccf839df,0.5252184046906178,-0.1307941500928866,2.7264555416870606,2.7001660803674006,0.3671261906244859,-1.5881555678947925,1.829955005531572,-0.44394848115046837,0.27715759039727195,2.8102201736745616,0.2327708736612624,0.014549760649119,-0.6085255124777184,-0.2845698081574688,-0.9770746077120068,0.0072255130060163274,-0.6618391244437807,-0.3668951796365882,-0.9966838290555821,-0.004680759308740718,-0.5426560227131569,-0.5148043384346837,-0.6839568551891909,-0.5519104988987998,undefined,1497541113096
903d185fccf839df,0.9119163219252711,-0.29809365838142077,3.1322309260924146,2.9573638812329857,0.5001099666485891,-1.6447514213728822,1.7723070282863345,-0.7833706521516534,0.26673479065741457,2.6467937334077614,0.06582610581398202,-0.03204916378460355,-0.8043602384135473,-0.2614239766745698,-1.017074654613559,0.06582309988543542,-0.6587936399671017,-0.3665342026221102,-1.019752315023703,0.022574489158110885,-0.5404500738470112,-0.48635287872821176,-0.7449892842758401,-0.5620032940151741,undefined,1497541114605
903d185fccf839df,1.1295207547992416,-0.39260318999093347,3.451236331856137,3.2952710604471647,0.599737229351505,-1.7144935032037083,1.8284796889310322,-0.4855338869761889,0.2688761312281593,2.7906866433412376,-0.029906143419416453,0.0788907612699594,-0.6085255124777184,-0.18087646601905874,-1.0391799529903962,0.11431771643425871,-0.5939116118581937,-0.3100886762456222,-1.0353132221809846,0.08202788834552957,-0.49290074679682216,-0.45575118991922403,-0.8327273063116358,-0.5702423892517866,undefined,1497541116101
903d185fccf839df,0.9895330666253532,-0.3603173066382725,3.1488189530551787,2.8770644265818954,0.4172998205100658,-1.7401151325597184,1.8111913394868275,-0.6984284324639527,0.27748600398424716,1.3615180238522586,-0.13767640215738378,0.033947347509026504,-0.6650999888591801,-0.10588390518846919,-1.017074654613559,0.0961322228626343,-0.495553167927921,-0.21064879514366003,-1.016211928579412,0.07479061819149858,-0.4390549066342383,-0.3637700496220453,-0.834406076963906,-0.5907163742129631,undefined,1497541117590
903d185fccf839df,0.9160744998415573,-0.42841113410433046,3.1743398937901754,3.1837127184681417,0.3469250844656696,-1.7464576525196827,1.8902222743592536,-0.259893194190092,0.2746331584132721,2.1643998387973196,-0.06732487907482404,0.01374369218666186,-0.6955631684491979,0.012622817793908577,-1.0044430639550619,0.06582311401779618,-0.4259312113878058,-0.09652915052552692,-0.9958652029537606,0.06485862008436769,-0.37436966867663485,-0.32513274280855936,-0.8636743668207716,-0.595168276447471,undefined,1497541119082
903d185fccf839df,0.9853750957415254,-0.29515861261880616,3.4084899886892224,3.3000891560955328,0.7167678963807956,-1.7364302773175864,1.8974489894664186,-0.046868153585200995,0.37172218306643573,2.457747008382802,0.056436813397527714,-0.012939011257341886,-0.6607481060606061,0.1403879329430089,-0.9802325348255662,0.03753462185085445,-0.44063037890367746,-0.05292683417593985,-0.9788909402318384,-0.04146764158931175,-0.36896127890168473,-0.3144308019386697,-0.8217967808950264,-0.5973129853857735,undefined,1497541120629
903d185fccf839df,1.5785893394644233,-0.32274822984653434,2.168195700395122,2.2468975410806395,1.241472158601984,-1.6487041410445404,1.7876756248684047,-0.25125873763637496,0.09946610067391766,2.481820693572958,0.04312802343411342,-0.041101666202421165,-0.7956564728163993,0.13020372875624064,-0.7433900921830074,0.08602918187023467,-0.4057650959224179,-0.05570066250450098,-0.8152075448089046,0.10380128993733267,-0.29666137397188236,-0.36937123099926267,-0.7635754656343329,-0.35482297266282126,undefined,1497541122105
903d185fccf839df,1.798965660913186,-0.2857663141928793,1.8255835133994596,1.7057264322781573,1.1815271166218828,-1.6830837105954124,1.7893639586920655,-0.28538694353999755,-0.09861312962980362,0.8515601572574556,0.04858564538387268,0.020700257479440397,-0.852230949197861,0.07095034783888994,-0.680232124166055,0.49823318935128,-0.26212246895892327,-0.06286322037517145,-0.7532088041016816,0.6889884124479564,-0.18749599417733634,-0.40548700934837695,-0.2668275392028222,-0.1902615840347527,undefined,1497541123589
903d185fccf839df,1.6783825729792352,-0.34740297667960196,1.0937842230981571,1.3199718174161326,0.708158761683963,-1.727826066015017,1.7204419909526982,-0.9690868037748152,-0.25601244963021846,-0.6848962524685127,0.05673748848283163,0.05936176780975943,-0.8304715352049912,-0.03922380794758555,-0.5939162865693389,0.8619425802835021,-0.27136195406381874,-0.08794800884178781,-0.6769505627421519,0.9395057216424512,-0.13960269894042124,-0.4699248370668177,-0.26150106708418214,-0.1994325705361524,undefined,1497541125092
903d185fccf839df,0.6499594635083965,-0.5164634715065156,0.6280358224092234,0.5212582605764037,-0.15990264154402517,-1.8218644404171482,1.8587987328692346,-0.7418858073778313,-0.24552225582311588,-1.4929098415295428,0.046836987255284075,0.029326506341932887,-0.9479723707664884,-0.20494809657122892,-0.5633899252994258,1.4721661601243865,-0.2090344155491669,-0.2451443363147845,-0.6552674457374562,1.4633454324467037,-0.1125194975407532,-0.4147803998622732,-0.05528590206795283,-0.3148592214522996,undefined,1497541126605
903d185fccf839df,-0.052749899784365104,-0.585731212056847,0.28797618693356986,0.20261489148812747,-0.626451574834265,-1.7787991375025929,1.8138711275479136,-1.2265889065923152,-0.27064347313003034,-1.1096640883054518,-0.0023572086495282567,0.04269066220941575,-0.9740836675579323,-0.40955739659101015,-0.590758344731312,1.7126184707346381,-0.14251784626795294,-0.38602700062013295,-0.6629779310054673,1.7229632211902404,-0.13215325802602132,-0.34584127142039317,0.055337992270116695,-0.38585091199437593,undefined,1497541128093
903d185fccf839df,-0.3022324659902492,-0.6602822045022402,0.5419042357845436,0.3934467711410051,-0.7574707811936221,-1.759405891854891,1.9444567735175706,-0.4105131204201689,-0.21187967157129098,-0.7018183065005473,-0.02562290872131226,0.006341656611766641,-0.865286597593583,-0.4160382361406247,-0.7644427751835156,1.746968812935269,-0.16504793112784782,-0.41600082308398567,-0.8137941913240649,1.752666824502398,-0.19439188971127022,-0.3804092029419483,0.10705591904272521,-0.22569484175252655,undefined,1497541129618
903d185fccf839df,-0.31886466007424796,-0.5745779563205329,1.3183645370297166,1.3657154017249704,-0.7671290585207776,-1.7499794598174037,1.8646158513219273,-0.845001076153873,-0.30124374717875024,-0.619078361742139,-0.13874240513385103,0.0067145299694307175,-0.9088054255793226,-0.25309147423254025,-0.8149691304552695,1.6378559645644086,-0.08872236666966746,-0.3628484243801119,-0.8205391166666263,1.7315555612073874,-0.18377630848715504,-0.3677362760410222,-0.1651277177815706,-0.35201599178706516,undefined,1497541131119
903d185fccf839df,-0.30361851379387467,-0.430759106412839,2.094824330000991,2.172473486168017,-0.6883303349514457,-1.7995573155329925,1.9364805597094183,-0.3632307680690015,-0.35976995344209295,-0.5161622025120104,-0.12831299534032056,-0.05637773059667901,-0.8913978943850268,-0.21605811277804285,-0.891811348680451,1.4317540244195095,-0.0957552420241804,-0.36907371095495795,-0.8824818834312541,1.4689196742350576,-0.25438228738887225,-0.36450330245085405,-0.20506449822192202,-0.3565148232903967,undefined,1497541132610
903d185fccf839df,-0.47687031409248265,-0.622713215394479,2.3519430682519755,2.498107921186468,-0.8504946326414674,-1.895976173281508,1.8781435791943146,-0.9282922013607119,-0.3161453333775594,-0.6069898554636971,-0.1273097915099406,-0.1274311411364044,-0.5388953877005348,-0.1679147739690552,-0.9423377186766726,0.7730358704268842,-0.2883170744539748,-0.33289993794866474,-0.9149190980499405,1.0540393615778545,-0.3425553583206728,-0.41114304619952424,-0.2666774174655597,-0.41689658638958466,undefined,1497541134079
903d185fccf839df,-0.5364689549265795,-0.596884555477138,2.088443967748767,2.093697658702407,-1.026945760393108,-1.8691479978937666,1.9087413723482058,-0.7937116411492308,-0.44804457244323553,-0.582749691427665,-0.02512244604870514,-0.13708047659477132,-0.24731924019607843,-0.10773555513010968,-0.9518114411194805,0.7811182240795835,-0.343532133413657,-0.20516446360471235,-0.9452852577746698,0.8976527502984842,-0.3243993919325045,-0.41109474749865976,-0.23134705656877433,-0.4057950774830182,undefined,1497541135609
903d185fccf839df,-0.5628032075926788,-0.5170504280486523,2.0386793785865756,1.952725708989074,-1.0677182625333577,-1.8435636342885693,1.8642503175444158,-1.0618898347449064,-0.4148792607211672,-0.9374655246770137,-0.012394625610401612,-0.2227460178659389,-0.5563029188948306,-0.039223833849134644,-0.941285081213642,0.6659436952633633,-0.3876793204619238,-0.1479209850237565,-0.9437809432649065,0.8562617302581721,-0.3061141639951929,-0.3898160160554299,-0.15707356236142517,-0.46596108725492,undefined,1497541137107
903d185fccf839df,-0.5253808140354437,-0.4025824449589971,1.680754932114255,1.7119770669572751,-1.1198667482668487,-1.791712440273655,1.8691259778798637,-0.9357348131130031,-0.37067785546001336,-1.206021522360881,-0.1457933345568888,-0.16262577326099234,0.022497493315508033,-0.0003388354037713172,-0.9202324202998353,0.629572736384836,-0.31773149554064906,-0.16154314679631318,-0.9365042597757673,0.8858575421097641,-0.30318233770466857,-0.3986686383287795,-0.17567399079141824,-0.45413038391511334,undefined,1497541138677
903d185fccf839df,-0.5475570268068958,-0.2892884041816076,1.1990563882056098,1.2313514614917318,-1.1732495165226637,-1.697695028685168,1.8190623512049766,-1.15489594047473,-0.38367251894043475,-1.3026706532885088,-0.15286264250332404,-0.19594590913962956,-0.10805899064171122,-0.10310639142368479,-0.9570745989856984,0.5042950393849692,-0.4519485970044288,-0.2898105886804634,-0.9645334848940177,0.8962822898788346,-0.36240185186056567,-0.4473458447066707,-0.3552149049739362,-0.481480789875896,undefined,1497541140117
903d185fccf839df,-0.4214296786476234,-0.22823875669300628,1.2660473963475167,1.2713674561254091,-1.0554577142301718,-1.6707993033817425,1.787946484673703,-1.2475829112092423,-0.46436742669551584,-0.9563683950569745,-0.19627740758695805,-0.14602487515139026,-0.7608414104278075,-0.18643146764707844,-0.9770746150742405,0.45377979202588875,-0.5751103284747994,-0.32326119840251405,-0.9550598023247052,0.7477950738572243,-0.3977347894546039,-0.38578178678161046,-0.4578708679736218,-0.590613188274783,undefined,1497541141599
903d185fccf839df,-0.37707720134660466,-0.23763096743495615,1.1148387069470376,0.9155277742680578,-1.0685514075904106,-1.681811945986992,1.8581833447171967,-0.8159025684175336,-0.4504225533815705,-0.863598175948346,-0.2649246581556226,-0.004808222185536224,-0.7521376448306596,-0.18828309168716983,-0.9812851354774278,0.3729555488808563,-0.5930350093921596,-0.31419875653722285,-0.9635539304476066,0.6826904476142345,-0.40679097047680546,-0.39305227494710204,-0.47727455688755027,-0.5947819372178861,undefined,1497541143088
903d185fccf839df,-0.583593407065915,-0.3063118098991355,1.3604729964535787,1.2893443419626163,-1.0645708423143874,-1.7217607284743506,1.8382257484237174,-1.0308469701248217,-0.5091918208678972,-0.5570665468754699,-0.23731466644676208,0.07507069628127927,-0.7216744652406417,-0.19198643042277447,-0.9423377481256078,0.35072885021816064,-0.5497328344543151,-0.35132880361801555,-0.9608951424245764,0.5713904823533853,-0.4438549784974407,-0.37400682252245737,-0.43447960355350435,-0.5675884086403297,undefined,1497541144593
903d185fccf839df,-0.43944795504065737,-0.3268573640613764,1.7069132483184055,1.687625212307525,-0.9983103807002361,-1.7085865515415013,1.8124299900122267,-1.166138378948187,-0.5300419254688223,-0.7765746589197593,-0.21578912092614488,-0.1996593538569407,-0.669451871657754,-0.2790147935786746,-0.91286399486979,0.3547699705150673,-0.6735167070958848,-0.43175718881919334,-0.962938211585941,0.47250166471458455,-0.5082923728307283,-0.3547239866062998,-0.3834683949008408,-0.5305434009224533,undefined,1497541146128
903d185fccf839df,-0.5919095903714388,-0.39084214499656933,0.74479218212417,0.7903385437480382,-1.072799397552539,-1.583478455389492,1.7831181655144492,-1.2438620024856424,-0.39243067888814814,-0.8955359581303645,-0.11268688236807405,0.0014113942694632387,0.3488887032085562,-0.48917913407879915,-0.9654956434731897,-0.039248500997271354,-0.7465749110456326,-0.5684981104122704,-0.9857827994224962,0.1629005194137889,-0.6430859162812012,-0.3650433802947817,-0.5026722705830123,-0.5112972226763811,undefined,1497541147617
903d185fccf839df,-0.16085900605601325,-0.5375960114388855,0.31413424900077097,0.2174173832592729,-0.6777360651253342,-1.4921513132352398,1.8025550565320394,-0.8799149951452464,-0.28903554120452835,-0.8156664267364685,-0.06111228081403674,-0.04899731554133314,0.3488887032085562,-0.423444939513383,-0.8897060774355066,0.36083182054875645,-0.5429670735634966,-0.5114762856240831,-0.9477131518278704,0.4801854911327886,-0.545996161739326,-0.3776669908494292,-0.4408250227090005,-0.3543778142734731,undefined,1497541149107
903d185fccf839df,0.26880553045578676,-0.6391496061138855,-0.2556100410356111,-0.21041211162797366,-0.18792088668248202,-1.4935744773685282,1.802623433517138,-0.7957880986435728,-0.37381368777087226,-0.6484333369793753,-0.01725310823482532,-0.04283509134578176,-0.16028158422459893,-0.5475067029761042,-0.7633901377204849,0.7508091717641885,-0.41241972811723837,-0.599016565035779,-0.8791863861016941,0.7541084429655729,-0.5118777672182007,-0.4354828434604521,-0.44295703841692213,-0.05385147091099433,undefined,1497541150592
903d185fccf839df,0.09139582828417048,-0.6649784413991806,-0.1586318894095406,-0.20935026820759872,-0.030601155286357307,-1.562904282230976,1.8336314802014455,-0.6790655863410191,-0.34725097838039704,-0.6305174503437305,0.05731916860670629,0.1862721305610865,-0.865286597593583,-0.643793393544854,-0.8465481218259796,0.6659436952633633,-0.5046072466836341,-0.6616873749253367,-0.9001068501641794,0.678717655931815,-0.568366549596831,-0.45097709883644654,-0.4739759182109252,-0.018059504613691508,undefined,1497541152086
903d185fccf839df,0.056745288796318266,-0.6080379281254213,0.46661921416125446,0.3588744858927145,-0.4715386955928942,-1.6448166397937298,1.8114201433871429,-1.0612342936562669,-0.3909978376025146,-0.15333605619041218,-0.028161515607838517,0.010268419870230593,-0.7956564728163993,-0.6502742071929194,-0.8202323030459551,0.6821084873629266,-0.45794889025411867,-0.6550567827456173,-0.8909270340737647,0.6479207655238851,-0.5649960439069509,-0.4646144448595335,-0.49114068611548733,-0.012793576819115561,undefined,1497541153601
903d185fccf839df,-0.19550933851140706,-0.2810702234359005,0.9202455364996415,1.1249462087805815,-0.668211508575428,-1.540769524434861,1.8098291075777895,-0.8837132578714999,-0.2954737823772776,-0.19109118224984528,0.020741980014640553,-0.006742293219519557,-0.7608414104278075,-0.6595325475565438,-0.8191796729451583,0.6619023771134058,-0.4344551938685561,-0.6433598360226243,-0.8937187617236659,0.765980648187569,-0.539066773339395,-0.4677120696351801,-0.5034722333163121,-0.041804054543806236,undefined,1497541155094
903d185fccf839df,-0.17194711244173927,-0.28694037341711437,1.188847961084221,1.1641655524692023,-0.4674244146969648,-1.4647035593466435,1.6936074622681112,-1.4047154681919403,-0.21569002326932987,0.06974704753593292,0.057049355673077104,0.032479399203325925,-0.7477857620320856,-0.6428675685740338,-0.9076008296413384,0.10825583813584802,-0.6045600603920149,-0.6134050107232673,-0.9168082368948874,0.29130816499665735,-0.6267700902686703,-0.39898752945731286,-0.5311573475782951,-0.09520677228575773,undefined,1497541156602
903d185fccf839df,-0.18442116311486156,-0.1542748084737268,1.2092643070530995,1.2258882789350198,-0.3094978220682404,-1.5202349506421569,1.8160617470242393,-0.5946438174387152,-0.3431793432192903,-0.6529058602231883,-0.017123904456279114,-0.0821773260795439,-0.843527183600713,-0.5317674842105417,-1.009706251270215,-0.11603162384539716,-0.6977848243230116,-0.515478702495802,-0.9855658975635061,0.1109461725284794,-0.6367402636350483,-0.3594839145230587,-0.3557298435885495,-0.47477566793360515,undefined,1497541158140
903d185fccf839df,-0.06245185485023643,-0.2294128159172414,0.19546423805666616,0.14198804782454777,-0.0599565218508172,-1.6999963162840124,1.8118172452814367,-0.8738846410066041,-0.5654964190114872,-0.7794083261822743,-0.03076320483530893,0.17717790280567836,-0.9218610739750446,-0.5076958407075969,-0.9697061896441953,0.12846196251772957,-0.7278775426710887,-0.5309310849136117,-0.9650722390073176,0.1653026840249713,-0.61982417328874,-0.37689525344394864,-0.35103692546676646,-0.5381482644456199,undefined,1497541159601
903d185fccf839df,0.1939607433413167,-0.265220730802646,-0.22434763833924098,-0.3197989282546093,-0.43592960215103466,-1.7449552912911006,1.8738675109060126,-0.7184179438372775,-0.7431117429932125,-1.2126782984712954,-0.01456750640462696,0.03622795379141868,-0.1298184046345811,-0.4919565830897108,-1.0097062218212798,0.46388291781245294,-0.666215377294056,-0.5704486529954577,-0.9616647918595762,0.3326683882268506,-0.5975207565429693,-0.36387465808759634,-0.3989108996487836,-0.5947528022113818,undefined,1497541161096
903d185fccf839df,-0.3022325004956589,-0.33801073670965975,-0.22051881105922805,-0.3648753497431775,-0.7445210872078216,-1.6795362786717907,1.819753996324807,-1.1433070040134465,-0.5951934812240651,-0.8432708864240687,0.025445728238050972,0.048014967478883876,-0.3343568961675579,-0.4549232993398607,-0.9981272612635796,0.5851194097212485,-0.6727503468552148,-0.5478083784130849,-0.940310524917148,0.34434040746538236,-0.5809737278511928,-0.34751920754026233,-0.3317193018421814,-0.5567360420359974,undefined,1497541162604
903d185fccf839df,-0.5433989524068388,-0.3509250082123456,-0.02145943786266518,-0.07348865227011626,-1.0306691797862693,-1.6388747497910605,1.90433644630899,-0.5780182150963544,-0.4090561470956378,-0.9769970209069414,-0.057854554759484866,-0.03121257038314993,-0.3604681929590018,-0.4058540708061801,-0.9897062057327376,0.70433514362854,-0.5745542556850771,-0.502242848549053,-0.9399956683665269,0.469391182140399,-0.539400887329973,-0.37028620521942485,-0.2565817565263796,-0.5818602639305513,undefined,1497541164149
903d185fccf839df,-0.580821449480303,-0.15075277694098316,0.3600712815676964,0.325217784934755,-0.9677515740447497,-1.6325252430734052,1.9246017327502813,-0.3927694751645149,-0.36785330632485663,-0.9634189895369712,-0.1392043690579752,-0.19686909206973524,-0.8783422459893049,-0.4077057596001442,-1.0191799516263216,0.7750564871047805,-0.5764618098055502,-0.4978667860514616,-0.9546399934274222,0.5424722059651127,-0.5263395584199264,-0.4189208916705763,-0.19488780667116384,-0.6151872339192443,undefined,1497541165587
903d185fccf839df,-0.6279459706304581,-0.09029017367849557,1.1614133691200663,1.048127584537887,-0.8802717241634681,-1.665118287707574,1.9182034167331439,-0.4009767661408077,-0.472483430083131,-0.8806273563393691,-0.22435813803571344,-0.06995202372695787,-0.7477857620320856,-0.35215571741839813,-1.0423378727417218,0.61138721454849,-0.6382219564964989,-0.5150607286228074,-0.9838306884110365,0.44646289897099867,-0.563536005046351,-0.4446248156886948,-0.3128389466234182,-0.5182249977934907,undefined,1497541167096
903d185fccf839df,-0.5877515159713818,-0.20593218676439357,1.2092643070530995,1.2355344649117717,-0.9731001424382987,-1.5759480245528312,1.8974910584654237,-0.3971760281378796,-0.5295178015742164,-0.7135643575893633,-0.23727842277884262,-0.013188819743913432,-0.8217677696078431,-0.3428973511532247,-1.0465483710582077,0.6982734490508193,-0.5621182882430674,-0.42650717758047557,-0.9796326013834312,0.5757020556807612,-0.5044485531363292,-0.4389428157730552,-0.3363484959787056,-0.3941397324785026,undefined,1497541168615
903d185fccf839df,-0.6750704227697937,-0.34446790168899505,1.12058067718231,1.1841365158647337,-1.0353183182445418,-1.5215835797837045,1.7621060106993955,-1.2119321896920858,-0.3822813399729157,-0.6631906490317457,-0.14156232182885511,0.0726294587200406,-0.8043602384135473,-0.292902349451822,-0.9770746150742405,0.5952223941842051,-0.516976930973991,-0.31979074415443354,-0.9517503101744479,0.5462910221724296,-0.45937352335333903,-0.43513787047740454,-0.30857135430444216,-0.34706799216092615,undefined,1497541170100
903d185fccf839df,-0.24679196856702884,-0.3427067982386462,1.162051252863119,1.1979377924463583,-0.7077702932437784,-1.5402244812084354,1.753001625346883,-1.215050678506036,-0.459510367892377,-1.1294340658503608,-0.049427409887508454,-0.005405707156052129,-0.7826008244206774,-0.28086646942186416,-0.945495608979063,0.7023145410830044,-0.5198459431468017,-0.26883588053866764,-0.9096994765854038,0.9448181899120677,-0.3412493713735695,-0.420000848365594,-0.3813916786518844,-0.30379133061421715,undefined,1497541171630
903d185fccf839df,-0.14422670845578528,-0.4025823280470277,1.1901242368442255,1.1430853096078328,-0.4178782078315598,-1.6291688090456182,1.789942507597654,-1.0525802824737949,-0.39316492092331956,-1.1409271287343932,-0.11183480308074817,0.01023452598780967,-0.7521376448306596,-0.30771570439424056,-0.9360219307096579,0.9306433494789285,-0.5384964889803109,-0.2825783684182681,-0.9020729524973773,1.545018792505656,-0.20792061120441516,-0.38235724227922424,-0.3580497445185916,-0.3008967267595879,undefined,1497541173088
903d185fccf839df,0.06506147210184199,-0.32627037829124733,1.2226626611636504,1.0826576388739517,-0.5592242565541997,-1.6929806450833433,1.8315986384577208,-0.927970184181027,-0.33585629902294606,-1.3310008514186347,-0.1313139572611681,0.00012028935087434203,-0.7129706996434938,-0.1993930819924347,-0.9107587273059625,0.6659437235280848,-0.45990199047379693,-0.29894902496187015,-0.8647939437060129,1.5889351590261636,-0.19649563456387542,-0.3636203529042459,-0.36417698148338656,-0.38801693597104914,undefined,1497541174591
903d185fccf839df,-0.09571624301823396,-0.261111596587804,0.7537243334855542,0.6304832147541858,-0.8473574879148774,-1.6625631099049298,1.845533985343212,-0.8838263906019739,-0.3694371867331496,-0.664596140060153,-0.14411880904708782,0.0270961134537228,-0.6955631684491979,-0.24475899769205978,-0.9486535360926224,0.6982733642566546,-0.4730866217671271,-0.3368073626971791,-0.9021988951787965,1.3888939494947223,-0.26243337096877883,-0.35753003843073383,-0.28362842515235526,-0.38762678554023705,undefined,1497541176095
903d185fccf839df,-0.5919094523497999,-0.16484113689589644,0.816887530895246,0.7685759507707399,-1.1421764262035634,-1.518467054703021,1.8559296083864614,-0.6319883226996696,-0.36888098685270315,-0.6977862444366463,-0.07842754417383602,-0.002979522479738355,-0.7913045900178254,-0.33641652455438475,-0.8949692316206076,0.6720054887676093,-0.5108118141219992,-0.3554325500856089,-0.8766185545280257,1.3885243876521367,-0.2633318249503028,-0.3396946264005529,-0.26970305593064603,-0.46240281713846726,undefined,1497541177597
903d185fccf839df,-0.5004325746675602,-0.2564155350588176,0.5961355359698005,0.7077565491575327,-1.0328188931620113,-1.4201056154003728,1.8173082738660074,-0.6642193306779702,-0.439301007035612,-0.8052520347329704,-0.02432271292685613,-0.03852302509691612,-0.8217677696078431,-0.37344986010733305,-0.8876008061905623,0.5447071185604031,-0.6137403758467497,-0.41928762022690885,-0.880578749374118,1.2434248361579296,-0.31976714509122334,-0.3646401994206649,-0.2816482575812785,-0.3796303355178961,undefined,1497541179117
903d185fccf839df,-0.6473500877946591,-0.15662286846621234,0.8602720119421629,0.9361966610090082,-1.1028747793579756,-1.3923154638319426,1.8728392509428358,-0.23790279739190567,-0.4052281303245298,-0.803515225134622,-0.06203238675773598,-0.027235207072840367,-1.017602495543672,-0.38548574013729087,-0.9212850798495673,0.3345639450597111,-0.7381616792050253,-0.3803463524890586,-0.9257571576024315,0.6157996009725103,-0.45282909786386677,-0.4228481054659307,-0.5573810366520514,-0.5010530150520345,undefined,1497541180578
903d185fccf839df,-0.5655752341891103,-0.09322519021311783,1.2022463151947722,1.1904693049389858,-0.9541435917715296,-1.4869734171190951,1.8733389125534061,-0.3620763043383855,-0.4636707490931571,-1.1843003268201135,-0.023343901378011015,0.021169899895891523,-0.9523242535650625,-0.4178898990330397,-0.8865481760897654,0.45580043696850664,-0.5560012734764411,-0.28867699518386974,-0.902429790573901,1.1638148834319832,-0.29563436289808587,-0.38121211567719593,-0.3689588686490322,-0.44923556749168636,undefined,1497541182083
903d185fccf839df,-0.46994021309599415,-0.14194743505719298,2.0992905327501576,1.9711079267062324,-0.85202719539861,-1.6386022286779889,1.854186038214846,-0.6982531497086104,-0.35571313877107896,-1.3480054212616528,-0.040724902617462054,0.12818048596514217,-0.8043602384135473,-0.26883064119500455,-0.8602323720342085,0.9367051147184531,-0.16519051878607152,-0.09656081727587028,-0.8723085189851733,1.673072266115894,-0.08503207479640866,-0.33092660749956737,-0.48440371423443107,-0.5359808437898371,undefined,1497541183619
903d185fccf839df,-0.3008464181866237,-0.14781758503840686,2.0029505190040893,1.9606551972038264,-0.7922672918161208,-1.6222183594460424,1.8482926339875108,-0.6678520371618059,-0.24106103957598146,-1.628146526263134,-0.06385080551964673,0.12238558618214168,-0.22555982620320855,-0.0373721450551705,-0.8570744522828829,0.9831791004570192,-0.13169188116809755,-0.005341096469203072,-0.8647309731360531,1.7875597080494212,-0.018474669889647338,-0.31459166157616386,-0.5409241936579581,-0.5479595269512455,undefined,1497541185084
903d185fccf839df,-0.5059766623658329,-0.42136692489888145,1.0191368310809714,0.8655577749792521,-0.96944871306984,-1.6327698130549195,1.9187819624961668,-0.3712776964717483,-0.28294383098863496,-0.9877568283856474,-0.010671362576783965,0.019624251145833747,-0.4649133801247772,0.03206538824585025,-0.8391797111204019,1.2478787264078628,-0.16898728692586445,-0.05568166473650855,-0.827843785998465,1.990588212524166,0.020604955926686035,-0.3364507388888413,-0.6670784760901575,-0.6029342771333694,undefined,1497541186592
903d185fccf839df,-0.576663375080246,-0.6450198145510841,0.21077649753332484,0.21142009039534929,-1.1371158647010118,-1.6785137428522172,1.8908139769960086,-0.7906258252653942,-0.22556416213458566,-0.6884257282443647,0.021600537277979236,0.008951844714049754,-0.5388953877005348,-0.0318171693286999,-0.8560218148198523,1.540867042378699,-0.18320882259068336,-0.16049821378589996,-0.8368626756222278,2.216868365166779,0.019182800619289935,-0.30404126186697483,-0.6096270673153985,-0.6481621809032683,undefined,1497541188094
903d185fccf839df,-0.5780494228838715,-0.5904273028138257,0.24586721923580904,0.19820110023615234,-1.0668851238559667,-1.7101145320190139,1.8828035909318954,-0.8314312597276176,-0.2676866030043919,-0.9810955613479192,0.02877836060623708,-0.08092370666243297,-0.678155637254902,-0.0882930623828153,-0.8707586656799429,1.2660643613030949,-0.30193332817279067,-0.21280199506935027,-0.8392206008509657,1.7163572950807218,-0.11289781805988848,-0.31660898156349515,-0.6412258440808168,-0.6187391234465198,undefined,1497541189588
903d185fccf839df,-0.37014722111905024,-0.40551749072161164,1.0823000284906632,0.93608631026373,-0.9568178789210733,-1.7290139790064403,1.8328030889678317,-1.1061015272275858,-0.2778043483360275,-1.0983523558206119,-0.0066987270266067695,0.07233666827875142,-0.7956564728163993,-0.1679147739690552,-0.88128500349908,1.3186000557517426,-0.28056624561194754,-0.33573709800617957,-0.8414106032303694,1.5077083567122382,-0.21547418600735974,-0.35061547248596997,-0.5399007968791161,-0.5494489486292292,undefined,1497541194345
903d185fccf839df,-0.00146726972874333,-0.19712702024855744,1.4268263749893824,1.1660001457329285,-0.6657737965608378,-1.6048631994449576,1.8723053987446716,-0.48381110465172533,-0.2343114415087655,-1.0912625972436494,-0.12506873972674482,0.0908156926346394,-0.8087121212121212,-0.2197614774151966,-0.8907587038551865,1.1205804127300998,-0.3000703215221502,-0.358941003784097,-0.8332523213811402,1.5639434768434644,-0.21882556024519725,-0.36994427385031314,-0.5680820086113956,-0.5413827494355108,undefined,1497541195588
903d185fccf839df,0.008234754347947466,-0.15251382193534732,1.0759201745123381,0.9880922968606741,-0.6307612834717945,-1.542162410752896,1.838935789073771,-0.558250469179126,-0.17502617919644423,-0.8266031593498994,-0.2911219965247021,0.11288303583763955,-0.7782489416221035,-0.11791977226765248,-0.901285026949856,1.2559611365900054,-0.25164545087469375,-0.19905950836352282,-0.8039916587353046,1.3949763375326634,-0.18227122045366792,-0.30872567366358034,-0.5099654222574014,-0.5315325469810136,undefined,1497541197113
903d185fccf839df,-0.05690783616278316,-0.4348682698556734,0.9515076850590621,0.8907235271245258,-0.7013417359776166,-1.4642866276137394,1.8193253284087756,-0.6046289999321842,-0.2671103718374305,-0.551782209386918,-0.2623758198832499,0.0763115612240459,-0.7042669340463459,0.0042903283026535805,-0.8918113634049185,0.6861497772481625,-0.1385523901597219,-0.14531181706218033,-0.7764242246947657,0.9216127281011778,-0.24784578145714634,-0.27959098312500863,-0.31525396394930155,-0.43848585831757747,undefined,1497541198601
903d185fccf839df,-0.3451989817511667,-0.6749576379112595,0.7173575901600151,0.6437324293788237,-0.92607392716823,-1.591067116738623,1.8407976972586853,-0.8585015257537014,-0.2447181638310334,-0.6627603439139144,-0.17104649698051294,-0.0007973332543134269,-0.669451871657754,-0.22068727648446776,-0.8907587112174203,0.6679642554118166,-0.20757591176239248,-0.267854277911798,-0.7905927663407791,0.7441148466071699,-0.34244419949290766,-0.2664927976972345,-0.3855226992049369,-0.42841221726354495,undefined,1497541200091
903d185fccf839df,-0.46578213869593715,-0.5264426680185945,0.3587950058076921,0.31681883467816535,-1.0203012028849812,-1.7171954187194167,1.8448554918595044,-1.1202385386917557,-0.39633900253341964,-0.40878677757809556,-0.10495179368644636,-0.026383619930848583,-0.4823209113190731,-0.3308615617786887,-0.9181271380115403,1.2458579966710803,-0.10103499432078134,-0.3434759583303155,-0.8231909079154821,1.3281932854612986,-0.2449950842483812,-0.2629985803911521,-0.7102301300725677,-0.4776130335829338,undefined,1497541201589
903d185fccf839df,-0.27174017342950263,-0.6579342029657393,0.08636426221699833,0.05203173628747046,-0.9995446644888899,-1.712993471212079,1.8628643995963345,-1.0130921673928284,-0.29554735777259744,-0.7487432889730488,-0.05333250011482295,-0.07794589398786883,-0.4605614973262032,-0.5132507775817439,-0.991811436485396,1.2741466584263512,-0.3920589098635473,-0.530050808067854,-0.9093216493118964,1.326484055283912,-0.3535693892547944,-0.3088049157997669,-0.6406539501895762,-0.4286239831406907,undefined,1497541203093
903d185fccf839df,-0.5170647687515589,-0.7612488426351035,0.17121957308167382,0.11433939752454347,-1.1147958979864565,-1.7410701196505367,1.898180061211529,-0.8726903572855634,-0.32001246040575565,-0.6257619778246443,0.02810271837134576,-0.06532785770805122,-0.9044535427807487,-0.6030567192563011,-1.0370746854265687,1.3974036822188787,-0.6381797479634328,-0.6183130434574126,-0.9776525030978795,1.3988259524078979,-0.3908907670272687,-0.43796933478551897,-0.7535974978338434,-0.41764061012901266,undefined,1497541204583
903d185fccf839df,-0.550329087908737,-0.7929478279016124,0.2911656056488335,0.3073824790833719,-1.2346756982121312,-1.7311335865615016,1.9103823723283258,-0.8100065438877542,-0.29318057747704934,-0.5799308552159707,0.01998902366731285,0.0019564533508869227,-1.0001949643493762,-0.5734299705191404,-1.0307588827350864,1.0700651936357408,-0.5625978705495875,-0.6376031899098217,-0.9359794982382034,1.7453525683945719,-0.3102661689609801,-0.45743545632015536,-0.7540009900943003,-0.4347004508496743,undefined,1497541206085
903d185fccf839df,-0.6057696888481866,-0.7988178609708569,0.3205143571160454,0.3214698290058655,-1.1591478240404434,-1.7921433503620745,1.9586656058217364,-0.5462419044107054,-0.247725838652872,-0.7547476055917017,-0.008270795718596437,0.03523724457272641,-0.8130640040106952,-0.5697266447343102,-0.9865483007058795,1.2236313828025493,-0.5432003430034739,-0.5841658101080218,-0.9492104679485553,1.5152381951757792,-0.34453200360899905,-0.46468337419903066,-0.6914788778259026,-0.4724521358495544,undefined,1497541207632
903d185fccf839df,-0.5932955001534254,-0.329792409823991,0.06275748098505872,-0.07897646927873983,-1.0203217704980734,-1.6181049260959717,1.887174322717192,-0.6351476787938242,-0.1026131590508088,-0.7424422424090786,-0.11277804904813578,-0.025166459144057834,-0.673803754456328,-0.6567550467425339,-0.9602324892880888,1.4095272974920923,-0.5099780395635435,-0.6228980956487608,-0.9219648867373298,1.0581815388391826,-0.46227373460361637,-0.46865285689832464,-0.546647644756338,-0.4754148383409127,undefined,1497541209080
903d185fccf839df,-0.5059766278604232,-0.15603585346809096,-0.22817544907145623,-0.3043773512060504,-0.9510373153589783,-1.4119952068131185,1.7654958315541223,-0.9468109391939676,-0.1103181972572948,-0.7845074833042521,-0.15935213474353718,0.03855904813212253,-0.6259330436720143,-0.6224991861020465,-0.9686535300944633,1.0397561695850672,-0.5148882134679824,-0.607217727740255,-0.92385402630409,0.8952043909836912,-0.48819667587778065,-0.4871192391498634,-0.5698427999095889,-0.4454932614002414,undefined,1497541210598
903d185fccf839df,-0.5628032075926788,-0.21238935174372883,-0.14395802194983348,-0.3114725023641594,-0.8017609927132864,-1.3723678594619537,1.7516472697542138,-0.9555745455313367,-0.27830108290111966,-0.6696392756622136,-0.15387791975872714,0.030620972652855443,-0.8130640040106952,-0.5243607937885578,-0.796021751829758,1.171095547030294,-0.5007083415008183,-0.5357884557039709,-0.8975110330720155,0.9190103872128564,-0.45800647040564907,-0.4668536452917631,-0.5371925310327237,-0.3045747910815311,undefined,1497541212084
903d185fccf839df,-0.33965489405289395,-0.6062767662190879,0.1463375326375276,0.04127134517299399,-1.0331994606055628,-1.5177799318895124,1.821108338299693,-0.8814298562102266,-0.318200700979815,-0.5739313192834832,-0.13332070285445152,-0.017533417066001127,-0.852230949197861,-0.5484325279469244,-0.8886534583780604,1.326682465933885,-0.3980323115099668,-0.6110554922122511,-0.9208104138847055,0.7966081433775762,-0.5227334743356982,-0.45897527234983304,-0.5654934409076873,-0.2419424616644479,undefined,1497541213624
903d185fccf839df,-0.5808214322275982,-0.9344185009048515,-0.4393571547555153,-0.5067790482115911,-1.237329404059017,-1.6456295421528977,1.8572681642079132,-1.0350667593388931,-0.3121935678153943,-0.6059193346048533,0.008624117734663215,0.051993706288523296,-0.9392686051693405,-0.5567649915366303,-0.988653568269707,0.3608319336076426,-0.27913631630691166,-0.7085511599762103,-0.9997834179622591,0.38807198888455,-0.6704029516568553,-0.3984453864485654,-0.4792136961943515,-0.13895762705789427,undefined,1497541215084
903d185fccf839df,-0.7901096472906352,-0.8428441027419303,-0.5535612170874027,-0.6558990815294593,-1.375126889251893,-1.5791204450269378,1.877930554638541,-0.831671167709223,-0.26739190379092037,-0.6530883635902599,0.05742687759410176,-0.007545600215119252,-0.9784355503565063,-0.5688008456650391,-1.020232563321534,0.5447071750898461,-0.3394087947112575,-0.7476824187539586,-1.019514423857622,0.4020075828884895,-0.6884256586997928,-0.39694738784863226,-0.46156443544468806,-0.11955390359987282,undefined,1497541216590
903d185fccf839df,-0.8954467614712616,-0.7782723944925931,-0.808127657955328,-0.865685503692735,-1.5000981091535166,-1.471437388711814,1.8256447571308958,-1.0008398130476455,-0.2925067449565857,-0.7332079021999393,0.08151805833830926,-0.011438753395429917,-0.9914911987522282,-0.8789551701418072,-1.1265484795857794,-0.267577153937227,-0.811974211513272,-0.9387789938150843,-1.118071501487239,-0.09679426080308991,-0.9005768846315748,-0.4160648026720677,-0.4966987173665152,-0.15011448022637944,undefined,1497541218084
903d185fccf839df,-1.1504734326281232,-1.0676710223903758,-0.9478521527483131,-1.0137407090967934,-1.6288133230152044,-1.3981665153203926,1.80350442972396,-1.0279584340451344,-0.28823169649818325,-0.7162375370441637,0.10073648896636964,0.022523114605405865,-1.0741769719251337,-1.0493086159964882,-1.2791802454430594,-0.8232443484566734,-1.1738689642770297,-1.0891864057489669,-1.2490308108189325,-0.8428951336232983,-1.1657454027637553,-0.4641085614897353,-0.6296881228471918,-0.47969436423294004,undefined,1497541219625
903d185fccf839df,-1.2128441000586516,-1.1034789372757805,-0.9395581392669311,-0.9946623950588032,-1.6064830748067052,-1.4222205685261482,1.778644867727744,-1.2355225624531816,-0.288390294874131,-0.6375487359163913,0.08873115575169571,0.048495986303246,-0.7869527072192514,-1.0715286289839543,-1.2897065694580083,-0.9060892330112335,-1.210308673770371,-1.0925048684130936,-1.2524382578320985,-0.9110948495145745,-1.185752893943077,-0.4582702511094422,-0.6096200099231533,-0.4680299742333985,undefined,1497541221097
903d185fccf839df,-0.9439572786669275,-0.994294030713233,-0.6920099443942824,-0.7245215493179167,-1.4085245505445843,-1.464703559578593,1.8058133919274324,-1.0896867522928273,-0.38275238793527305,-0.4946152870125107,0.0668157546807957,0.1342126425793426,-0.5824142156862745,-1.0104235851741885,-1.2739170765334908,-0.7787909723298232,-1.0711408826988313,-1.0342354538478036,-1.1811687422300305,-0.7215091887491009,-1.0992290907297142,-0.3634021676559546,-0.4904782071601445,-0.053223505207932356,undefined,1497541222588
903d185fccf839df,-0.6944745744394044,-0.8193634443610902,-0.6109824442618221,-0.6500412121134416,-1.2315077038763744,-1.4527312693482557,1.788851143874089,-1.1369550601921854,-0.3948297484142516,-0.48512866956168543,0.05684863184986299,0.1111231026948821,-0.29518995098039214,-0.8696968427289574,-1.1970748767138941,-0.5706683483783139,-0.8949708391106935,-0.9765993336281059,-1.143050116543308,-0.6609778991074069,-1.0477387156765559,-0.3485108149868144,-0.46949674277441616,-0.02716445932014397,undefined,1497541224097
903d185fccf839df,-0.6667543429804992,-0.6268224080653058,-0.4112846790483077,-0.530520688137621,-1.1139319000113752,-1.4493888108418507,1.8279195439358409,-0.8474231266864155,-0.3987311823925199,-0.5170722332166734,0.037273464169021865,-0.06205837825417487,-0.36917195855614976,-0.7789651084605164,-1.0760220948650903,-0.1362376704992945,-0.6541264628212146,-0.9172533180784558,-1.0855993026857111,-0.35156153800597634,-0.9378414245570449,-0.34322006556828943,-0.4702407900069493,-0.003333477706515018,undefined,1497541225590
903d185fccf839df,-0.7263529838145959,-0.4935698281237968,-0.5790816495485005,-0.6786725378425341,-1.182671212537257,-1.5358618187650839,1.8548619050376558,-0.8384861284375359,-0.364184068702947,-0.6271792781731497,0.035272247363797235,0.09220648670814217,-0.34741254456327986,-0.7613742656548624,-1.016022024512762,0.08400855105997752,-0.6554545569362831,-0.8691546107656138,-1.0228029255079618,0.01944860722304203,-0.8174903160256005,-0.3694977936149982,-0.5660531744068591,-0.056245684085657256,undefined,1497541227090
903d185fccf839df,-0.5045905800567977,-0.7142877012413772,-0.5369726818507397,-0.6283832289207332,-0.9865846777822217,-1.6861839292995509,1.8657282623771367,-0.9731225677650478,-0.5281527224128616,-0.5683001777237591,0.016915334882702887,-0.028106278713163017,-0.45620961452762926,-0.7919267875597453,-1.071811567099669,0.09815282540816993,-0.7495843971474753,-0.8361979716857562,-1.005303901413636,0.1501814092908739,-0.7675660895660557,-0.39369615495006327,-0.6320874000852273,-0.12871295215716175,undefined,1497541228590
903d185fccf839df,-0.5669613164981455,-0.8005789644212058,-0.7239102308337052,-0.7775053158021469,-0.7613073395292362,-1.86690261117676,1.8944168150738563,-1.010494102568339,-0.3851174041703622,-0.5881124295942708,0.04664305355206438,0.12551563494607096,-0.6563962232620321,-0.8382184699517052,-1.109706342756277,-0.26757719633430926,-0.7472620244752133,-0.9110406996776077,-1.0957446788545018,-0.13790810900037861,-0.8882330786913736,-0.41907486420302836,-0.6123322998286879,-0.3974307349229837,undefined,1497541230083
903d185fccf839df,-0.977221666834925,-1.0729541866014607,-0.9344540527747115,-0.988499685023314,-0.6610732221554293,-1.9459639784183111,1.8918764291180614,-1.1069079430735058,-0.272818754824203,-0.666459747754032,0.06761869227731554,0.03817800244048322,-0.8913978943850268,-0.9826485624644687,-1.1391800739253932,-0.26353599124323807,-0.8632451420807253,-1.046933004918838,-1.1597654985351418,-0.31736159254103496,-1.0068902109551081,-0.4256732889207828,-0.5635790395998693,-0.3666905103563524,undefined,1497541231630
903d185fccf839df,-1.1906678527817898,-1.0846944865638883,-0.973372585209411,-1.0204158149657327,-0.8691220233524083,-2.0065707833073247,1.9146899914492992,-1.0792432717101106,-0.2835076033143113,-0.6709526321182179,0.09104801384664885,-0.0024195432649507433,-0.8870460115864528,-1.0946744750364747,-1.2465486239715526,-0.8616358992814657,-1.143860076502297,-1.1060700332053273,-1.240123871117341,-0.8460826132711466,-1.1733175188136877,-0.4528757237168501,-0.6191176198138212,-0.4870135688166431,undefined,1497541233088
903d185fccf839df,-1.186509881897962,-1.0670840366202468,-0.9682684987171915,-1.0281027692522466,-0.8618191800515114,-1.9883305104065137,1.919578807087196,-1.023997035710208,-0.30304606082022334,-0.6843032710157553,0.0909037161764513,-0.062203766664173696,-0.8217677696078431,-1.103932807305865,-1.2612854895561108,-0.8899243914484074,-1.2113713474862609,-1.1102117780381418,-1.2215403407009562,-0.8546133522637863,-1.1711123297363657,-0.4333457302896464,-0.5852048799343489,-0.40938358899443195,undefined,1497541234599
903d185fccf839df,-1.0382063209672376,-0.4513046605750799,-0.8655488851297475,-0.9668569992510385,-0.9120236689507074,-1.815696616834728,1.8677611104059921,-1.0958518052010262,-0.40136400037298264,-0.6324315506799713,0.006968964449458643,-0.0008122463059241841,-0.9784355503565063,-1.0585669498847252,-1.2318117583869945,-0.9323571720959023,-1.1356854300449808,-1.0622840588481062,-1.1508795473148377,-0.9194408067849141,-1.1333223316865213,-0.3899424218864028,-0.5592717955596638,-0.356052289547287,undefined,1497541236102
903d185fccf839df,-0.5489430401051115,0.24489574098472472,-0.4706195574518854,-0.8533369839988291,-1.2645865068004147,-1.3966198957211455,1.7355449826225489,-1.0829280438189302,-0.7418908922257376,-0.5011877262787872,-0.16243706522598916,-0.140478572774001,-0.8826941287878788,-0.8567351668674221,-1.0981273858796936,-0.9586250617173084,-0.9051185088654499,-0.9964531098309899,-1.0945132387026972,-0.8725217436716266,-1.0728359117565287,-0.38887899908510826,-0.5483333143363559,-0.2925634049896133,undefined,1497541237595
903d185fccf839df,-0.9730635579294583,-0.5006140665572382,-0.6071546335296069,-0.7508586559211399,-1.565432858190246,-1.0139212359548362,1.6715880995353725,-0.6771848250383542,-0.469046843619256,-0.6187119797444961,0.012151502418029715,-0.16273527513138095,-0.1994485294117647,-0.798407643297828,-1.068653665753928,-0.8717389190753242,-0.945579670706587,-0.9454285826388531,-1.0577100135280777,-0.8309921359529719,-1.0257192691695107,-0.4122501320588948,-0.5699018433184526,-0.3173816546306845,undefined,1497541239090
903d185fccf839df,-1.0021698716973988,-0.8428439273739763,-0.6837154226390014,-0.8166393989665343,-1.675705815389472,-0.7876496192115593,1.5729887782345642,-0.570384697921903,-0.2448971510205825,-0.6921879459214769,0.061892767625144514,-0.3641520435723012,0.031201258912655985,-0.8048884634212807,-1.0581273463403753,-0.8212237353118671,-0.9935574530420511,-0.8914402379330397,-0.9887004685915749,-0.8094805077722081,-0.9715536662332028,-0.43481447303542214,-0.5909560088925367,-0.33642317522641524,undefined,1497541240612
903d185fccf839df,-1.0354342426126915,-0.9021325590962058,-0.6945614793664934,-0.8308627488941729,-1.6861252265814646,-0.7841021890130621,1.5933040272753385,-0.44189339045893156,-0.23873878889418237,-0.7007145218479606,0.05599988916918762,-0.532989549394105,1.5891753008021392,-0.8937685250842259,-1.087601070147258,-0.9242747053843168,-1.0664247019480078,-0.9175952958300418,-1.0137560495827194,-0.9303891009991183,-1.0111620382156212,-0.46500205757223023,-0.6393555283598493,-0.42546956566434546,undefined,1497541242147
903d185fccf839df,-0.9786076456277311,-0.9420498127923989,-0.7436886930595308,-0.8426367874103377,-1.65331385318279,-0.783692242845483,1.537236557721665,-0.7664904373790832,-0.24243862138759315,-0.6795013207815305,0.07050985008252242,-0.8840240038802574,2.9121476715686274,-0.8863618411376293,-1.111811621363455,-0.9303365412856451,-1.0661272841079774,-0.9138905241995543,-1.048103394310903,-0.9429542329410067,-1.0266594876933486,-0.4694110247128085,-0.6415835644643604,-0.42201250421128267,undefined,1497541243586
903d185fccf839df,-0.99523980520632,-0.6133210631085139,-0.7105116225862047,-0.8946214822181654,-1.7375537104554641,-0.9300616349079056,1.5836342237029244,-0.9957857632505174,-0.2541847546532492,-0.6783718105374799,0.025580275644279053,-0.9805346329978252,3.6084489193404634,-0.9465410535011874,-1.0991800307049582,-1.0273257249200292,-1.1364726454093073,-0.9540033905816349,-1.0743764192629333,-1.0470477242925267,-1.0755074139577423,-0.4569682210147167,-0.6462501086872484,-0.48426670216516,undefined,1497541245108
903d185fccf839df,-1.0063278770866364,-0.5240945495701242,-0.6396928037120825,-0.8714357393582756,-1.6243081850896721,-1.2355949312990975,1.7009130521000324,-1.0935013398907008,-0.3975782289242637,-0.6107564827989858,-0.045998965692235244,-1.0497256156765018,3.7433572860962565,-0.9530218801000274,-1.0981273969230443,-0.9485220207249088,-1.1002648311399825,-0.9551243213412365,-1.081653102641965,-0.8967434969316306,-1.054357012070962,-0.4287875579786518,-0.5565815050587112,-0.4349532307323733,undefined,1497541246601
903d185fccf839df,-1.1282971939776139,-0.1577969569184398,-0.7507069390548073,-0.8374603497635382,-1.7272988698939509,-1.5799845961114904,1.8054662452999695,-1.2351649643857663,-0.2628528168758011,-0.6343792936993708,0.03057246259970586,-1.0463499479401948,4.043637199197861,-0.9845002334511178,-1.1265484685424287,-1.0475318104379185,-1.104513010943273,-0.9899428456573908,-1.127706111605923,-0.9141591391487123,-1.0922200772865016,-0.4185945224309185,-0.5485918147227864,-0.43511040839344073,undefined,1497541248082
903d185fccf839df,-1.2793727901311223,-1.0336241524993353,-0.7909017472495111,-0.850000084721469,-1.7738416498572465,-1.8277970137057684,1.8170058417538402,-1.6238664308745883,-0.20382123009091302,-0.629823545290297,0.0916674356367172,-0.8814866391103944,3.4561330213903743,-1.0094977472525937,-1.190759083225204,-1.0879439638082464,-1.168888401864974,-1.0440071859364828,-1.199724284925778,-0.9757221247430059,-1.1561681224649818,-0.4119910090391725,-0.5331520174864259,-0.43719182627098424,undefined,1497541249591
903d185fccf839df,-1.235020338709161,-1.079998337350925,-0.8527886688991986,-0.891136417665729,-1.8192015759454525,-1.9185301981030833,1.8324848764636,-1.6579962414294265,-0.3014427977456765,-0.6363545702308402,0.07797700777161715,-0.655919483586422,2.598812110071301,-1.0178302594077042,-1.2686539214281107,-0.9202335144256063,-1.121043758746901,-1.05774967317383,-1.2411244148219063,-0.40693434151699953,-1.0505698999167712,-0.4265230382684942,-0.3729396388664601,-0.3531631987832834,undefined,1497541251089
903d185fccf839df,-0.7928816566343618,-1.0148396433314586,-0.6377786442090254,-0.7037725729371936,-1.5229735039182561,-1.8949746024025376,1.8717899556945148,-1.3140533584237866,-0.2872743234686618,-0.5759232027120693,0.025545565263057284,-0.35898820075822496,0.5142602495543672,-0.865067666071758,-1.1591800955356109,1.2478787052093216,-0.11726693364467457,-0.975769717469311,-1.1565539621959375,0.21277609449951543,-0.8590237840110889,-0.36508256824627433,-0.23093447877173473,-0.20054880472277054,undefined,1497541252596
903d185fccf839df,-0.5212228431516159,-0.7025473720509571,-0.08462263527235696,-0.1602350123893842,-1.0908507975534938,-1.863399435407598,1.9178588915289703,-0.8566248779088118,-0.3005187178576325,-0.47972190175961266,-0.054570413546643666,-0.1402460684840901,-0.7651932932263815,-0.6576808717133542,-1.0444431108566141,2.347089351783754,0.24280366374145768,-0.8006574906775092,-1.1077302156354505,0.5883287774330535,-0.6833946983624825,-0.28077098596277555,-0.022364500093538003,-0.14059594213319707,undefined,1497541254138
903d185fccf839df,-0.4228157264512489,-0.3462289466833592,0.880688357911041,0.5781657723687174,-0.8925734187937298,-1.7104546012954638,1.8716400553258041,-0.7902760436584159,-0.4390673969041375,-0.5186665159080056,-0.26600360539718354,-0.017966565473066177,-0.8826941287878788,-0.3817824078770735,-0.927600867816582,2.5632942481268883,0.3200831732033649,-0.5892764977042436,-1.063825227494408,0.9777554579770572,-0.48575299741931066,-0.3040422091391707,-0.17820034856140105,-0.2387855284285102,undefined,1497541255603
903d185fccf839df,-0.4574660934120524,-0.23469598012832624,1.2201106179175407,1.1156276070032443,-0.8564809042227896,-1.6272471866967746,1.8963365778874481,-0.46166166812120557,-0.5257739318895093,-0.5672029742435803,-0.30784232054731125,-0.03801033177792204,-0.843527183600713,-0.2697565050181484,-0.9328640109583323,1.7590923434143182,-0.36218657581164426,-0.4022266750316009,-0.9784221534504385,1.4462223642471512,-0.2827348069485688,-0.3537638584735973,-0.4954988370154096,-0.4349428824164812,undefined,1497541257100
903d185fccf839df,-0.35628708813689275,-0.2235426367080352,1.0714542259001207,1.0171858799010116,-0.8866077123428533,-1.5706187251915658,1.864865697316279,-0.554379837105221,-0.5483677812843682,-0.876442307457098,-0.2813528287244436,-0.042194576100990505,-0.7390819964349377,-0.1827281418622483,-0.9486535213681548,1.4458981433117335,-0.41397419370573535,-0.26406717583759465,-0.9222727460916994,1.4880137416612473,-0.2041994954659542,-0.428212419697109,-0.5663038311836062,-0.5452280506153225,undefined,1497541258596
903d185fccf839df,-0.5184507475443649,-0.3579691881898023,0.8870687201632649,0.9104959713610624,-1.0166189206265013,-1.518217830944579,1.8599006231393067,-0.5543666153242919,-0.5769104383225485,-0.7741603427894611,-0.10769537889439978,0.04384779243666341,-0.6476924576648841,-0.1679147480675061,-0.9676009220803679,0.7346442948704605,-0.38035969244767426,-0.22192143513303114,-0.9264428451539848,0.9258164984577133,-0.3116185211474042,-0.4228814983085929,-0.3226507377610339,-0.516639766361032,undefined,1497541260113
903d185fccf839df,-0.3230226999688952,-0.3503379932142242,1.0689019285170616,1.2806673548988448,-0.9389207639455837,-1.554952263443577,1.8753165368045686,-0.4707918060888937,-0.6052565075447004,-0.9464643349127795,-0.16007927071947536,0.06859039387452827,-0.3996351381461676,-0.07810885819604707,-0.9591798297383568,0.7265619412177611,-0.28601573384466883,-0.14562212913199954,-0.9450963419113059,0.9135131421077582,-0.29053834328488687,-0.40758128264320614,-0.21807468972370744,-0.43879670350382366,undefined,1497541261637
903d185fccf839df,-0.3216367211760892,-0.3661873981635017,1.0382771554267947,1.2793374044657297,-0.9030442540197555,-1.5453697737479921,1.8505569157201458,-0.6147385145359815,-0.6116269234266959,-0.8606945261551057,-0.13541388031744353,0.07608936181154577,-0.7521376448306596,-0.05033386300672313,-0.9486535213681548,0.6962526627845937,-0.30557527038324084,-0.19848321111452327,-0.9294304825480545,0.9051055929134321,-0.30575766605796467,-0.43915963698403415,-0.3712878492393978,-0.43046934538229886,undefined,1497541263130
903d185fccf839df,-0.39370941268330834,-0.3796887431202936,1.1875719394611663,1.2806673548988448,-0.9056156785954549,-1.5353587035832947,1.8704356194809983,-0.47172844710142514,-0.5763294005355654,-0.7861602630529053,-0.1589738578785876,0.038909916663638223,-0.9305648395721926,-0.1049580154637762,-0.9423377260389063,0.6659436952633633,-0.38191726050401636,-0.24704422389162822,-0.9125681685921789,0.8273280445603699,-0.33618764467212464,-0.4716911509101435,-0.4098599223490187,-0.37595368493988907,undefined,1497541264652
903d185fccf839df,-0.38400731959579804,-0.4190188649063959,1.0472095609251284,1.2355524732472536,-0.9019128272935103,-1.5658833834803234,1.8543675056528168,-0.6433435848978456,-0.5601355892128337,-0.8638501189172251,-0.0827708710864527,-0.021183022750139287,-0.9958430815508021,-0.12995557459296303,-0.9402324511128451,0.6356345581538037,-0.37137923146797763,-0.2843769265487272,-0.9063340101255278,0.8531358402187932,-0.3556243565990444,-0.48067883186888133,-0.32520235999129965,-0.3781190013575491,undefined,1497541266128
903d185fccf839df,-0.345198947245757,-0.46891513974671384,1.2162828071853256,1.1896416276267279,-0.8814442906310735,-1.5785334814319545,1.8259892655747207,-0.8400868748029946,-0.5492522890183915,-0.8599847770848958,-0.12723201446239057,-0.023282296564753568,-0.9697317847593583,-0.11791974636610338,-0.9454956237035306,0.6477582016917388,-0.36759669411147994,-0.2817297556818641,-0.9107769849771642,0.8808376429439341,-0.35198576083348004,-0.48426101319479486,-0.3157775687008138,-0.3760115688685769,undefined,1497541267744
903d185fccf839df,-0.06383793715927165,-0.3638393966270008,1.6896870834756392,1.5921078211342754,-0.637858413396069,-1.681245941740907,1.8654994679045172,-0.6999306605579801,-0.41654511878247286,-0.8574320870306813,-0.2590557604031594,-0.03431796905481036,-0.9914911987522282,-0.06514719204759262,-0.9212850724873335,0.8498189932750099,-0.3763536142253985,-0.20186500322096068,-0.8884711521164145,1.0238430045381397,-0.27683930388851524,-0.4933906902054982,-0.2671334462461608,-0.3570801346095739,undefined,1497541269102
903d185fccf839df,-0.22045764689011008,-0.17540740686208142,2.203286422097606,1.7848604413965066,-0.43147590020864746,-1.7142955163502867,1.811136122518026,-1.0064628571606866,-0.45086802417778554,-1.2326846281469692,-0.1598793072515528,0.005057784473005378,-0.865286597593583,-0.007745486973431516,-0.8949692316206076,0.8376953497370746,-0.3291358834791996,-0.07580142542648965,-0.8706222881756001,1.0163285660951356,-0.21059457964821945,-0.42741946458310215,-0.27154472483004977,-0.3297330351977097,undefined,1497541270645
903d185fccf839df,-0.12482259129158423,-0.026305421971294988,2.8023789553273013,2.468343176656097,-0.299983550373153,-1.7470003631295787,1.78201890452408,-1.1348360201908163,-0.451459713858528,-1.499682552523718,-0.2044822350798528,0.028905297076399904,-0.7782489416221035,-0.014226365375369652,-0.8591797345711779,1.0054057143255501,-0.26015335735643946,0.05155406885854968,-0.8238136230986596,1.0066891363109765,-0.13525987059430544,-0.3942958537750626,-0.2003552962678997,-0.2864080999427731,undefined,1497541272105
903d185fccf839df,-0.1137344849058582,-0.22060756171742826,3.030786825854127,2.719194332891067,-0.2373642311080779,-1.74341333515811,1.7962251159287175,-1.0474914682395844,-0.5029687340090694,-1.4128766393043415,-0.1994508140034865,0.007926104012331178,-0.852230949197861,0.13946203026754134,-0.7623375297063895,1.2640435750368693,-0.183918954734386,0.12335698466592307,-0.7659989756137768,1.2147837263758419,-0.046709546492350665,-0.3878119659452667,-0.12064907471574265,-0.18012360966136498,undefined,1497541273622
903d185fccf839df,-0.2661960857312299,-0.16249301844742622,1.8849183918030374,1.8077206868071498,-0.1952031620181949,-1.70309886340422,1.8189597872986114,-0.8694488323360261,-0.33420044110906943,-1.2556331843925375,-0.19330874793885078,-0.0588141618296661,-0.843527183600713,0.14223955698310028,-0.7633901598071863,1.3529503414229305,-0.12668243603049156,0.08382674984407586,-0.7349681200424731,1.1534055222480646,-0.07379380813339613,-0.2970403892203291,0.00716451948614705,-0.12421694101016673,undefined,1497541275109
903d185fccf839df,-0.4117275510547034,-0.34798993322173866,0.8800502200310389,0.7573235478924547,-0.1779643245073059,-1.6940031855872095,1.8553641954041689,-0.730963842226925,-0.2956650276523961,-0.8310675836610447,-0.11289033295863558,-0.14410565801878414,-0.7347301136363636,0.10242874651769125,-0.7402322313295522,1.27616713378064,-0.10364614693349859,0.022428861572770586,-0.7215272453574124,1.1625829999477537,-0.09846628058673021,-0.23192376396027198,0.03715314955677118,-0.007864168295529855,undefined,1497541276612
903d185fccf839df,-0.2772841231061364,-0.42019286567464637,0.4742753438995838,0.4125394380976881,-0.03547655860214272,-1.732778029816261,1.8681056062795554,-0.6795887243900212,-0.28992770340493856,-0.9154838431154991,-0.06632912298144969,-0.04344309512667309,-0.7564895276292335,-0.049408012134353786,-0.7402322313295522,0.8114274459833077,-0.19989959693315332,-0.12600900473902635,-0.728936868522359,0.8593568123675653,-0.23341291337095216,-0.2390987709617635,0.030871605761133316,0.07019755918395106,undefined,1497541278140
903d185fccf839df,-0.1428409712008474,-0.4008213999646329,0.39005791677796103,0.3641305551237229,0.12686259864623847,-1.7261955990825906,1.8593930611193656,-0.6945042129320813,-0.2957420827790179,-0.6264500951687137,-0.025096007718003525,0.035588470572892376,-0.7303782308377896,-0.0873672244612205,-0.7623375002574543,0.7285825296309358,-0.27662163136736934,-0.22546155154563316,-0.7667686249080844,0.7599290492458429,-0.3074902227743777,-0.25032419558328584,-0.11358635768604651,0.01878170716209912,undefined,1497541279643
903d185fccf839df,-0.27451209650970493,-0.3984732815161627,1.0988883095903768,0.8844516351261607,0.01750506726711931,-1.6191181423166237,1.7908077155559978,-0.9581725635352383,-0.5186513533452007,-0.5943747722051815,0.041910974324752076,0.016010087912029274,-0.6563962232620321,-0.34567483901646,-0.8023375545212402,0.5204599162786973,-0.4632106334727495,-0.3680097792408557,-0.7970858070667839,0.6156148162481153,-0.41481880843754526,-0.264330361521073,-0.22773991025212975,-0.04950822504420117,undefined,1497541281097
903d185fccf839df,-0.14561272175400103,-0.29809365838142077,1.6003653157248474,1.5201872289343132,-0.15568549787019845,-1.4773536556238893,1.7783397974319384,-0.7807397675311887,-0.44779388124221187,-0.7317550244196639,0.11001527626757544,0.1721104977571814,-0.852230949197861,-0.39104074176531056,-0.8265480983752035,0.5083362444760404,-0.48825849208012445,-0.4233343754501651,-0.8323077536194489,0.5639222359753784,-0.46321886183487965,-0.2822031012897482,-0.2892714620374507,-0.14069710083341636,undefined,1497541282601
903d185fccf839df,-0.2440198039489584,-0.34270685669463086,1.2073506558239413,1.3474256984186688,-0.3854062570197439,-1.4535418425175852,1.769416871660983,-0.8844615746650941,-0.3350720269325085,-0.6860703821563557,0.06401588246343831,0.08324706689226963,-0.5345435049019608,-0.42899991523985365,-0.7749690909159512,0.6962527758434799,-0.3932578427812125,-0.4563860090173837,-0.8022774408229172,0.8024287567255587,-0.4154449743171222,-0.3611150315257858,-0.38602906309174023,0.06266499690095632,undefined,1497541284137
903d185fccf839df,-0.354901074838677,-0.2945715099367077,1.0280689824423557,0.9765520711356281,-0.4520678638991978,-1.425108821347247,1.799401916941519,-0.6169521181589784,-0.3175375105053677,-0.7198920197678434,-0.03852526453818604,0.08572070151664954,-0.1298184046345811,-0.3188256558471818,-0.7454953818335363,0.522480504691872,-0.3937547020260026,-0.37550798463240104,-0.7918941738611861,0.7092835605440672,-0.3844798561515801,-0.4013253056593727,-0.4647714165533671,-0.05250712766547544,undefined,1497541285595
903d185fccf839df,-0.42697383535671557,-0.33096649827621843,0.7709507524652699,0.5882550211499491,-0.5189866210866664,-1.3816778271438506,1.811296541053069,-0.4672464222082852,-0.31046107353707303,-0.7093670651680699,-0.1421847478147743,-0.03810562097556852,-0.35611631016042783,-0.2910506736086324,-0.8033901919842709,0.5042949545908045,-0.38730449245309445,-0.34499586045553343,-0.8041176020039615,0.7502434263466262,-0.36868056475155625,-0.3885599890142578,-0.4699434458552666,-0.0008475835164996508,undefined,1497541287096
903d185fccf839df,-0.2814422320116032,-0.0016507335942120389,0.8130592118891319,0.7158412925939475,-0.3402829170393495,-1.4789398708741321,1.7568227292557999,-0.9038881681625381,-0.543242368040949,-0.968390377486376,-0.07824979489851457,-0.000054423848630985116,-0.35611631016042783,-0.20865140940528448,-0.7223374754426036,0.5871400122667841,-0.22492333812292378,-0.33073407167054,-0.7396979635038791,0.9090013974304488,-0.3024758618928017,-0.41260038767280427,-0.49324375147306126,0.10044487907995096,undefined,1497541288600
903d185fccf839df,-0.01948551161636758,-0.003998793586697589,0.8449597524655041,0.8334161070716912,-0.21456084204812492,-1.6545132621398648,1.823112249586513,-0.7599183124647408,-0.5503724036660321,-0.7334372509369036,-0.04274522269754704,-0.04233947774768622,-0.5519510360962567,-0.20402224569885957,-0.6507584445325753,1.1811985738903328,-0.17413840581669487,-0.3490236128558215,-0.6493901238547659,1.081879747686862,-0.23701232413483347,-0.46442098895348116,-0.6167907912401688,0.1860156622100039,undefined,1497541290094
903d185fccf839df,0.1773285147519082,-0.7066564478098144,0.37984974379352193,0.3245426171567434,-0.34738004880810436,-1.8967890799244933,1.861738839523807,-1.0117086302151825,-0.44662676471024515,-0.4348447799489358,0.001842452929511196,-0.03983250134365127,-0.5824142156862745,-0.25864647586055994,-0.7149690500125583,0.6093665978705937,-0.4246859555720156,-0.36936502806941096,-0.6962617601990112,0.9542266353679404,-0.2831750679689795,-0.4921344973877675,-0.6777476997054512,-0.060535244160868314,undefined,1497541291617
903d185fccf839df,-0.4574661279174621,-0.6573471879676179,0.1807898623230602,0.08320019969965667,-0.6984720305549391,-1.9093739603876048,1.9235945164524224,-0.7534628841306341,-0.3856892333079469,-0.24156568524532093,-0.017700694265836626,-0.004583354219889742,-0.7913045900178254,-0.37993075146004573,-0.7012847850798618,0.6033048043663476,-0.42742732919980964,-0.4526432382133219,-0.7239411438558685,0.656913450987211,-0.39591912501142373,-0.434685555032677,-0.5794849586442471,-0.051155704801155395,undefined,1497541293097
903d185fccf839df,-0.6237878962304011,-0.5822091805241033,0.14123344614530803,0.1783631221819387,-1.0304840415727055,-1.8651603419229827,1.8732074344267249,-1.117440276457764,-0.37204740230157335,-0.5934044853127359,-0.09504663365319203,-0.01967577597759947,-0.7913045900178254,-0.37437572393047697,-0.6833900586418483,0.6235109146158684,-0.4643936216708168,-0.4612053782644758,-0.6768875904165954,0.8128073131700588,-0.35819531749144085,-0.41958722121680553,-0.5560430325454622,-0.09595273568742588,undefined,1497541294599
903d185fccf839df,-0.6889305902573609,-0.5399440129753864,0.42642440596655073,0.2708609049945285,-1.1808506412666941,-1.7867604782727382,1.9046783202355033,-0.829665288824691,-0.228361554041987,-0.7437779145062905,-0.1523183786733439,-0.020168361379225373,-0.9131573083778967,-0.48084659278444597,-0.6939163890987516,0.522480504691872,-0.5528706849001055,-0.5458515029526602,-0.6522378264137578,0.7979016186377066,-0.39542395505376543,-0.4484945697751915,-0.5433743388371091,-0.23600002559165986,undefined,1497541296075
903d185fccf839df,-0.4006394791743871,-0.43252023909118015,1.0535894149034535,1.015384481610323,-1.0982873540476645,-1.7711266242012258,1.882782553551708,-0.8908503898822467,-0.22716620119025643,-0.8124546472266704,-0.1711256489853122,-0.01923099367102098,-0.678155637254902,-0.5039924760704432,-0.6907584767096598,0.31637847975280825,-0.7184593457218327,-0.5763382955430648,-0.6995642582115477,0.5507565672189237,-0.4837965182553718,-0.47812353929141155,-0.5560649314183007,-0.48325984621586576,undefined,1497541297622
903d185fccf839df,-0.23708973745787962,-0.4325201660211993,1.4332064831046567,1.3174951653939342,-1.0706496881438303,-1.850490792121143,1.9299639067265035,-0.6173896241486123,-0.30899879410219333,-0.9040923934617208,-0.24583566936524043,-0.08119667395379804,-0.6476924576648841,-0.2947539734919134,-0.6297057688943011,1.2802084236658757,-0.2417219928941672,-0.3759829542122856,-0.645422934191959,1.683635597282293,-0.13966351835716515,-0.4775958239280559,-0.3673615050232239,-0.7207963607302165,undefined,1497541299078
903d185fccf839df,-0.26203811484740214,-0.017500196999474176,0.870480184926602,0.8298905190776135,-1.0578028572520097,-1.6797901641002393,1.811861944083905,-1.0949526226733486,-0.29146266373703295,-0.7263513667507346,-0.20152558859366976,-0.0973187868580722,-0.26907865418894833,-0.29845735107984167,-0.5823373039249374,1.0336943195513781,-0.4103927715222523,-0.38802188056933107,-0.6373346201395264,2.074709910802472,-0.06362893137286589,-0.5165929468069373,-0.5186559199257658,-0.6943536489584441,undefined,1497541300580
903d185fccf839df,-0.26065206704377664,-0.3092469433457271,1.0472095609251284,0.993597354769217,-0.9772349872223501,-1.4844951020356605,1.7653564483042228,-1.085282381899209,-0.210250445616609,-0.9572123939147311,0.0074554620214290135,-0.1207086524398211,-0.49102467691622104,-0.3141964921407569,-0.4054949758081096,0.950849233610677,-0.4886536137396863,-0.3269596364636812,-0.5271978177869163,2.046515358496165,0.00028269249100543143,-0.3293864087456537,-0.6632779931406231,-0.9096153170914221,undefined,1497541302075
903d185fccf839df,-0.05552184011727227,-0.32979246827997566,1.2067122638069896,1.0908829977811036,-0.92668078033873,-1.4817652355732296,1.8094977408186301,-0.7283487166824045,-0.04240813943690139,-1.0607239456248,-0.0754574401465771,-0.07773615038489948,-0.7956564728163993,-0.31049317930670134,-0.2781263581377715,0.7002938961403865,-0.5490095096350426,-0.293084720893875,-0.28938321464901484,1.3813949052026873,-0.050692370005899046,-0.36483851353299407,-0.514948044567704,-0.6587883136748782,undefined,1497541303643
903d185fccf839df,0.3658265303417089,-0.5651857163505908,0.7377739361288933,0.5663922944236857,-0.6411601142053494,-1.4338248361866366,1.6867515379265805,-1.418994991455762,-0.06215815022372505,-1.0882700424491805,0.0725912575579322,0.0532928582370724,-0.6041736296791445,-0.4447390951530925,-0.3149685368236345,0.8579014317218739,-0.5913574979992589,-0.3767302425572811,-0.3263963448778652,1.7500644886355181,-0.014044578810825173,-0.33033015479411876,-0.5417465616279085,-0.78315653302584,undefined,1497541305103
903d185fccf839df,0.020708908537298974,-0.5328998329979298,0.5980496954728576,0.44739569662233186,-0.7613176303836179,-1.4796200081005708,1.7703767394499965,-1.025057720579001,-0.10819136803938775,-0.814876178227648,0.026776346732685443,-0.036643301127310825,-0.4823209113190731,-0.3651173706160781,-0.2823368932654263,0.9003341841046473,-0.523812139545138,-0.3579783974967599,-0.2887045245322786,1.6292636856441034,-0.014076321994004656,-0.33361147328192,-0.5031754844496583,-0.7343019059983186,undefined,1497541306607
903d185fccf839df,0.1634685197913896,-0.572229954784032,0.4755513655226387,0.4799721587542646,-0.552826556339143,-1.5382539454924518,1.8069257836034884,-0.9305513866488203,-0.27866012832295245,-1.0065148621291866,0.1899687612185607,0.17267598882537108,-0.6346368092691622,-0.3947440545993661,-0.3065474665683248,1.0054057425902718,-0.5157016151090378,-0.37354477441780926,-0.3162089883759984,1.6746275049730397,-0.02344118610427089,-0.3683312283997981,-0.519756973577737,-0.6806403870188642,undefined,1497541308130
903d185fccf839df,-0.05690783616278316,-0.5669467613449549,0.43854623018014804,0.45536903853459054,-0.695160034422113,-1.5783681038396957,1.8272962663734127,-0.9298753551716157,-0.3255847563725891,-1.0314651113846003,0.18989757560298878,0.07380049024102386,-0.7738970588235294,-0.39011492974526485,-0.24444212128993545,1.3044558238006325,-0.4502091163924554,-0.40848362449219744,-0.31743342985733963,1.7213463911360727,-0.02845456583988338,-0.4209713292179045,-0.4727497737772257,-0.5764797491738882,undefined,1497541309621
903d185fccf839df,-0.2911443941099329,-0.44543459827784304,0.4053696679807209,0.4079355686130889,-0.9699115751380563,-1.5899956641016608,1.8770863861554279,-0.6826839067209176,-0.3670943106179972,-0.979098851779377,0.15643189209957672,-0.09329860314273462,-0.7086188168449198,-0.4104832733649286,-0.3728633764233042,1.5772378599336185,-0.33322856976314674,-0.497860457885927,-0.3841900019484689,1.8847546969179898,-0.04538153710044515,-0.3896943381865969,-0.5020373004137123,-0.5282974427535845,undefined,1497541311111
903d185fccf839df,-0.23570379317048334,-0.3233353617566251,0.2949944329288464,0.15064162928586433,-0.8184341112675959,-1.591884678517615,1.844432092978096,-0.8391611409669956,-0.41862534897893683,-0.9377742247435721,0.020012076861023187,0.05225421023752036,-0.678155637254902,-0.44103573051593875,-0.5107582509282078,1.6095674441327454,-0.378324076396513,-0.5657052829315504,-0.5037934863770438,1.8967038898977302,-0.12458522909969522,-0.3662159101842877,-0.5698101244660188,-0.16506500948992622,undefined,1497541312606
903d185fccf839df,-0.20936943698815486,-0.34505485823113174,0.20503452729805255,0.15064162928586433,-0.9397024786509579,-1.612698758860056,1.844958055765869,-0.8957667614360515,-0.30839606481426546,-0.6914783341204879,-0.0735510852140417,-0.04677132870332661,-0.7738970588235294,-0.4845499315200506,-0.577074131334252,1.385280123475108,-0.42300417736375046,-0.5798467458974067,-0.5018903532680521,1.4094200888522082,-0.2101358948152353,-0.42628457871578757,-0.6814951646938068,-0.5419702856018883,undefined,1497541314096
903d185fccf839df,-0.3673751255117993,-0.4483695563564806,0.2803200571952405,0.31323168415693076,-1.0380337408543308,-1.6518905373444628,1.8833742677112022,-0.7361897415287566,-0.3961020842155577,-0.631348988913326,-0.044301349598558706,0.07599872957184962,-0.517135973707665,-0.5928725150695329,-0.4549687009790669,1.082188837173676,-0.4049498642778106,-0.6305989562401193,-0.4276192065951076,1.0184997503628752,-0.28732917103349875,-0.3631753745444848,-0.8013425451099233,-0.35423961772347984,undefined,1497541315583
903d185fccf839df,-0.5309249362391262,-0.6309314545961708,0.1744100083447352,0.09144187694832209,-0.9213939393788633,-1.6180466920643928,1.8518691897435486,-0.9127303646852879,-0.3348311913182408,-0.7098994799020605,-0.02363031830983692,0.055993342166054505,-0.5650066844919787,-0.6382383724906725,-0.5602320055481002,1.0842094538515723,-0.37426778290585583,-0.7113313212152288,-0.5242241753297682,1.0542857394647684,-0.35356225085357584,-0.3401131318215709,-0.7508593668400138,-0.33545062200528036,undefined,1497541317111
903d185fccf839df,-0.2939163171901352,-0.7653580645339225,-0.0035956434137955655,-0.09866195884880552,-0.7886878749522198,-1.567665250676957,1.8492604173749592,-0.8290156474434683,-0.2744834374650588,-0.814940512904852,0.022260563702298595,0.028211636583738216,-0.6433405748663101,-0.7187859284738944,-0.6044425875773071,0.48004780883854176,-0.6174069100672454,-0.7333003024279249,-0.595570656285791,0.8413406337128619,-0.4377234562090829,-0.33210701540726845,-0.7272899341846472,-0.4070184585369237,undefined,1497541318614
903d185fccf839df,-0.3659891467189933,-0.7823814994794428,-0.21477734909785462,-0.22208126676743473,-0.8539711921528842,-1.524418267410561,1.850307070773316,-0.7945197165932579,-0.20999594544129577,-0.7198531481897676,0.06581465586680134,-0.09975905660541456,-0.7347301136363636,-0.6771233774114231,-0.6339163113841897,0.4315532064220792,-0.7478424751564746,-0.7466438145900899,-0.683079770672791,0.8475308098323289,-0.4737147061938925,-0.3134010923330756,-0.6538348615429521,-0.47952325878403346,undefined,1497541320104
903d185fccf839df,-0.03750364998776262,-0.6784797278999879,-0.15225203543121557,-0.21239800602673176,-0.8626523218377123,-1.58792963396893,1.8597770092824928,-0.8188848167138736,-0.30825283727865305,-0.7610213003533383,0.10008950592043124,-0.12943013139695939,-0.7434338792335116,-0.6771233903621977,-0.688653187059131,0.5649132288099239,-0.6535259452376562,-0.6967085548510173,-0.7632282396138008,1.126365856163852,-0.43107584322077014,-0.35367931199535524,-0.6573039120960094,-0.33902750109512086,undefined,1497541321644
903d185fccf839df,-0.2273876788757791,-0.5270297414727005,-0.11716131372873137,-0.0529658929134253,-1.0629457013720982,-1.6165862636263517,1.8665987278473644,-0.8449547799844473,-0.43454748720002034,-0.5045135412256839,0.11162521968665703,-0.06459806640238505,-0.6868594028520499,-0.6465708684573148,-0.7233900981811666,0.5366248214371467,-0.6514516570329496,-0.6782733553244394,-0.8089244115350184,1.1562696391591132,-0.4383110215454538,-0.3709965710248785,-0.6240210966807768,-0.2926962682887011,undefined,1497541323124
903d185fccf839df,-0.49488848696928744,-0.3808627731165364,0.024477340567310865,-0.005236023677734302,-1.0555091422352392,-1.6326673294504481,1.842951520436955,-0.9589377892177168,-0.43092305023471134,-0.5128375246284129,0.00397404855043835,0.032057424101620664,-0.8261196524064172,-0.6623100613213282,-0.8065480749244275,0.46994472544905985,-0.5792334830186484,-0.6715414369649683,-0.7850372979847472,1.0521761490192005,-0.4438188078508802,-0.38645027365914314,-0.6030428227826375,-0.36265856412941855,undefined,1497541324592
903d185fccf839df,-0.5447849657050545,-0.43075916486882365,-0.1273694867131705,-0.1450471261070659,-1.1116690442162749,-1.5623732181592038,1.830283746153594,-0.925484569272986,-0.3563836183605499,-0.5088418830451957,-0.031799658333930864,0.032259894009881745,-0.6868594028520499,-0.603056693354752,-0.6939163890987516,0.9791378105717833,-0.3863854105490071,-0.6494077982366702,-0.6964996525579191,1.4279598117307641,-0.3158040993864108,-0.38418062020763727,-0.6717323386822118,-0.20338441645366204,undefined,1497541326093
903d185fccf839df,-0.6820004547554627,-0.7530307495733735,-0.27794003823364755,-0.3517479565426248,-1.1617295290538114,-1.5128978450754393,1.8007115742554807,-1.0911421862946462,-0.3586044190845278,-0.6224829162576259,-0.00448973900565154,0.031525765005618454,-0.691211285650624,-0.615092528056999,-0.7244427282819634,1.1428070548633522,-0.5028274849706915,-0.6720037409509414,-0.6830657755584748,1.5512089654749426,-0.29123295655080167,-0.4138713825975084,-0.739371602638439,-0.24119834144957744,undefined,1497541327599
903d185fccf839df,-0.7221948749091293,-0.8898053610476261,-0.36088169786916485,-0.4067532471775614,-1.251256236978877,-1.4624884503656106,1.8093031468850604,-1.0254146303764595,-0.335544305034177,-0.6587754397434901,0.0624680194448572,-0.006794459537006733,-0.7738970588235294,-0.7086017501886753,-0.7433901289941764,1.0235911513677316,-0.36622869833495497,-0.7910060854211772,-0.6942326856014274,1.347656918889928,-0.39269055601654856,-0.35816642146781524,-0.6194353371827506,-0.1942478355603413,undefined,1497541329092
903d185fccf839df,-0.7804075024450103,-0.9250262609349093,-0.5325064791015729,-0.5853985460706564,-1.4063131228285706,-1.4687098466733832,1.813174219678591,-1.0688135436567767,-0.27121624868511446,-0.6272456557929752,0.07528252164620888,-0.04883953412497153,-0.7347301136363636,-0.8511801620017088,-0.8086533719371901,0.9023548007825437,-0.44459413447556495,-0.8936314383555671,-0.8020255535882584,0.9310519758059421,-0.5542479552205902,-0.36834922009018994,-0.5963940443063287,-0.1328943870423711,undefined,1497541330611
903d185fccf839df,-0.8025837324691671,-0.9115249159781174,-0.4846560494424386,-0.5736561378272,-1.4366250724270482,-1.4577600926250405,1.8237250016499558,-0.9722693124433643,-0.2654748291640567,-0.5560030751111029,0.07258350662536055,-0.03871076576048541,-0.8609347147950089,-0.8539576822418804,-0.814969152541971,1.0054057143255501,-0.45515761679742267,-0.895290669100744,-0.8215466563134455,1.0102615782662034,-0.5439116900199148,-0.39892390688854085,-0.609526103245911,-0.06398171861538497,undefined,1497541332742
903d185fccf839df,-0.7138788296252444,-0.8176023993667261,-0.6537287874287369,-0.7610305559843701,-1.3163544186226694,-1.428884513824252,1.8064287659379255,-1.0033208795294073,-0.23311555677018034,-0.5727376301220154,0.0702637970365301,-0.0322112817615325,-0.8261196524064172,-0.8724743338298864,-0.8149691672664385,1.1286627946475205,-0.3526037404585928,-0.9394186203569046,-0.8764716222336629,0.9264940337729471,-0.5996873575750327,-0.3731156591610466,-0.5476032797670085,0.06294920672809666,undefined,1497541333592
903d185fccf839df,-0.6625962340750324,-0.8451921042784313,-0.7813314580081248,-0.8541175699704531,-1.2040037493413394,-1.388572371147849,1.7973138577052323,-0.9680574000707957,-0.2113868647304455,-0.6114766442600684,0.08383645523450778,-0.025428561636932738,-0.8000083556149733,-0.9659835689123374,-1.001285158928204,0.9629729902074984,-0.405707894261067,-1.026002626402794,-1.0010358464118392,0.5069017949917689,-0.7686589170042785,-0.43417142812356707,-0.5766875857649028,-0.06443082278606345,undefined,1497541335212
903d185fccf839df,-0.7000186966430869,-1.0365592274899422,-0.8349238579025312,-0.8843143727845167,-1.0821902397068583,-1.3394859856800916,1.8075122386798164,-0.7839380192760177,-0.28631188226322946,-0.6007415323487413,0.08073329763377089,-0.20084906670501365,-0.865286597593583,-1.0428277764468739,-0.9749693585537639,0.16483293552861764,-0.7514124393558516,-1.0518410368999966,-1.0159670402293135,0.15473934544083967,-0.865843544505199,-0.429450239218475,-0.5814925224732934,-0.14292619122105263,undefined,1497541336635
903d185fccf839df,-0.708334707421562,-1.0265799725218787,-0.86873881211891,-0.8974467919562503,-1.1830312139041166,-1.3385985459372038,1.8253659916786182,-0.6887194551316266,-0.28676044907960885,-0.691372224868667,0.08315454531205338,-0.0861176130238596,-0.5693585672905526,-1.068751121694557,-1.0739168309823797,-0.2534329219861169,-0.8886254002982398,-1.0695669465132398,-1.0942123762998968,-0.23605780162124,-0.9831056685914713,-0.4340404802818257,-0.60143597759758,-0.3149114181687886,undefined,1497541338793
903d185fccf839df,-0.6445781647144568,-1.0077954925819943,-0.7768652552589579,-0.8571357360174406,-1.2640105045454215,-1.291419806461527,1.8008772419222334,-0.7065540214064715,-0.3202332720874285,-0.6674540055707945,0.04598575183186571,-0.3080078317889073,-0.21250417780748662,-1.0752319612441716,-1.087601062785024,-0.44741127512252393,-0.9718424991832654,-1.0869445435487535,-1.1078981383440922,-0.3378877208459651,-1.0150514864533433,-0.44507433603515884,-0.6342939748345159,-0.3292359615874192,undefined,1497541339598
903d185fccf839df,-0.6847725158573039,-0.599819718151722,-0.7392224903103639,-0.9128636165533826,-1.48561584894167,-1.2268579535155921,1.7791550380769516,-0.6902654125243404,-0.34240795009116654,-0.6440595179649552,0.02474794377345894,-0.6370462631552359,1.967789104278075,-1.0761577991657665,-1.1076011009602678,-0.4130609470542538,-0.9363568405891989,-1.0949683831326424,-1.1383832434499987,-0.4120928286842682,-1.0445928199167789,-0.44315620661641014,-0.6218306810883133,-0.299468068027407,undefined,1497541341671
903d185fccf839df,-1.1005769193869464,-0.644432741096978,-0.623742660492371,-0.8424323050771622,-1.6476772906235577,-1.1739981986176296,1.715200781126912,-0.961417018747774,-0.31094475841837843,-0.6261197007994532,0.011660219278537127,-0.9079872344821313,4.256879456327986,-1.0854161330540035,-1.145495861892408,-0.7484818599518949,-1.1993034570640098,-1.1286723091899393,-1.1612348276325342,-0.6375106715051451,-1.113168226271717,-0.45897126443829295,-0.6502351883715365,-0.3711839735447255,undefined,1497541342600
903d185fccf839df,-0.9009908319168294,-1.0054474325895086,-0.7296522010689775,-0.7736278717928433,-1.5773231235205993,-1.0585797378003698,1.5828531631702867,-1.4508470837347633,-0.3269459682982267,-0.6533565644787034,0.08270623987356802,-0.8705946006801623,7.055140095811052,-1.0456052772608837,-1.087601066466141,-0.5423798632775526,-1.0897124154757118,-1.0354640451039276,-1.1091085859773486,-0.5763788418044682,-1.0414477801218789,-0.29165170734037077,-0.5446396049993101,-0.3447305356236714,undefined,1497541344096
903d185fccf839df,-0.8566383718685157,-0.8622155392239514,-0.6416064549412407,-0.6426829259022125,-1.415282256497639,-1.0265154326835009,1.5567944181273006,-1.4391139387791125,-0.24835208534429012,-0.5702270018869966,0.056304921725784704,-0.7511671826955693,2.664090352049911,-0.9696868914594738,-0.9465482574854444,-0.08572249380201788,-0.6176263491318809,-0.8872161670747689,-0.9303400681394173,-0.10580234829283644,-0.8110699662750727,-0.046672711452997645,-0.43634255589459064,0.08919830414384507,undefined,1497541345592
903d185fccf839df,-0.7388270862458328,-0.36149139509049993,-0.4246827790219093,-0.4980797820782053,-1.286587613215816,-1.2072620672597387,1.6497501722911891,-1.21820046791352,-0.2593574717534962,-0.7929307451670311,-0.07290261061862763,-0.2794753148605489,-0.691211285650624,-0.7132309268458747,-0.9065482069027753,0.5851193390594447,-0.17263055412796527,-0.7464981580371364,-0.8901783742639428,0.16300831549192688,-0.6812167632409927,-0.0666723760010888,-0.3258748824466535,0.0008316320070988009,undefined,1497541347102
903d185fccf839df,-0.4214297821638526,-0.20006209523916438,-0.0756902297740233,-0.18226269846065973,-1.0886702330461886,-1.4014926650582733,1.7356843454457735,-1.0452142807179956,-0.33857613309666873,-0.8305305643094012,-0.14041021571432977,-0.009378209551306043,-0.6955631684491979,-0.53547079056921,-0.8854955607134363,1.2014047406692967,-0.04774707973338956,-0.6115177972391173,-0.8476447605103107,0.4731176086712491,-0.54351548401487,-0.09277432367885392,-0.3495382001622316,-0.06304789663949803,undefined,1497541348589
903d185fccf839df,-0.4075695801708756,-0.40551746149361934,0.18015197858000748,0.09008813844059062,-1.0297537617021773,-1.622223018595863,1.8167323364322507,-1.091762506570917,-0.40508826042934226,-0.8865280133577585,-0.09095751314574377,0.0734219805675374,-0.6607481060606061,-0.36882072230245727,-0.7507585249752866,1.5024752972339461,-0.1836623884192386,-0.48313636343181404,-0.7591560934508472,1.1287834117892859,-0.32766680780070334,-0.1455072447897921,-0.5650290000286322,-0.24660893892009608,undefined,1497541350089
903d185fccf839df,-0.403411574781638,-0.19536591679820858,0.5616824438734197,0.43638130931545405,-0.9633801639963159,-1.6517950405792265,1.8214423222920544,-1.0792623628006552,-0.40719223051831577,-0.8351888979566866,-0.10396737513419681,0.048275820733041146,-0.7826008244206774,-0.34845233983046986,-0.7654954052843124,1.3307236144955132,-0.29456125155217794,-0.42636152333077504,-0.7194491922089521,1.232199370881516,-0.26968407552981144,-0.19829482302416462,-0.7163518086388908,-0.36419418233604733,undefined,1497541351608
903d185fccf839df,-0.48657240717999295,-0.2669818342529949,0.6637646819917097,0.6303181833253507,-0.9999149596749035,-1.6878353585237347,1.8829587430511194,-0.7852782869703973,-0.490852083796783,-0.5155210020415958,-0.12190824680855362,0.0024831472019399424,-0.7042669340463459,-0.5262124566809728,-0.8465481144637458,1.1327040562680348,-0.41457339842360347,-0.5229389133534993,-0.8273750009053741,1.4269281158050888,-0.32170678589880425,-0.39909780317668764,-0.5716123588086534,-0.2172757458290799,undefined,1497541353116
903d185fccf839df,-0.5974535745534824,-0.36031724818228783,0.5406284682984381,0.588492395823962,-1.1579649757388057,-1.6850099907585552,1.88088646001681,-0.8525572727507985,-0.3262586484685539,-0.46071709094020663,-0.04867292569555739,-0.0278108914828226,-0.678155637254902,-0.41233491035579456,-0.9339166631458304,0.8114273894538647,-0.5342989742095763,-0.48257272984442967,-0.9018140713268606,0.9330845696894149,-0.41771930638926286,-0.3987426423747473,-0.5185432346904723,-0.4885839297740201,undefined,1497541354600
903d185fccf839df,-0.6820005237662822,-0.3468159032254959,1.1939523017133902,1.1441245850648285,-1.1677775248839863,-1.6715539757775078,1.8957580127452722,-0.7199894624077571,-0.3789577468637717,-0.5013395017150337,-0.0026790256144660577,-0.12977065341199856,-0.5519510360962567,-0.3882632409513007,-0.9402324805617803,0.748788555086292,-0.5264785631359717,-0.49019126034088234,-0.9011003968437707,0.7472715287583217,-0.46026853285109165,-0.40026833619875196,-0.5868513963699752,-0.4401276711999136,undefined,1497541356108
903d185fccf839df,-0.6210158696339696,-0.3198132133119121,1.3183642828927673,1.2100204880844703,-1.1547558332334935,-1.65520271748111,1.8793243504742734,-0.7824563223086717,-0.36256772266521975,-0.6121999175662499,0.013546396563510525,0.014278297846264904,-0.6041736296791445,-0.3558590561540028,-0.9191798196479737,0.18705963419131327,-0.6053045510021723,-0.5078475072580845,-0.9163254573909422,0.31229624168392134,-0.5561447051416489,-0.41326513840368645,-0.6002220105421332,-0.42670176044280417,undefined,1497541357608
903d185fccf839df,-0.5378549337193855,-0.45071767480495084,0.9783041391432149,0.9197269139252359,-1.128403872571674,-1.569579886815366,1.8215238456756664,-0.9764162527237051,-0.4758089385271925,-0.9209091169649745,0.01197585928492782,-0.04898062589702433,-0.9479723707664884,-0.34289734467783745,-0.9412850885758758,0.29617245429745204,-0.5619438319966104,-0.5522414415839556,-0.9432911658490135,0.4227338958171905,-0.5604467422207705,-0.4459605370427309,-0.5532461172305848,-0.4162193436325754,undefined,1497541359119
903d185fccf839df,-0.44776403482995186,-0.6338665295867777,0.09465827569838041,-0.03097367466546225,-1.17217980121593,-1.6016977660710296,1.8153832509217267,-1.1186726180862838,-0.4341970013945305,-0.8067718296676533,-0.020955023204982926,0.07610922339337722,-0.673803754456328,-0.4002990562273858,-0.9107587567548977,2.003585943909806,-0.0229306718705423,-0.6232780706582346,-0.8855254955814879,1.5330234122669621,-0.29940428818646364,-0.4474388466813013,-0.948541366860241,-0.20153687776161344,undefined,1497541360627
