UUID,iqrAccX,iqrAccY,iqrAccZ,iqrAccXYZ,meanAccX,meanAccY,meanAccZ,meanAccXYZ, covarianceAccXY, covarianceAccXZ, covarianceAccYZ,pressureDerivative, pressureIQR, iqrGyroX, iqrGyroY, iqrGyroZ, iqrGyroMagnitude, meanGyroX, meanGyroY, meanGyroZ, meanGyroMagnitude, covarianceGyroXY, covarianceGyroXZ, covarianceGyroYZ, class, timestamp 
903d185fccf839df,-0.1123485061130522,-0.47772042317451935,-0.25943785176782636,-0.363395424997047,-1.0299317789579219,-1.5079609266624012,1.697796328194552,-1.5895605501628352,-0.32779340838931403,-0.9271092922063501,0.13872251970284094,-0.5766316875805196,-0.7847767658199644,-0.0003388095022222231,-0.9118113426822918,-0.035207295906200115,-0.6990836969215886,-0.31492634210471654,-0.6872965123311509,0.11637156770494382,-0.45187069989493817,-0.33905390912829286,-0.3964881957364802,-0.24999525780007126,undefined,1495768477068
903d185fccf839df,0.7747009363910922,-0.27402598500245917,0.6599363629855957,0.8589366556411364,0.25684782871963496,-1.5726299235378056,1.6960876296991607,-0.9679038951314879,0.08601788712779417,-1.7349035125152772,-0.27150142462645,-0.9261860432316571,1.9764928698752229,-0.11699394729683223,-0.46760036525990173,2.2723267749517206,0.3015747531076968,-0.2786909810584152,-0.4306423508975446,2.6457999025619277,0.152417032897208,-0.3993142717758264,-0.17814149967219062,1.3167673281425027,undefined,1495768478465
903d185fccf839df,0.6049141520853186,-0.2593506100494245,1.4236361938632704,1.292325933415291,-0.11469265318174485,-1.6140768171393283,1.7978440217403169,-0.6008744259161604,0.015568351606328785,-1.2595218524302285,-0.11711623648990421,-0.527333402057804,2.409505208333333,-0.1614339085178916,-0.7286532781340859,1.3994242141026103,-0.17387982003189928,-0.3243577554493787,-0.6528279103950074,1.6284902829106722,-0.139265727446523,-0.373420347254499,-0.24938816018688306,0.8407067685463329,undefined,1495768479961
903d185fccf839df,0.3381062988828036,-0.30484430163182435,1.7649723592358777,1.516905518614626,-0.27552722022736736,-1.6312596483987722,1.820981977345286,-0.5884538759043078,-0.12045339353164766,-1.2906950616271144,-0.0800115639789364,-0.3178730755778459,0.2749066956327986,-0.21050312410079772,-0.7002321991524677,1.1347246729459313,-0.4076775517562402,-0.4026365937215842,-0.6706241503314693,1.280719524796054,-0.244624477299646,-0.42016489558305486,-0.22835854870629158,0.3869221068807655,undefined,1495768481464
903d185fccf839df,0.26603357287017476,-0.1847996176040313,2.4553005655824722,2.355828004183723,-0.32594464870598927,-1.6560552199236835,1.8768786400619746,-0.3627972353245727,-0.35702596517909324,-0.38137934710198457,0.10252020753512156,-0.008356295789821394,-0.4213945521390374,-0.2558689879973246,-0.732863769088338,0.579057517290477,-0.46675246847818674,-0.44728914617067655,-0.7023934005290544,0.9869751179665059,-0.3365226804264164,-0.4029450727435181,-0.25649483187469896,0.2084285868219982,undefined,1495768482981
903d185fccf839df,0.41156510720446765,-0.2417401601057829,2.5937490387524025,2.5677009190982254,-0.25091048683984774,-1.628989460215795,1.829555276976381,-0.6326198756922539,-0.28721226054326876,-0.11235628639507879,0.2308445399635832,0.08809369243451382,-0.5780623328877006,-0.28179229439268444,-0.8128638628914422,0.46994472544905985,-0.47257803937641624,-0.462825706159948,-0.7219091934504838,0.846431354306462,-0.37479922692414797,-0.40933773475318913,-0.2987718527634961,0.049922372403362274,undefined,1495768484488
903d185fccf839df,0.652731490104828,-0.16190603267729717,2.8310893147775618,2.749459146757075,0.14824655546930823,-1.6449447501003225,1.8205718536792614,-0.5670024438856366,-0.45227827852238,0.32613913183851945,0.24967978605357452,0.0872752496239849,-0.8348234180035651,-0.3364164986528357,-0.8728639626927055,0.13452371362489335,-0.5769707287593031,-0.49745514711534417,-0.7742342229270681,0.6085931370926018,-0.45615652287186254,-0.4008692273099814,-0.28985716982107035,-0.15577540744994478,undefined,1495768485951
903d185fccf839df,0.46284753022763103,-0.20710624598862867,2.8310893147775618,2.7798698835434914,0.47219458413799076,-1.6717193555678505,1.812356342028402,-0.510078318937101,-0.24839438919063572,1.6140994562461664,0.1538289103651163,-0.14060362756387504,-0.7913045900178254,-0.39752156836415053,-0.8665481747256908,-0.006918718945093771,-0.6151402112876887,-0.5361810977247428,-0.8197904576887247,0.26329839231253066,-0.5580834467863988,-0.4700460095026739,-0.5148819601991812,-0.5446587847345261,undefined,1495768487471
903d185fccf839df,1.0227974547933507,-0.20299711177378663,2.510169749510782,2.448300582933924,0.9633983258095071,-1.6903392937494681,1.797129771200897,-0.13465852988165944,-0.16885824254051707,0.7373143962278418,-0.04035166124130382,-0.133897730284418,0.20092468805704103,-0.37252404808728734,-0.8433902536102905,-0.0028775421187440704,-0.5615095678148248,-0.3999214818720305,-0.6954081518656906,0.5906077529324998,-0.39924798238613607,0.0365962240704169,0.410935581595103,0.37201735886923926,undefined,1495768488949
903d185fccf839df,1.1988212816883903,-0.2904624634058427,2.1114126111007043,2.1428251594602936,0.8982795778089498,-1.7112698370340573,1.7427374950956203,-0.5571881453876868,-0.11122620588383998,0.9290615807179982,-0.14289577292899258,-0.17986757943320458,0.07036820409982177,-0.3882632280005262,-0.8349691539060456,0.10017345621842708,-0.542430614991565,-0.3743997191566575,-0.6599133293890992,0.6482133360681384,-0.36234387427038234,0.05070024253712627,0.35766243871875997,0.3285318547903843,undefined,1495768490453
903d185fccf839df,1.1572410207635566,-0.2364569666667057,2.2702774302395134,2.1290816250956284,1.0766747066359899,-1.7098466692185705,1.7512159887950676,-0.4181559340161762,-0.15724191950045144,1.3920918289820254,-0.09479140371732102,-0.1397271883292787,-0.8609347147950089,-0.42992572725989936,-0.780232292955572,0.13452377015433645,-0.599263200143101,-0.37544465302525415,-0.6484525523534158,0.7283006530555558,-0.34772532109011467,0.06500826094236334,0.307943595630015,0.376878894482608,undefined,1495768491948
903d185fccf839df,1.0560619119721677,-0.28400529842650746,2.0456971163079536,1.9181400920025773,0.8881584492103897,-1.7365327627649694,1.7250757194518878,-0.734500995252429,-0.18832411921850228,0.2619614400411629,-0.24185098079691172,0.0017889121686030314,-0.8826941287878788,-0.4317773901523144,-0.6823374064543501,0.2678839338657888,-0.5371166383228483,-0.4013337269998991,-0.6092354275242154,0.7988409326815922,-0.33477590803509627,0.043060841989317686,0.3443179381919529,0.3442996218701351,undefined,1495768493506
903d185fccf839df,0.4988840140028795,-0.225303652474407,2.22497853555259,2.20661458216722,0.30504170887253185,-1.7225736305580783,1.8807155251485972,-0.10817183892031006,-0.5942400495901558,0.30542520625186936,-0.05133904465649889,0.01770791739004229,-0.9653799019607844,-0.41974161372855295,-0.6539163421971995,0.2274717981609118,-0.5091886647130718,-0.3869262793033325,-0.6076261600989035,0.832702114164127,-0.3215907109262039,0.03528729330363806,0.32021343159781496,0.3693371235686881,undefined,1495768494974
903d185fccf839df,0.33533430679178183,-0.17892949685080975,2.04505948670185,2.080991054438813,-0.08607191346726911,-1.6682348086657175,1.9137853374865224,0.004246551488831904,-0.5450087293936634,-0.41956519857205593,0.0333573230847843,-0.02119939369566929,-0.9305648395721926,-0.49751164947160326,-0.6623374050902754,0.11633830484743356,-0.6567537017752216,-0.45972979928711055,-0.6065346588194369,0.7992104928010019,-0.3641258513683643,0.06882560934849523,0.38093315484743817,0.37153259933589183,undefined,1495768496459
903d185fccf839df,0.04842927801784322,-0.08265897870291754,1.863863907954157,1.8579376235871734,-0.3214600899905695,-1.6403328527957581,1.9808190911499255,0.4074305605873142,-0.5235277467476188,-0.7141097934419417,-0.05760435060132006,-0.005626419311198546,-0.9349167223707665,-0.5465808262021857,-0.7739164829018559,-0.05339270468365991,-0.6886522383333394,-0.5753503512854891,-0.7927058028340438,0.3270171623155753,-0.5628070944020365,-0.43630508926517636,-0.5705557007320591,-0.45251609118830105,undefined,1495768497949
903d185fccf839df,0.1939607433413167,-0.2041711417700294,1.8830044864369297,1.8571776424646016,-0.22926938880113182,-1.6391402832077706,1.9406067370567057,0.165994299870523,-0.4423193471353848,-0.5552616415330415,-0.10550991613009567,0.014246894845229277,-0.9131573083778967,-0.5410258116233915,-0.7960217371052903,-0.059454498187906005,-0.7237037755800844,-0.5879909077569666,-0.8066644408878042,0.25806292087425536,-0.590043016323831,-0.44471884855867716,-0.5723875734164394,-0.4461173334506283,undefined,1495768499463
903d185fccf839df,0.14129216899829863,-0.2887013891834862,1.4925413615082346,1.488002496857628,-0.25706133780192864,-1.6904021798310385,1.8696913851007866,-0.43539814192819887,-0.45950578727187646,-0.09217338384845254,-0.13143992076108085,0.05421836331758838,-0.7608414104278075,-0.5539875295749441,-0.8581270971081473,-0.16452619799713813,-0.7651088340522711,-0.6120434288126179,-0.8548094957655874,0.22715823718834785,-0.62170005299574,-0.45050305581653316,-0.5956100024256988,-0.44256199305801014,undefined,1495768500951
903d185fccf839df,0.13159017942701756,-0.41784477645416845,1.4032201020313415,1.472558650243596,-0.36940171989983306,-1.7416850408771,1.8624751970638895,-0.6440764430175355,-0.5568262903907103,-0.07967687608955304,-0.11659781618772887,0.07989810813059592,-0.8000083556149733,-0.5632458440370194,-0.9433903487774694,-0.09582551359587635,-0.7915543612907212,-0.6015370759051512,-0.8956638743949837,0.21902785939278888,-0.6296943174048061,-0.4594322720359525,-0.5535780585595733,-0.4803986292462574,undefined,1495768502469
903d185fccf839df,-0.2315457532758361,-0.4595228705487793,1.1167528664500945,1.091050778612295,-0.585483643492035,-1.7480904489010785,1.875248163485797,-0.724596866477221,-0.5165906574943028,0.1303363316412829,-0.039444884962528175,0.08007226466257722,-0.7956564728163993,-0.5243607808377833,-0.9581272290864952,0.06380252560462134,-0.7584167911152746,-0.5873766143795592,-0.8793473109717929,0.21571719220829474,-0.6180868363438144,-0.44418059345004185,-0.5504953327015681,-0.49254632839383566,undefined,1495768503955
903d185fccf839df,-0.15115691296850298,-0.3996473699683901,1.1199427934392572,1.0502903158559829,-0.6061373254018674,-1.763808155471177,1.9214407116057834,-0.4472590723934793,-0.5917337226252053,0.1101243949208585,-0.06946200832599898,-0.09573399539169715,-0.7042669340463459,-0.5743558602438333,-0.9697061822819615,0.29819301444590535,-0.7560352832776738,-0.6200229400165047,-0.864744966109398,0.3199800689367887,-0.6074525864397172,-0.45921957053507256,-0.581463525390901,-0.46347758349005286,undefined,1495768505499
903d185fccf839df,-0.2079834236899391,-0.3990603257422764,1.1646035502461782,1.2016847426683572,-0.533438023135118,-1.764278662285171,1.8638400666328043,-0.7853143781086186,-0.6080380223051814,-0.0858344651495913,-0.01688022229148351,-0.1264126802933179,-0.40398702094474154,-0.6317575264656707,-0.9644430244157436,0.1931213711661163,-0.7028621113835859,-0.6396740639152521,-0.8754710774402606,0.32516934894279487,-0.6131926378740995,-0.4395014101915577,-0.5742580791700365,-0.47453052086453457,undefined,1495768506973
903d185fccf839df,-0.16085900605601325,-0.24937138430935327,1.2130926260592134,1.2931888583066133,-0.5508928482946921,-1.7599695693289397,1.8817911192171959,-0.5859020357378072,-0.6493618598316345,-0.5612218307329385,-0.23750940977805318,-0.026350722152400863,-0.5345435049019608,-0.6243508554698487,-0.9644429949668084,0.2153480415640904,-0.7016527575014552,-0.6632959427190542,-0.8951601028373871,0.2984838428093703,-0.6333001247964594,-0.4714237668563566,-0.567855334556175,-0.5003577207289903,undefined,1495768508455
903d185fccf839df,-0.16085900605601325,-0.2258906674725284,1.3802517128163536,1.3913188301192536,-0.5439191461067158,-1.7133312120144724,1.8223759077592578,-0.8908579287234167,-0.6635058430421635,-0.4638621303314685,-0.12612464130389667,-0.01403404744153352,-0.6520443404634582,-0.6345350531812297,-0.9454956163412968,0.23959544169884703,-0.6930095020350873,-0.70554934290693,-0.8674387381501092,0.29566592425021776,-0.6460057159263725,-0.4405217918050112,-0.6063426418312794,-0.5004370623304836,undefined,1495768509948
903d185fccf839df,-0.3147066546850104,-0.18479967606001596,1.599089548238742,1.5686263411026748,-0.6381155555479592,-1.6822940981539933,1.8589907043319935,-0.6004142541683446,-0.7032126648642177,-0.45921938514112504,-0.29773499067260645,0.04197929571679737,-0.6999150512477719,-0.6400900353830876,-0.9360219454341254,0.07996731770418475,-0.7270367062787354,-0.7184748801607439,-0.8942785055722509,0.3505613828451087,-0.6500160817669602,-0.4328938671600103,-0.6184416732689231,-0.49362399202921914,undefined,1495768511455
903d185fccf839df,-0.32025070787787346,-0.19419191602995817,1.7203113482920072,1.7204997374584463,-0.6139647368931118,-1.6625072118440878,1.7951521561155501,-0.9787404227401927,-0.6669679253296571,-0.3573788904737428,-0.19268040776884454,0.03914624176869902,-0.9436204879679144,-0.6530516950561548,-0.9560219541604339,-0.05339278947782452,-0.748337968139675,-0.7163596763800717,-0.9084610419043865,0.29252463926559275,-0.6608384149796384,-0.4282951525970502,-0.6181090783214078,-0.5175034015966283,undefined,1495768512987
903d185fccf839df,-0.30361841027764547,-0.10203047364092332,1.9123529837671922,1.9831408146718101,-0.7072045771279389,-1.6866334716382,1.8561478784076177,-0.65434996222216,-0.5898515142382116,-0.43796879841612435,-0.2884281602008353,0.10537203219063065,-0.5867660984848485,-0.6808267290978023,-0.9560219467982002,-0.002877513854022534,-0.7981826873492123,-0.7278856346203749,-0.916647309957222,0.2591254072019899,-0.6799477822752311,-0.4318909932263497,-0.6066249689773565,-0.49945225463366283,undefined,1495768514471
903d185fccf839df,-0.31054861479036316,-0.15251382193534732,1.7037230671922936,1.7595254946850056,-0.766553048523768,-1.6767225571212745,1.8821987329926908,-0.5369493916128171,-0.5917204036624708,-0.5417018179797067,-0.17305358717656333,0.11402728448177528,-0.1124108734402852,-0.6826783790394428,-0.9170745447219124,0.025410950048197663,-0.8358809758502648,-0.6982791230503742,-0.893998632262444,0.27546315975907243,-0.6573090194388989,-0.4138899322348631,-0.6114950236526209,-0.5144949178958803,undefined,1495768515946
903d185fccf839df,-0.11650654600769944,-0.16484113689589644,1.5901571427404082,1.6403950337618538,-0.713509710770874,-1.6606018932904445,1.9269028086859281,-0.1933922807913932,-0.6770121935558508,-0.2048023107819209,-0.20997786969303775,0.21110609212255693,-0.8913978943850268,-0.7048984244038452,-0.9433903782264046,-0.004898130531918921,-0.838268560294254,-0.6848279514381169,-0.9042209733753467,0.23539640332121697,-0.6695257351692983,-0.4244365795883482,-0.5976055595523756,-0.49501540133583766,undefined,1495768517444
903d185fccf839df,-0.33272475855099576,-0.1624929892194339,1.4631931183149214,1.6070928678380534,-0.7957850004473405,-1.6533439828257046,1.9833121458809837,0.14784192145760922,-0.800866143098834,-0.20078971237059115,-0.20599999912573014,0.046553696295454534,-0.8391753008021391,-0.6539775524039113,-0.9591798739117595,-0.06955752504794487,-0.8240376479765806,-0.6856639002028526,-0.9061590895905772,0.13467517207438845,-0.6864889775277261,-0.4056684415661785,-0.6096811335509169,-0.5115970419630342,undefined,1495768518938
903d185fccf839df,-0.3396548250420745,-0.28576625573689457,1.5186996777123851,1.6070928678380534,-0.7481313663121794,-1.7008954033931565,1.9722932609881334,0.01759879288819498,-0.8576437400921001,-0.07309191590709081,-0.1291372812600042,0.03589331075808186,-0.9610280191622104,-0.6660133612046092,-0.9728640799465857,-0.08168119685060164,-0.8317934433854425,-0.6761834836728234,-0.9105181024425429,0.17133887015696658,-0.6789726431721047,-0.4174158202842345,-0.5789312650692056,-0.5164712924131414,undefined,1495768520446
903d185fccf839df,-0.40063951367979683,-0.26287267081016047,1.5818631292590262,1.6163159059460035,-0.8041575649965188,-1.6884479473530334,1.9820288023144856,0.09029551059286227,-0.9437326818141564,-0.16636737393305062,-0.022090691008975125,0.0005967514996698837,-1.035010026737968,-0.6493483886974865,-0.9539167086833079,-0.14229947106972096,-0.898814969919974,-0.6896283226071633,-0.9048786725884392,0.14727110411119906,-0.6934536177257715,-0.40869480637903166,-0.5412630348184857,-0.5300183523463166,undefined,1495768521965
903d185fccf839df,-0.3937094816941278,-0.2787221049874303,1.4836092101468503,1.5584295272770412,-0.7933575847945668,-1.664913314513246,1.949093114405174,-0.10626170492606811,-0.8541659634959544,-0.011186998799891289,-0.08555906745812027,0.005973362354129536,-0.9349167223707665,-0.5799108424456911,-0.95812719963756,-0.17260863644400215,-0.8993686887020668,-0.679945252222731,-0.9176198665406219,0.11548870960027013,-0.6925619858855795,-0.4240698958882362,-0.5814857577721002,-0.5307696954046233,undefined,1495768523446
903d185fccf839df,0.13159004140537864,-0.268742879247359,1.516786026483227,1.5443901577220873,-0.5603351282266241,-1.6436310568619554,1.8867272723649602,-0.41035240479360197,-0.6260407721908798,0.073817167742305,-0.17369309871140562,-0.06921387588544178,-0.8826941287878788,-0.5919466836233254,-0.9233903326889271,-0.1443200594828958,-0.94462559260176,-0.655797738501282,-0.9091187418759946,0.02978096403672644,-0.6879020372063128,-0.43180686308793,-0.614577755876498,-0.5410661886851457,undefined,1495768524951
903d185fccf839df,-0.06383800617009112,-0.214150396738093,1.5033876723726758,1.4597058537991179,-0.45295245037681225,-1.6278015465557047,1.8758188276948426,-0.403936502397764,-0.6231670280246074,-0.11550921180692458,-0.2440414002703609,-0.021858954911621806,-0.8000083556149733,-0.5910208521771179,-0.9107587346681963,-0.21302080041360066,-0.9723236575975748,-0.6407443317953713,-0.8916407079634995,0.07000170370397461,-0.6737072699040773,-0.44182713789074785,-0.5950313179995993,-0.5256645497847429,undefined,1495768526468
903d185fccf839df,-0.2869862852044662,-0.279309149213544,1.2979476827869396,1.43976016010256,-0.4862266761411758,-1.647206438809938,1.8317380175175335,-0.761544924463287,-0.46586524545401536,-0.02817972142463774,-0.2198200855052168,0.004495668730593222,-0.8304715352049912,-0.578985017474871,-0.9044429246144803,-0.07764004828897349,-0.9108987977633553,-0.644303445521959,-0.9048646812116474,0.20624715035894878,-0.6459621179155821,-0.45914643885193956,-0.6296678578399038,-0.5873172855962189,undefined,1495768527931
903d185fccf839df,-0.4255878220584998,-0.25465446083646104,1.5691031671654267,1.643010671942137,-0.6333018589724664,-1.7090617147857987,1.9213328713321425,-0.31139435340218763,-0.6593321814043528,-0.10856465432387533,-0.09489345279818477,-0.03124024236946107,-0.7869527072192514,-0.562319967263101,-0.9012850416743237,0.03147268702300068,-0.9043612883572716,-0.6042285792823691,-0.9070756743723536,0.12292616036630372,-0.6373992390083674,-0.4600136143430885,-0.6857701880075292,-0.6046546087949196,undefined,1495768529458
903d185fccf839df,-0.4214297131530331,-0.27696105999306614,1.4651072778179786,1.626392127880309,-0.6455624018242326,-1.7049436201965495,1.878461768129306,-0.6188184378683713,-0.5660255454231246,-0.08797824684064039,-0.13461907101215248,0.07172756436008419,-0.7869527072192514,-0.5873175134415132,-0.9065481995405416,0.14664747022171476,-0.9085884650615589,-0.6079080193097839,-0.9027096646483406,0.20540023758257853,-0.62392136977007,-0.4629838913725727,-0.6858641664555423,-0.5851617210644943,undefined,1495768530934
903d185fccf839df,-0.36460316792618724,-0.27696105999306614,1.4325680910877052,1.5237490121283226,-0.531401449015911,-1.7020460473452486,1.939773067884533,-0.16442749329605916,-0.5833819500774173,-0.18666616955706017,-0.1359612361730513,0.09471532135535563,-0.6868594028520499,-0.5863916755199183,-0.8876008282772636,0.37497622208819575,-0.9176145694355857,-0.6017777298522151,-0.8829996470568705,0.3209809678234858,-0.5907553018435929,-0.4586649430374641,-0.6620375313184692,-0.6110019432699588,undefined,1495768532436
903d185fccf839df,-0.36183114132975575,-0.23704401089281943,1.473401037162411,1.602305092907944,-0.4765478216364367,-1.714078897021934,1.9192974034512806,-0.244107189940153,-0.5327911616894602,-0.5411544328392295,-0.20371692627922655,0.055113312249929054,-0.6650999888591801,-0.6132408716399712,-0.9191797975612723,0.4901507791691376,-0.8624710636077016,-0.6071923958603487,-0.9113017469490395,0.3814660612268662,-0.5850163980236851,-0.4503420942182195,-0.677699409265649,-0.6313459915929331,undefined,1495768533940
903d185fccf839df,-0.07908408343964493,-0.32744443751548247,1.7209494861720092,1.6911855630602706,-0.5598413954697509,-1.744188971396795,1.917401314630231,-0.32904876351342327,-0.42407554910833145,-0.5953841922248091,-0.16924937647410465,0.0032232678042005795,-0.8043602384135473,-0.6206475491111805,-0.8876008135527961,0.25171905697206076,-0.886589586587745,-0.592468302015269,-0.8846578909104387,0.28588791219956455,-0.5957718458990279,-0.45187999480727364,-0.6668641601180517,-0.5961334318847866,undefined,1495768535430
903d185fccf839df,0.11218588973576783,-0.43897740407051544,2.1784036192426117,2.2161801376816204,-0.5157260393793706,-1.7759784291064988,1.966268373396507,-0.03719072025373909,-0.4301281844297356,-0.8069232366002786,-0.11776367288011419,-0.02164605147678958,-0.8391753008021391,-0.6243508489944615,-0.9223376952258965,0.23959544169884703,-0.862077253546612,-0.6005174716187445,-0.8898915045347512,0.3463114123865767,-0.5908376906163267,-0.47270649358680855,-0.6102668383441238,-0.6010414376457888,undefined,1495768536942
903d185fccf839df,0.01516482083902623,-0.45717486901227844,2.3423727790105895,2.310199975238754,-0.6446675447635164,-1.7621171268630593,1.9838223384900298,0.028607970042220255,-0.3997200844040222,-0.7011549454248359,-0.07827171400583406,-0.04042039476211677,-0.8174158868092692,-0.637312541044465,-0.9086534744666027,0.11835894979005149,-0.7889802224893947,-0.602069043340152,-0.8911649242733499,0.3252001405833868,-0.6043615239117577,-0.472086545077106,-0.5389762286359091,-0.5895483527731799,undefined,1495768538479
903d185fccf839df,-0.08185611003607643,-0.3450548290031394,2.316852092412542,2.337652791833345,-0.6200950178034653,-1.7121223361713507,2.028452771829871,0.438454517743727,-0.49333576697413667,-0.6895391199783178,-0.2218023357848085,-0.010449640611292865,-0.9610280191622104,-0.5799108489210785,-0.910758749392664,-0.023083652368264866,-0.8563354077396647,-0.6072430566912648,-0.8939566526572985,0.305397741206854,-0.6165114506568339,-0.47312163025548015,-0.5323221453143279,-0.6054051432145371,undefined,1495768539944
903d185fccf839df,-0.29946043939381767,-0.41373570069531107,2.172023511127337,2.146333290632469,-0.7102285832201563,-1.7205961081931305,1.9550101881730846,-0.12392831618132943,-0.48825975619987816,-0.3822400981267179,-0.1375405938973173,-0.07053179849208153,-0.8913978943850268,-0.6021308683839318,-0.9265482377157852,-0.12209350214380785,-0.8898375214683505,-0.598205947481013,-0.8962166226561042,0.2746470478584386,-0.6217601107275397,-0.4702334191695624,-0.5213746072778657,-0.6102738888990287,undefined,1495768541446
903d185fccf839df,-0.3202506733724637,-0.326270349063255,1.6673568321406533,1.5986153341142813,-0.6936274671557958,-1.6922818754911535,1.878911483115101,-0.550102966959586,-0.5529581735606913,-0.3257874768323971,-0.11770617646842861,-0.012475905196192955,-0.865286597593583,-0.5863916755199183,-0.943390363501937,-0.13017582753178572,-0.9185302907069256,-0.5814869764218482,-0.9186414005187736,0.32342932178027944,-0.6118821032519516,-0.43863598725857533,-0.5468371389994109,-0.5907628817873568,undefined,1495768542937
903d185fccf839df,-0.34519891274034725,-0.3849719365593708,1.3387806288616455,1.290210903103905,-0.6309464247021439,-1.7347439072381905,1.8649156520593484,-0.7325137585093805,-0.5926821217527742,-0.14778813470197794,-0.08383165491689859,-0.10403682316814168,-0.9305648395721926,-0.6493483692713247,-0.943390363501937,-0.1847322799819374,-0.9501818845258827,-0.6363176042036309,-0.9193550753750042,0.2544134899092896,-0.6528398344674549,-0.42408750712895493,-0.5728416519014604,-0.5768403103685559,undefined,1495768544443
903d185fccf839df,-0.46439626341936036,-0.4119746264729546,1.1882100773411683,1.242780938983396,-0.5681522451085087,-1.7269432865404724,1.817597555389574,-1.0364238353093251,-0.6155072994573915,-0.0016008612944058052,-0.09369574783358728,-0.032769873667424926,-0.7695451760249554,-0.6447192185156743,-0.9233903253266933,-0.1281552673833324,-0.9447863248409726,-0.632473507491114,-0.9282830059557714,0.38485372182327504,-0.6237123011343532,-0.41719438844850565,-0.6040746842245249,-0.5912094717833172,undefined,1495768545940
903d185fccf839df,-0.25372196604728814,-0.4794814681688835,1.095698382601214,1.0821370421139538,-0.598577338972826,-1.745730929776797,1.8170242608533036,-1.064923911248953,-0.5967703854570892,-0.029868207975034027,-0.12667023611626688,0.05004798062920599,-0.669451871657754,-0.6891592444906064,-0.9181271380115403,-0.08774313167845542,-0.9411753226891071,-0.681705812469659,-0.9508687116491971,0.4123399468102733,-0.6467349182753326,-0.4117062844269717,-0.6082388743829064,-0.5861018073030841,undefined,1495768547451
903d185fccf839df,-0.09294428543262193,-0.44660851136211643,1.1601373474970114,1.2243338808600213,-0.532656306895344,-1.7366678605377859,1.8304862347351638,-0.9194177863437456,-0.6249867662139807,0.001578352575664884,-0.09140984728385197,0.04004526253701004,-0.5475991532976827,-0.6724942266557727,-0.9170745152729772,-0.07561945987579863,-0.928169652013487,-0.6706168281237657,-0.9604123617950918,0.4677127543869141,-0.6327482166690953,-0.3993395267357931,-0.5931445777762512,-0.5640098106448587,undefined,1495768548937
903d185fccf839df,-0.19273734642038529,-0.34975100744409515,1.548686567059599,1.5698027567345294,-0.5617648333512094,-1.7169834578559091,1.9032214159255352,-0.4124283368447788,-0.6874726284500446,0.2158572331256344,-0.06654700327242194,0.00017969232435842322,-0.5737104500891266,-0.7021209106390609,-0.9518114043083115,-0.06551634822159516,-0.8891476626855498,-0.6920221771000239,-0.9538003765504153,0.4119395822880023,-0.6542156432675175,-0.4186455491934363,-0.5784728032443135,-0.5442490982943067,undefined,1495768550441
903d185fccf839df,-0.10680441841477945,-0.06504844107529889,1.597175388735685,1.628632012477229,-0.5880344980620191,-1.662073970601508,1.856600202508321,-0.5729098248805851,-0.661085731816295,0.11126546497523807,-0.19854080191855095,-0.04194609824079169,-0.6825075200534759,-0.7317476075731235,-0.9223376841825458,-0.12209350214380785,-0.919943239804951,-0.7031808239924686,-0.9715163017146302,0.3888573110697025,-0.6716809740234843,-0.4185797663693893,-0.5800227644788901,-0.5093322184176273,undefined,1495768551968
903d185fccf839df,-0.2537219315418784,-0.1619059742213125,2.011244786622421,1.9397021664993752,-0.6595406573917643,-1.6370765758681451,1.7936084604348683,-0.9616615981260893,-0.6557352664796361,-0.24703382998330442,-0.11207968612606754,-0.043117176666223486,-0.8000083556149733,-0.6882334195197861,-0.9191797865179215,-0.16250555305452022,-0.8834264154056672,-0.6537648642950691,-0.964904315723672,0.3189329672690957,-0.6593060485014386,-0.39583865252824335,-0.598131210202924,-0.5158891496331115,undefined,1495768553446
903d185fccf839df,-0.2232296044757221,-0.2264777701546268,1.8881088270660986,1.7896689158413677,-0.6210618613799701,-1.6492491811505203,1.7954098779025092,-0.9443218139053587,-0.6749587935436764,-0.5270626128127642,-0.053225017028396736,0.07889867977057707,-0.8000083556149733,-0.6715684016849525,-0.9444429862404999,-0.1382583225080928,-0.9506931408067218,-0.6562727089559598,-0.9609581136123594,0.2989303872940226,-0.6575742315740256,-0.4052183528862753,-0.6147229201856845,-0.5383310542214018,undefined,1495768554939
903d185fccf839df,-0.2592659502293317,-0.3567952458775365,1.8581221918558342,1.7587767449310192,-0.6108790265892607,-1.7105524296062753,1.7638916535363414,-1.2784451549644593,-0.6777238828333929,-0.5081016585540875,-0.11500885998824872,0.036127960014881784,-0.6476924576648841,-0.6132408392630347,-0.9602324745636212,-0.04328970608834259,-0.8958952060075863,-0.6538725222945551,-0.9571728391605254,0.2822538732450608,-0.6517933153819565,-0.4258233089984999,-0.6481522298758988,-0.551778457701573,undefined,1495768556453
903d185fccf839df,-0.28560034091706993,-0.3315535717303245,1.3496266855891375,1.4781523750158991,-0.5991430496072377,-1.7109879980290676,1.839766824252393,-0.7912316535398906,-0.6672816710169642,-0.3878466692066167,-0.000049526476562827625,-0.003410849831138071,-0.8304715352049912,-0.6030566998301393,-0.9539166645099051,0.12037948167378326,-0.9121975414498711,-0.6483248640871662,-0.9750706810466272,0.40659631766598575,-0.6227865867988749,-0.4381908688404673,-0.6933347662727716,-0.5744260839061233,undefined,1495768557996
903d185fccf839df,-0.22322963898113185,-0.2834181957444091,1.4210841506171605,1.5315442786946791,-0.5691293876775148,-1.6986802972607535,1.8125588587621202,-0.9281029083177568,-0.5283634466311783,-0.20886401562035511,-0.08174399604386647,-0.0861369004022391,-0.8130640040106952,-0.609537519953592,-0.9328640330450336,0.3386051218860608,-0.8985355553820914,-0.6597621585691197,-0.9534855194676098,0.5462294184419977,-0.5887830916810908,-0.45987308035639773,-0.7187316143586839,-0.5593874713198219,undefined,1495768559446
903d185fccf839df,0.020708977548118443,-0.2499583700794823,1.5461342696765399,1.784792145371969,-0.3764577111610281,-1.6709553611956813,1.8390751922265849,-0.5983279455613126,-0.6555535876354338,-0.3538812497838022,-0.005979093191358356,0.018492296078776303,-0.8087121212121212,-0.6474967128542969,-0.947600891267358,0.30829606957066574,-0.9279877799558631,-0.6836816871265358,-0.9488536305632596,0.5955044458625365,-0.587262304490035,-0.48145767003625367,-0.7222678209012785,-0.5787103257499533,undefined,1495768560935
903d185fccf839df,0.037341068115888,-0.07033163451437606,1.5748448832637496,1.7306913864631928,-0.35165889721770144,-1.6473951060716867,1.8680346152038207,-0.348445877098474,-0.6973122232546739,-0.499799397988844,0.06387372179818775,-0.025299373783413452,-0.8261196524064172,-0.6456450434864945,-0.9507587815697485,0.15877105723020693,-0.9093495508886331,-0.6949289954519305,-0.9401915784410166,0.644717882409149,-0.5849594090347052,-0.4926106925982133,-0.6980994334253372,-0.5605816598696294,undefined,1495768562424
903d185fccf839df,-0.07354006475219166,-0.06798357452189051,1.9538238135849508,1.768413342501634,-0.4142165071218016,-1.6397132750378665,1.861815108538101,-0.4055333527381716,-0.7388209295622072,-0.2730078973743291,0.11567211438995678,-0.03226512139600441,-0.7826008244206774,-0.6567550337917594,-0.9307587433945048,0.13856506003957228,-0.8901197872773996,-0.6850116067936879,-0.9365182524187909,0.6591462245672491,-0.5889981372210777,-0.47731281715790413,-0.6318623992076285,-0.537256645966344,undefined,1495768563937
903d185fccf839df,0.04981525681064924,0.0012843413963948983,1.9448916622235666,2.019087937875611,-0.3655960143702183,-1.6337178150189422,1.8706775467343486,-0.3284799994868206,-0.7286623899867005,0.04793383329964367,0.05898864233259156,-0.04459197643980748,-0.5519510360962567,-0.6724942266557727,-0.9233903253266933,0.07188502058092841,-0.9249457968442483,-0.6895713263521435,-0.9051655430149758,0.6696787628679864,-0.5875229417550065,-0.47024720368662176,-0.6019367556727099,-0.5143194880618778,undefined,1495768565479
903d185fccf839df,0.11357186852857384,-0.15603585346809096,1.8842802539230352,2.0768474230896588,-0.3581697409023903,-1.6441318436548569,1.8776412631635175,-0.2979969025950264,-0.6465070886948803,-0.031293862757106224,0.0231970651595346,-0.09153013775002251,-0.7913045900178254,-0.6336092152596349,-0.9212850798495673,0.023390220311415133,-0.9024335920379855,-0.6414029579101367,-0.9080412326033773,0.649121840512711,-0.5757920211737593,-0.45092048228965165,-0.5269228798936524,-0.5384912886338038,undefined,1495768566939
903d185fccf839df,0.040113094712319504,-0.199475080241043,1.7892167700739205,1.9827511876544017,-0.4252221978336296,-1.658566141142399,1.8468199361914552,-0.5690777296202109,-0.6485194423774733,-0.12824376110018432,0.010483020235432818,-0.13733769047767855,-0.4866727941176471,-0.6465708555065403,-0.9181271748227092,0.05369932915625325,-0.9227746274220494,-0.6324481758935777,-0.9138765734189446,0.6153376520920709,-0.5816447851901182,-0.4445537348486623,-0.514078315426409,-0.5498623856382243,undefined,1495768568435
903d185fccf839df,0.051201201098045525,-0.1865606918263878,1.9206469972485742,2.217735146911507,-0.5167031853932741,-1.6937003859503512,1.9133803299452508,-0.24377710800457097,-0.7351158814063189,-0.11003473039671337,0.04087574299717817,-0.11245199260546745,-0.15592970142602494,-0.6049083432963925,-0.9233903400511609,0.11633824831799049,-0.9079580890401507,-0.6187056878589505,-0.904668771565352,0.5574086946420463,-0.5845171048070242,-0.441042200435903,-0.49539468446280976,-0.5568810063541253,undefined,1495768569930
903d185fccf839df,-0.023643620521834306,-0.10203047364092332,1.9423398731144064,2.0253672076009757,-0.5191100408328833,-1.6757838768772424,1.905469885316691,-0.29418549385388926,-0.8448648261197401,0.04693130145300107,-0.06375288895694095,-0.1527066558343311,-0.8348234180035651,-0.5808366544657368,-0.9202324350243029,0.10825589466529109,-0.921014950231178,-0.6461779965071937,-0.9159896118452004,0.5665861694069524,-0.591923718750526,-0.43279138636004943,-0.517192613877463,-0.574625996052076,undefined,1495768571458
903d185fccf839df,-0.10957644501121094,-0.08735498177591929,1.7311579132933979,1.7379379470387364,-0.5835396528353489,-1.6820308943348448,1.910274545672468,-0.31408140245266114,-0.7541890595345753,-0.26668688822885817,-0.13807851727678563,-0.036701090856775684,-0.6607481060606061,-0.6345350467058424,-0.9633903943149468,0.03955526679347237,-0.942856834803589,-0.6727256967018007,-0.9421227003288974,0.46447907975274694,-0.630524912357806,-0.42739003470570996,-0.5423235735014498,-0.568458786657021,undefined,1495768572930
903d185fccf839df,-0.08047016574868016,-0.0885291286841314,1.5754827670068023,1.6119188288393822,-0.5299614552435186,-1.6814509121092562,1.8610866514073883,-0.624054830098186,-0.6927413795407876,-0.2487072020449737,-0.11691237726119115,0.013651133027755984,-0.7173225824420678,-0.6808267290978023,-0.9444430009649676,0.06380255386934287,-0.9796556289590552,-0.7116099705155674,-0.9400726346502749,0.4153118461486781,-0.6561518522453818,-0.4011212944407907,-0.5715159157559373,-0.5627622384758377,undefined,1495768574444
903d185fccf839df,-0.00008129093593731222,-0.12433704356953604,1.7579541132406011,1.9617521166647227,-0.5512631353565898,-1.71380171446401,1.8346570985765385,-0.8104951131304775,-0.5257262633796177,-0.24272789999668135,-0.17416474002117804,0.004949449682555288,-0.5214878565062389,-0.6391641909861056,-0.9623377421274486,0.11835894979005149,-0.9479816828694759,-0.6960182615706586,-0.9371899483733381,0.44175097769345467,-0.6436737844338957,-0.42558153999483983,-0.5623546059971136,-0.5655710999618462,undefined,1495768575937
903d185fccf839df,0.17871456255553367,-0.046850976133535886,2.459128630451637,2.4388189848769346,-0.3113492447024268,-1.6529084153375053,1.7772931359152877,-0.8838829940765591,-0.6595892254188893,0.1376524478592567,-0.01076260630406297,0.060753724972908985,-0.5563029188948306,-0.6373125475198522,-0.9297061427426432,0.09007042935838822,-0.9139593194570371,-0.6726180344169354,-0.9300811874888507,0.5387765838505862,-0.6117254385915909,-0.43066121246618994,-0.5588922605817856,-0.5665401776328531,undefined,1495768577440
903d185fccf839df,0.1870307458610574,-0.06387446953504079,2.4916673089080112,2.5004434723183753,-0.38030455817645753,-1.6296206823794157,1.7717074262877321,-0.8622680690851541,-0.6979251835905215,-0.2061718078076672,-0.0258146889437866,0.004914078487655558,-0.7390819964349377,-0.6021308554331573,-0.9244429701519578,0.18503890445453075,-0.8895349940814927,-0.6581472575438182,-0.94417276415405,0.551403308241491,-0.6072198559527622,-0.44044599350942226,-0.5422440504919014,-0.5652770047996818,undefined,1495768578953
903d185fccf839df,0.23554124580401845,-0.03628464771136623,2.1707477436412317,2.1630732458828534,-0.4353227487604773,-1.6062980113789547,1.8025419035865147,-0.6902657468081523,-0.8016324548756307,-0.13150837629621953,0.03548734621520882,-0.0285273978408978,-0.8957497771836007,-0.5771333286809067,-0.9223376952258965,0.1304824802691006,-0.8995190092540458,-0.6574886309861194,-0.9352448339953603,0.5951656878035462,-0.5929043542136171,-0.4605741172493241,-0.5412711485734362,-0.5710553875615217,undefined,1495768580474
903d185fccf839df,0.012392897758823927,-0.1307942085488713,1.7088274078214625,1.8517801573921802,-0.6229338673433423,-1.644360109613751,1.8023262602262569,-0.9255543193089942,-0.612096035427326,-0.5099787839130069,0.00896770674906139,0.05113366460624935,-0.8087121212121212,-0.5595425182521893,-0.8907587259418879,0.15472982387441417,-0.8305934439819349,-0.6529035785013279,-0.9310817316644298,0.6030034944221235,-0.582370485233369,-0.4647072385621365,-0.573230751931587,-0.5594988638203436,undefined,1495768581936
903d185fccf839df,0.00407671445330021,-0.27989613498367305,1.8102709997858515,1.7425001699849587,-0.45408386898494285,-1.691259339306894,1.8170794772983438,-0.8743710396409996,-0.7196441937053608,-0.5812712336131968,-0.05934289792021954,0.059849739350077875,-0.6868594028520499,-0.6428675556232593,-0.9086534671043689,0.15877100070076386,-0.8271861145279343,-0.6911482270300976,-0.939869726590433,0.6313212345343219,-0.5907715937495971,-0.49346697113067894,-0.5768053247728824,-0.5761560156786334,undefined,1495768583436
903d185fccf839df,0.15931041088592288,-0.3051377799028927,1.726691710544231,1.7773793161415463,-0.39431368611708517,-1.7112535293817899,1.8042854695680426,-0.9230612553396842,-0.49436428963166,-0.9276398486855182,-0.13313799138454607,-0.01251180020680806,-0.8043602384135473,-0.6141666901354041,-0.9149692624336174,0.1729153457107601,-0.8195202312315157,-0.6882604053499235,-0.9358675504937058,0.656975042372705,-0.5811521469701664,-0.4766036165999189,-0.5987728199291235,-0.5728097090982457,undefined,1495768584946
903d185fccf839df,0.5460085006476249,-0.3209872725361472,1.9474437054696765,1.9725842020752855,-0.12126957631088234,-1.7192195286756733,1.8378970206338379,-0.5264707767559365,-0.6629695631139427,-0.5502423765029758,-0.3680488642644725,-0.056611921160189475,-0.8087121212121212,-0.6224992120035955,-0.8781271205589234,0.15877100070076386,-0.8193254387734327,-0.6940233859289866,-0.9276952755304393,0.651939751963764,-0.581277024491463,-0.47184352329070206,-0.5958604617952598,-0.5700481033810656,undefined,1495768586456
903d185fccf839df,0.5085861761012093,-0.1777554083985823,1.8842805080599847,1.6807505896097226,-0.25920076858744107,-1.731974442891796,1.8593825332634564,-0.47460133382436615,-0.6781041135426392,0.1304707018062797,-0.4335833287342925,-0.005579990748576701,-1.030658143939394,-0.6613841974981843,-0.8886534510158267,0.2254510966888508,-0.8039290323609939,-0.6916675304436002,-0.9317604227109594,0.6896043510870088,-0.5775931968400905,-0.46168242810878546,-0.6070238876885495,-0.5629523011170964,undefined,1495768587934
903d185fccf839df,0.5598687026406018,-0.16425403421379806,2.0106069028793683,1.6996585131756392,-0.29631155955720817,-1.7383402510788146,1.8181392849516278,-0.7536818722680245,-0.8160407934032105,0.47971294897870737,-0.5273677126409868,-0.014895638749864059,-1.0045468471479502,-0.6549033773747316,-0.8949692684317765,0.24161597358257883,-0.8111594848913629,-0.660724767702303,-0.9398487361027494,0.6948090238708289,-0.5704723740649905,-0.4689186550165998,-0.6053185632519167,-0.5390460274994797,undefined,1495768589430
903d185fccf839df,-0.29530243400458017,-0.17482033340797537,1.9633941028263373,1.8488910729710644,-0.644688115749487,-1.734361910463907,1.8862065519000049,-0.540363304015665,-0.7815050264418146,0.5681090450723307,-0.2332167257458534,0.03195264871981648,-0.8130640040106952,-0.6215733740820008,-0.9160218925344142,0.3163785362822513,-0.8089346777507611,-0.620117933617999,-0.9417588650622392,0.585818826840465,-0.572849407106393,-0.4452784569553268,-0.6633132153787407,-0.5391512322383614,undefined,1495768590937
903d185fccf839df,-0.06383793715927165,-0.2834182249724014,2.2702774302395134,2.1523467736135453,-0.4621992777126703,-1.7125998274996488,1.8487265499877297,-0.6555213128888968,-0.6861289898690536,0.6327297550699285,-0.26573297449064354,0.08365266060229827,-0.5606548016934046,-0.6197216852880366,-0.890758689130719,0.22545104015940773,-0.7920243894205908,-0.6089972841218588,-0.9267577019615224,0.5866811430298736,-0.5723140600064862,-0.4181162444228856,-0.6121915518819798,-0.5024918682190279,undefined,1495768592466
903d185fccf839df,-0.05552189187538687,-0.2957455107049582,2.115240675969869,2.138132160929596,-0.434006183044466,-1.7098583158527363,1.9475520301963238,-0.03899045326914198,-0.6458096117556312,0.3999835329955757,-0.040208147580398895,0.03656052733864393,-0.8261196524064172,-0.6567550337917594,-0.9244429554274901,0.14462682527909684,-0.8314037854318383,-0.6470266118458308,-0.9504559007678517,0.4835423564403196,-0.6128211424595111,-0.43064040958718397,-0.6622137279102785,-0.5270294195143908,undefined,1495768593947
903d185fccf839df,-0.12205059920056245,-0.3039637791346423,1.8096328619058495,1.9699769399047742,-0.4519752924037938,-1.6830161621294129,1.9220560714747328,-0.18079483693693404,-0.6632952978165795,0.30561011631562446,-0.1525461303505093,-0.010267534109761271,-0.9044535427807487,-0.63546087815205,-0.9065482363517104,0.04965818059462509,-0.8128162519498514,-0.6342847293717747,-0.9342932680403364,0.43474468164981683,-0.6134246249339801,-0.42739409303661513,-0.6228991979768916,-0.5118915387393231,undefined,1495768595466
903d185fccf839df,-0.12620857008439024,-0.2417401016497982,1.680754932114255,1.749909225546724,-0.5969933376478649,-1.7185580251672703,1.955096963569091,-0.09166761065388776,-0.7131019717756117,0.001271438460530633,-0.06302451306696726,-0.0405063300691148,-0.7434338792335116,-0.6410158538785206,-0.9433903487774694,0.03147277181716529,-0.8667388580575406,-0.659717832320734,-0.9377356986185208,0.4912569763299899,-0.6134390044687805,-0.4218050561058765,-0.635129139433147,-0.5341914695542412,undefined,1495768596916
903d185fccf839df,-0.2939164207063644,-0.3121819891083417,1.5793110860129165,1.777426842640456,-0.7172639980299569,-1.7609129110767174,1.9273183302034456,-0.4082580113204935,-0.6872612931443866,-0.07940715793338818,-0.054852522871114,0.0670619830282733,-0.7434338792335116,-0.6928625702754365,-0.9644429802423409,0.055720030628314245,-0.858716794935092,-0.7059673207773974,-0.957704596805504,0.48562114322345334,-0.647206745392391,-0.4334557667433674,-0.5721354359640901,-0.5002540020681426,undefined,1495768598431
903d185fccf839df,-0.11512053270948369,-0.25113242930371743,1.6258857481859452,1.8106146046720022,-0.5900093552142699,-1.7348673569384823,1.950965542327703,-0.13162916542818495,-0.753926363061356,0.1649065818062696,-0.012917539634044734,0.022120030591705288,-0.517135973707665,-0.6900850694614267,-0.9844430625909872,0.027431594990815586,-0.8837035970157178,-0.7162900187334698,-0.9754764970623213,0.4167592935721827,-0.6695390350431393,-0.45471082940008245,-0.6012203068314487,-0.5308500979145008,undefined,1495768599928
903d185fccf839df,0.23969921668784624,-0.23821801166106987,1.8396197512530634,1.9331378092118334,-0.3481206154259447,-1.7069886908666727,1.9073817513872398,-0.24067206451930107,-0.7586319235480479,-0.05372324893990235,-0.06253033633870311,0.05474216896942898,-0.8261196524064172,-0.6280542006808406,-1.0065483167944218,0.18099775589290257,-0.8658649533819017,-0.6701545226262828,-0.9656529737534292,0.5282132422643595,-0.626112343409411,-0.43561196795004997,-0.6298399102026755,-0.5292895957605043,undefined,1495768601416
903d185fccf839df,0.21475104633078218,-0.24643625086276164,2.0131589461254777,2.152691739885021,-0.20302028869463065,-1.6919627683392948,1.915471039935437,-0.1320365006658519,-0.7856771857237373,0.5070536983996852,-0.13344562738221855,-0.010720141327366227,-0.8957497771836007,-0.63916420393688,-0.9044429393389479,0.3163785362822513,-0.8485421561349095,-0.6415612799905617,-0.9333696893716388,0.6684468811473194,-0.5662434267137545,-0.37595853069935736,-0.6984740485455809,-0.6220274869939314,undefined,1495768602911
903d185fccf839df,0.0733774483749073,-0.20593218676439357,1.9193712297624688,2.0750431050668623,-0.3316326435754101,-1.6880682821546777,1.8670221267287728,-0.47816224442802374,-0.9509263738494819,0.46524308460598446,-0.21959024609915745,-0.07932746901662152,-0.6999150512477719,-0.6808267420485768,-0.9318114103064706,0.25980138236003864,-0.7679813236058586,-0.6792992912755538,-0.9639737398770741,0.7395876970359677,-0.5744885821742105,-0.39454546556775777,-0.648061744862436,-0.5939940755582168,undefined,1495768604419
903d185fccf839df,-0.12066455139693696,-0.34035873824616064,1.671184388735919,1.8476974835357975,-0.40546337242236674,-1.713175152304165,1.9022404798544417,-0.33306939380162126,-0.8269958199479597,0.874580934681689,-0.15361919651952885,0.014204630861414696,-0.7738970588235294,-0.7086017501886753,-0.9139166617817558,0.39720286422144835,-0.7262902750774708,-0.6953469700280817,-0.9473213293482909,0.6751606075352163,-0.5933565191745653,-0.38870556440723525,-0.5800332958478958,-0.518088686235228,undefined,1495768605920
903d185fccf839df,-0.09571624301823396,-0.29104944917597175,1.8064431890536363,1.9474544310974726,-0.32775493098265496,-1.713675939806506,1.9844929229223127,0.25848044312371143,-0.8206536933722899,0.6756622027362421,-0.18952435271061266,-0.09652597923333578,-0.6520443404634582,-0.7391542526673964,-0.9591798444628243,0.5042950676496907,-0.7372733470147855,-0.696537563826998,-0.9657859129826912,0.6986278406839498,-0.5904452060771376,-0.4192127734569135,-0.5584204480030299,-0.5447070925492323,undefined,1495768607434
903d185fccf839df,-0.026415543602036608,-0.28224422420415096,1.7177598133197962,1.8543729604027928,-0.44766559005590256,-1.6792637592312925,1.8913399392600205,-0.3917610514190001,-0.7434405224326049,0.3209343357715596,-0.1290305697456711,0.05428418696112997,-0.7564895276292335,-0.7669292608074949,-0.9486535213681548,0.4881302190206842,-0.7808029100554011,-0.7331166469616206,-0.9734474211434523,0.5528045607594507,-0.6358590563576321,-0.40953802928338434,-0.5677331854821814,-0.5707945494500689,undefined,1495768608938
903d185fccf839df,0.015164889849845698,-0.3520990382085884,1.467021183184086,1.675867439492642,-0.5259397416338968,-1.6899782596733068,1.8982089874783463,-0.4198784614558942,-0.5176299769088903,0.35527709965965826,-0.15167563275867474,-0.028041291212802532,-0.6476924576648841,-0.6799009170777566,-0.9360219159851902,0.4941920690543734,-0.803527798074306,-0.6790903044331797,-0.9647783723877275,0.613874797351458,-0.6046301011041697,-0.4026371994264562,-0.5410835033864502,-0.5660825702335711,undefined,1495768610459
903d185fccf839df,0.012392794242594724,-0.30337676413652087,1.9072486431380231,2.1371377676217103,-0.33592178035874287,-1.6730516754570415,1.8018344848835115,-0.8671633671171607,-0.5268984485694683,0.9568320015677395,-0.036850401580860205,0.009289404451645392,-0.8391753008021391,-0.6697167387925375,-0.9423377260389063,0.2173686017125437,-0.815397029671059,-0.6784760089795226,-0.9751056655903755,0.5514033022642255,-0.6185086569646631,-0.41158060880062175,-0.5516266526886818,-0.5865024079067502,undefined,1495768611983
903d185fccf839df,0.1634685197913896,-0.2188465167230641,2.307919941051158,2.6154398869470654,-0.209160840138073,-1.6261384691425682,1.805734488657707,-0.6779392577368355,-0.6834297574322018,0.604722155714998,0.03896184329481687,0.006459714977385462,-0.8304715352049912,-0.5928725280203074,-0.8739165780690347,0.23555412354888966,-0.8344434001916745,-0.6609780865511953,-0.9555145956311614,0.6075152398667848,-0.5826621873097293,-0.4178287558179607,-0.5934381945437602,-0.6037315945059158,undefined,1495768613434
903d185fccf839df,0.01932289523908322,-0.10790065285012954,2.205837957069817,2.2930592646446435,-0.3658942888935494,-1.632674314631607,1.8540650677792794,-0.4646012712331845,-0.7648112760441818,0.3213978558729973,0.013622773442648718,-0.004609835227427262,-0.9131573083778967,-0.5910208521771179,-0.8749692228942991,0.2921311926769377,-0.782363088363685,-0.6415042860332582,-0.948314877092251,0.697703931197399,-0.5610919127993768,-0.41480607777763384,-0.5828558450132345,-0.5594844546128421,undefined,1495768614945
903d185fccf839df,0.10664183654290482,-0.11964086512858027,1.9978464325118699,2.253902558060476,-0.2775607262400963,-1.6699258377449824,1.8212109090149498,-0.6950669190097717,-0.7663695833175845,0.018726104363215534,-0.13903054278952415,0.015582614855069942,-0.9610280191622104,-0.63546087815205,-0.8686534165216999,0.34668758859764637,-0.7731180643816752,-0.6427582072591386,-0.957669612781706,0.6978733121183488,-0.5615561166394973,-0.4215816727420697,-0.6060070425125764,-0.5577228584184313,undefined,1495768616438
903d185fccf839df,-0.3729191787046623,-0.08618106869164585,2.216684522071208,2.446091280996971,-0.356030313027636,-1.6319126537040995,1.857302363699441,-0.39249364796388353,-0.8266460637462193,0.10893352902567366,-0.0941626064551066,0.031176734874400633,-1.0045468471479502,-0.6567550337917594,-0.8276007652871693,0.35072893501232527,-0.7649566406512994,-0.657634292245239,-0.926904636213345,0.7528303668643911,-0.5514023247107317,-0.43020066793812517,-0.6032374786039629,-0.5531202714418445,undefined,1495768617923
903d185fccf839df,-0.16917508584530777,-0.1589709869146826,2.8521440527633914,2.7200262410692124,-0.1494935176474873,-1.5653825917494342,1.8403927090965664,-0.15383763136291317,-0.6201322929671825,0.24485973129449434,-0.23728972433273043,0.0761451864882404,-0.9871393159536542,-0.6539775718300732,-0.817074398019097,0.2921311926769377,-0.7349262741721138,-0.6441514557429581,-0.849547894371701,0.772817546616993,-0.5241859237004654,-0.4131069012965224,-0.5819146362968305,-0.5049103517143889,undefined,1495768619434
903d185fccf839df,0.21613688710194925,-0.27696108922105844,3.1162807828727033,3.0075131001728814,-0.1012741719656767,-1.666574061388338,1.9059642993668349,0.17503034186309924,-0.5119416651044731,-0.34286511236682626,-0.2679276189661326,-0.024990498088132442,-0.9479723707664884,-0.5854658116967745,-0.8076006976629905,0.35072882195343913,-0.7031938356516116,-0.5674088430090358,-0.8440763877400721,0.7773600900564563,-0.48870267920488736,-0.4358318832202742,-0.5661591139066826,-0.5171972799280438,undefined,1495768620934
903d185fccf839df,0.3145440383077261,-0.29163646417409317,2.221788862700377,2.080079812789475,0.04368215251444936,-1.7589633357235053,2.0291654530204863,0.6469812050555511,-0.540932201688154,-0.6273997593911115,-0.04019832086051616,0.01735823736740693,-0.8739903631907309,-0.5595424923506401,-0.789705971224977,0.4073058062873226,-0.7513762544640616,-0.5630391133056317,-0.8141930094155772,0.9202730655686322,-0.4450493892920811,-0.4327759471076475,-0.5779713758700281,-0.5638421047642639,undefined,1495768622427
903d185fccf839df,-0.06522395045748741,-0.2235427243920122,2.2071142328298214,2.0856357855774417,-0.0779873534464733,-1.7411772661377665,1.9914014328578986,0.38586919010113935,-0.7610135086427963,-0.6831359912111531,0.017612123329606294,0.016407955294063106,-0.7434338792335116,-0.5206575068560514,-0.8139165003544727,0.27192519548630306,-0.7450241204164741,-0.5756860014307437,-0.8554881873504184,0.8911084070258934,-0.46632344074191034,-0.44870993885448984,-0.5548712777872444,-0.5644251564582511,undefined,1495768623987
903d185fccf839df,0.07614961299297773,-0.3010287041440353,1.4810571669007404,1.4848186527581437,-0.1909654449557719,-1.755415906039193,1.9560016054853673,-0.005518703371599632,-0.5276989916785378,-0.15474799061414415,0.06500516231597518,0.004573130026388837,-0.5998217468805704,-0.4669591016651713,-0.8044428073606,0.25980132583059556,-0.7140600099360147,-0.4916541708397331,-0.8430898385136487,0.8901229043633616,-0.41983128607450726,-0.3612446077236841,-0.5780472353394867,-0.5695045549200702,undefined,1495768625460
903d185fccf839df,-0.08047009673786068,-0.34505485823113174,1.4497947642043703,1.4920200271771396,-0.3515560350239563,-1.6311533239882867,1.8698465277923149,-0.44189624567611296,-0.6052275813634878,0.15272641001887585,0.06011121599923132,0.06131584923324782,-0.7521376448306596,-0.42899991523985365,-0.8076007050252243,0.5770369571420237,-0.7033836802548898,-0.47131908867501754,-0.8477007365327065,0.8521349390838904,-0.40945727919596026,-0.3667627882056683,-0.4793787090396291,-0.6361379569323691,undefined,1495768626921
903d185fccf839df,-0.007011253910786871,-0.36325232317289474,0.9865981526245969,1.1543323762697644,-0.3562668826311486,-1.5332577275459198,1.8424334266328986,-0.4643330815539148,-0.549892208025307,0.2296593358398672,0.033207201947497475,0.0422607879889791,-0.7303782308377896,-0.42251910159178824,-0.8623376395980359,0.4275118600074003,-0.6877054625830987,-0.46376388671286223,-0.8566356642485546,0.7781608091254268,-0.429196387814913,-0.32285624191628526,-0.4677681364980637,-0.5527403882112263,undefined,1495768628429
903d185fccf839df,-0.2065973758863136,-0.31218195988034936,1.450432647947423,1.5229420600532588,-0.517032328930826,-1.5396398416908872,1.8032493204563549,-0.8083863052048444,-0.49443175385292903,0.16515643129361124,0.031199319656315155,0.10603201311047394,-0.6085255124777184,-0.4401099055451185,-0.8591797419334117,0.4194294498252578,-0.6580136170540207,-0.41168809141840806,-0.8373874365175005,0.6449180624153477,-0.42336525511198614,-0.36102937652798434,-0.4186940782803862,-0.4956509029952262,undefined,1495768629940
903d185fccf839df,-0.22877376118481432,-0.34505485823113174,1.096974404224269,1.2736682311267256,-0.6839486187666499,-1.6943199595965752,1.8251214299079563,-1.0223968626795443,-0.35015154983076574,0.18884054259181368,-0.04268219363975187,-0.021340880256489243,-0.5867660984848485,-0.40400239496299045,-0.8370744214698731,0.17897719574444926,-0.6055293902796094,-0.3840131283011918,-0.8319089331606339,0.396063785127117,-0.4594656453101433,-0.370979838890167,-0.33298049155003556,-0.42425351369066244,undefined,1495768631433
903d185fccf839df,-0.3812352584939568,-0.5904273320418181,0.9004668201368665,0.7621961357144349,-0.971104709258764,-1.7697616899171769,1.8968125759806949,-0.8144392257933212,-0.319041789339682,-0.41918303696353604,-0.06217846191555619,-0.044060478654226104,-0.5824142156862745,-0.6521258700853345,-0.9360219233474241,-0.01904241901247209,-0.8143319481674433,-0.5416147650554081,-0.9362243864414924,0.06096281638855202,-0.6295038954832126,-0.4437074911279191,-0.46585755991973626,-0.45593101215497267,undefined,1495768632932
903d185fccf839df,-0.36460306440995804,-0.42019286567464637,0.7179957280400172,0.6554573050377682,-0.9195219385528293,-1.7513630288582775,1.9474284477651642,-0.43598372029094706,-0.4847468384019675,-0.38342580465105386,-0.1003992548095228,-0.06591335486363019,-0.4475058489304813,-0.6937883822954822,-0.9612851267511194,-0.3807311650020762,-0.9287761041938927,-0.6208778882877458,-0.9703478332155052,-0.2436954273451062,-0.7338264812575078,-0.4614222289726209,-0.5576949938726411,-0.46895799016055467,undefined,1495768634444
903d185fccf839df,-0.5045906145622074,-0.5945364662566601,0.6516423495042135,0.5504724367190907,-0.9687492821182988,-1.7032316297655568,1.9108136559062763,-0.6397233159264251,-0.4482024471323582,-0.3551745115184281,-0.05312174088618996,-0.046960422071585704,-0.7782489416221035,-0.7095275751594956,-1.0044430565928282,-0.5605653427168162,-0.9899569717505652,-0.6907112573823105,-0.9894631203898949,-0.42244058398378576,-0.8084147543552445,-0.4653513514849669,-0.5915328304244588,-0.48125453767491233,undefined,1495768635987
903d185fccf839df,-0.5392409125121915,-0.586905271281082,0.555302844032044,0.49578591251174103,-1.0672142596575036,-1.710161116643906,1.9023667146107839,-0.7216053090351856,-0.463706273379414,-0.25733743338076714,-0.060833824500665976,0.0293439569521875,-0.852230949197861,-0.7123050630227309,-1.0223378345664782,-0.6090599168685572,-0.9934771327225304,-0.7071959096416819,-0.9977963227251382,-0.5637675170167683,-0.8415929706780272,-0.48064167907333644,-0.6527263980871428,-0.571241582251866,undefined,1495768637494
903d185fccf839df,-0.4948885214746972,-0.5599025813674983,0.6873712090866999,0.7423969755169666,-0.9824806872225392,-1.752942253501918,1.905761791406112,-0.750823774738126,-0.45743887619354384,-0.34469071196713796,0.03840656148606319,0.03478418675836523,-0.9436204879679144,-0.6724942137049982,-0.9728640725843519,-0.36860757799358407,-0.9309914549345999,-0.6465453078827357,-0.9148421331486483,-0.4066109810284054,-0.758269419408966,-0.42086390357619063,-0.5811341982495657,-0.41246914661906386,undefined,1495768638922
903d185fccf839df,-0.48380041508897115,-0.49415681389392585,0.8896205092724253,0.8954980516750038,-1.0123297841772556,-1.7895718679460637,1.8746696020099467,-0.9470575103973548,-0.42147816449730036,-0.5099951778454278,-0.19894225321253808,-0.010464162043535494,-0.9653799019607844,-0.6187958732679909,-0.8518112870544312,-0.27565964891353406,-0.8000687271451866,-0.6162991696823282,-0.8184190829159396,-0.2701037584045532,-0.6825936055796237,-0.42517672704814297,-0.4518800992305522,-0.39524093626628537,undefined,1495768640444
903d185fccf839df,-0.23570375866507362,-0.3403587090181683,1.3030520234161085,1.2177840079243036,-0.8813722913159513,-1.7931588972892967,1.783128690489674,-1.4554729438868994,-0.48170102184908825,-0.5734398542419012,-0.2573681272964029,0.04389850148825521,-0.8783422459893049,-0.5095474906492374,-0.8297060107642954,-0.06955756744502717,-0.707290911481173,-0.5414501089682658,-0.7714914724455875,-0.10481684393405352,-0.6000729514614852,-0.4538030387607584,-0.29511677852897217,-0.45825619028133313,undefined,1495768641942
903d185fccf839df,-0.23570372415966387,-0.2663947607988888,2.3857575141944554,2.129175437152545,-0.8408672141218742,-1.8008034610755048,1.7863712376365881,-1.3343386848058498,-0.48336828328998305,-0.32567501009317884,-0.46922308909090066,-0.018775587591928322,-0.7738970588235294,-0.33641651160361025,-0.7707585631505303,0.025410978312919198,-0.5200686298433034,-0.4392743966793604,-0.7082403023161715,0.04460967073056021,-0.5071200233194868,-0.4895299080482159,-0.21896457831052535,-0.4935087157618683,undefined,1495768643470
903d185fccf839df,0.20920699313791916,-0.3303794832780971,2.147141216546242,2.155469246131373,-0.7291954009691152,-1.8002001894930144,1.731192647938758,-1.678893351692377,-0.3303999993969312,-0.09012258043163429,-0.34504743661296494,0.022174266432660853,-0.7347301136363636,-0.3428973252516756,-0.766548042747343,0.24969844029416435,-0.5323501628585059,-0.3558948614076643,-0.7067149981200597,0.2979140979450288,-0.4282465854833064,-0.5201667510037234,-0.18854233933670075,-0.5877307311881474,undefined,1495768644936
903d185fccf839df,0.1870306423448282,-0.28048320843777913,1.7049993429522978,1.7379182861272435,-0.5461408499352716,-1.7907644416457187,1.8481953506385087,-0.896308714655533,-0.18156610727888417,0.21188650200319972,-0.26888135931035717,0.030985979099710206,-0.5867660984848485,-0.39474404164859156,-0.817074434830266,0.17897711095028465,-0.5084485723638786,-0.4064634169041792,-0.7585823575648278,0.18270292881974218,-0.4911827873846823,-0.5083774108524157,-0.1619060509996712,-0.611091901078583,undefined,1495768646449
903d185fccf839df,0.1967327009269287,-0.35562121588129375,1.128874690663692,1.1842262213996364,-0.2618750447941346,-1.7811633169237584,1.8570393917332508,-0.7990859719443151,-0.059557500935901515,-0.2021465743092791,-0.2782207900248505,0.05049729546252775,-0.6999150512477719,-0.3790049005876764,-0.8654955299004264,0.2315129184578184,-0.591947633645504,-0.41095347238796365,-0.8324057092653413,0.20968100351846067,-0.5235507836590966,-0.4644172837823984,-0.1474450161174003,-0.5854065715557657,undefined,1495768647924
903d185fccf839df,0.4337413889867392,-0.32216130253238995,1.096974404224269,1.13066958712056,-0.06801022429237057,-1.708286080207455,1.8294553517774146,-0.6648556289551278,0.3216573985776262,-0.26146887863869334,-0.20914296603852536,0.025627418847616112,-0.847879066399287,-0.25401731215413503,-0.8265481278241387,0.3648731104339923,-0.46650797848480907,-0.3499608905298852,-0.8116881519536471,0.5503562128337718,-0.4263839826705575,-0.4288083577147102,0.166000167008636,-0.3781899733685499,undefined,1495768649448
903d185fccf839df,0.31731613391497704,-0.3303795125060894,1.319640304515822,1.391201042343923,-0.017394311730734736,-1.7229626161345606,1.809765982343205,-0.7760514595880705,0.34249654379296124,-0.2507673134069856,-0.33606175675520594,-0.014336499949314137,-0.847879066399287,-0.3734498989596567,-0.8170744274680322,0.4194295063547009,-0.6096581266973333,-0.4049625053216045,-0.82178455011598,0.589668444569709,-0.44576648123115287,-0.43920598108315756,0.09560622044180445,-0.35861432001564963,undefined,1495768651003
903d185fccf839df,0.47254979584219,-0.15427483770171913,1.2047983584408821,1.3830591424262333,-0.11740214269741599,-1.6382947689517326,1.7816217973921777,-0.85412707354535,0.26517509446546744,0.4792096865980884,-0.19411999283366424,0.008331192768528273,-0.7956564728163993,-0.382708239323281,-0.8160217900050015,0.22747174163146872,-0.663307785168896,-0.41985125461157313,-0.8048802555578781,0.47895362135319036,-0.4674024993384122,-0.43893185153495284,0.021980454088941087,-0.35236437044194663,undefined,1495768652445
903d185fccf839df,0.15376635769305988,-0.24702332431686772,1.5537903994148692,1.5294679291024207,-0.40697537029112696,-1.6896335289076079,1.8571524554743168,-0.6851149832502851,-0.22660995972366396,0.5592870978040987,-0.14041361613924158,0.027784360029653565,-0.8130640040106952,-0.32530650834757086,-0.798127034118053,0.14664752675115783,-0.6421929637639078,-0.3809163154766542,-0.7655092001064071,0.5599648413787122,-0.42229080249300327,-0.44928162693581036,0.07392399994062213,-0.3314258737089763,undefined,1495768653937
903d185fccf839df,0.21475101182537243,-0.2587635365953184,1.7356238619056152,1.7612323628147317,-0.5413477201146472,-1.7296475291109055,1.9108609803221213,-0.4142856932191068,-0.31197778933975195,0.1702089854990282,0.20959717855702792,0.0028122146980670143,-0.847879066399287,-0.3114190042775216,-0.7823375237082304,0.36285240896193127,-0.5963650079417215,-0.29492127365784204,-0.7233464167725864,0.7022156796441554,-0.3368712183489728,-0.4633037024250254,0.020707856289998793,-0.4000026272610131,undefined,1495768655449
903d185fccf839df,0.00962083665698269,-0.40669146226186975,2.1854218652378883,2.1284550685310517,-0.49515465530503877,-1.8433190634313552,1.9313760907598065,-0.48167298171923695,-0.4192296652590906,-0.5730946822364821,0.39258274476774707,0.017052764258902512,-0.8826941287878788,-0.2901248615885867,-0.7665480353851092,0.1931213711661163,-0.6219898728766001,-0.2875370622878462,-0.7176580090404829,0.4644174852709215,-0.379346803509308,-0.48836609016634486,-0.17966584094410323,-0.49632485646908087,undefined,1495768656951
903d185fccf839df,-0.10126039972732617,-0.41021366916256746,1.3745092343071825,1.4072755320640338,-0.7482650917806505,-1.8442391132590077,1.9452351702022863,-0.4839884652358454,-0.4304579711784582,-0.5828321306239937,0.3079611131308082,0.01580610591139724,-0.7086188168449198,-0.32252899458278644,-0.7728638307143576,0.16483285073445303,-0.5373036383256713,-0.3046043463842841,-0.7604854883309852,0.1291625290354117,-0.4508289795480132,-0.45923014366100195,-0.29186644201780804,-0.3837215455907319,undefined,1495768658424
903d185fccf839df,-0.25094997395626634,-0.4636320339916137,1.0306210256884654,0.9471426065858022,-0.9396510461347157,-1.8416303657382003,1.9520910819735557,-0.512235201464589,-0.3598574106175727,-0.5191841095041146,0.053548713549916034,-0.021465047788299968,-0.6128773952762924,-0.299383201952211,-0.7918112314265706,0.03753459358613291,-0.5960644739452147,-0.33124704128771865,-0.7831341648941068,0.04574915141257089,-0.48072085456170066,-0.4667551798271674,-0.3244238976869894,-0.3927930025722813,undefined,1495768659959
903d185fccf839df,-0.5087485854460352,-0.4618709597692572,0.7020455848203059,0.745532283128794,-1.1159376065907454,-1.806458853713442,1.9680592637938799,-0.4010588249497012,-0.4199756931678945,-0.42583324971724573,-0.06299062049621901,-0.10027481714014451,-0.3996351381461676,-0.25772065088973967,-0.7602322326936269,-0.010960008830329618,-0.6028764674240402,-0.367908452297044,-0.7675662618924439,-0.07395836350032281,-0.5043014084286108,-0.4253145106194483,-0.40196790043040126,-0.4119316728373025,undefined,1495768661424
903d185fccf839df,-0.4020254579671931,-0.45423976479367917,0.7894529389310911,0.8796268425849424,-1.0039777941609718,-1.795795596488012,1.9310815601045306,-0.6047943852987636,-0.405027989243633,-0.35540424409566845,-0.13388565567876184,-0.17952428393862013,-0.45620961452762926,-0.4604782750663313,-0.8191796876696258,-0.06955760984210947,-0.7280640626150534,-0.4599197902107386,-0.8187549307739304,-0.16313076200866755,-0.579631873502503,-0.4443117434286631,-0.5894886317979594,-0.4989301164949683,undefined,1495768662923
903d185fccf839df,-0.4408338993280536,-0.45071767480495084,1.20416022056088,1.1906450529102934,-1.0090692163435733,-1.8085318754911122,1.9712124039081613,-0.34160948867876495,-0.42021958452035163,-0.6537672497462282,-0.21621812591550194,-0.004186539773680537,-0.5824142156862745,-0.3178998567779106,-0.8012849244204434,-0.07561945987579863,-0.6751204757382325,-0.5059032942024516,-0.793419478363151,-0.013504069424512995,-0.5749207258172228,-0.3908992258028913,-0.5690106048918668,-0.5692694775989805,undefined,1495768664448
903d185fccf839df,-0.2620380803419924,-0.4706762431970627,1.6801167942342528,1.7463940606686164,-0.8227129601333116,-1.7644580114864759,1.9216826372878513,-0.48523497383616393,-0.38909703047003663,-0.8751048999987694,-0.1984250035751174,-0.02304258881855196,-0.7303782308377896,-0.36048818100810404,-0.8339165238052488,-0.26353599124323807,-0.6720012087377994,-0.464656830453648,-0.8728822590919649,-0.0705553114992558,-0.5882282223800105,-0.4756166868156265,-0.5359211859931279,-0.5497817307505198,undefined,1495768665922
903d185fccf839df,-0.07631205684321342,-0.3497510366720875,2.498047417023286,2.411786447735086,-0.5940721966241415,-1.78329457071251,1.9118524183229595,-0.4784328267605603,-0.47181859628862904,-1.022854738531606,-0.10584244317894284,0.03023288203193217,-0.8696384803921569,-0.2086515000607063,-0.823390208072813,-0.25545355279637405,-0.6618578965216052,-0.37806649257695096,-0.850926266970795,0.12043160621327752,-0.5078380094697359,-0.4478128561992413,-0.6108507409482568,-0.5158309120087355,undefined,1495768667417
903d185fccf839df,0.2286110757967105,-0.3356626767171742,1.805805051173634,1.6707691471286725,-0.38677426613283156,-1.801765436766925,1.9174065799985283,-0.4462789507273208,-0.5554025572017718,-0.9175265994228441,-0.13328686497830008,0.04586918476338665,-0.9305648395721926,-0.3123448940022146,-0.8012849317826772,-0.18473219518777279,-0.6639415536731469,-0.3335712299231017,-0.8418164195029801,0.25407471428198525,-0.4723289911480909,-0.4148303419124947,-0.6339617631479386,-0.48008504122636275,undefined,1495768668922
903d185fccf839df,0.06506136858561277,-0.2622856850400314,1.4950936588912938,1.4772319285105218,-0.2322933829022259,-1.7570743240619515,1.8800712167529925,-0.5707565483635976,-0.4427098629357726,-0.25861295280622437,-0.18461309162296696,-0.08262782206449996,-0.9131573083778967,-0.31512234301312625,-0.8349691907172146,-0.23928867590264602,-0.6061357046761964,-0.4531308741622511,-0.8047403183493805,0.18935504731735364,-0.5299070281874381,-0.3827127509279247,-0.6346626449083815,-0.48865475660254426,undefined,1495768670423
903d185fccf839df,0.09693974345539455,-0.17188528764536076,1.9640317324324406,1.7007907604260706,-0.2956944100769055,-1.6586080665250529,1.805182224168972,-0.8221255527645255,-0.34375793365377333,-0.13132650142263133,-0.1993828364597088,-0.05559309995532448,-0.32565313057041,-0.2716081420090144,-0.8602323573097409,-0.17058801976610577,-0.6700673155738012,-0.3724048407521892,-0.8607078072918067,0.15102831911899825,-0.5312080180724819,-0.3380909998223436,-0.36592275893796933,-0.43857537810695385,undefined,1495768671951
903d185fccf839df,0.1953468256503519,-0.24526219163852653,1.9417017352344041,1.856414115578525,-0.4260039103684386,-1.734816114253751,1.8207375446533736,-0.9150945702291833,-0.3072448298223187,-0.5000961288590865,0.014958751928672572,-0.030091635192486827,-0.5432472704991087,-0.36974656022405206,-0.8518112796921975,-0.006918718945093771,-0.6352299869205296,-0.33747232454610165,-0.819195727846648,0.03259887865142217,-0.5036185437720818,-0.40649578863866387,-0.35437921260957084,-0.5447192478172882,undefined,1495768673421
903d185fccf839df,0.08862369817150978,-0.5282037130129587,1.9078870351549748,1.93995860258914,-0.5509648534013227,-1.8677411365051106,1.9328119912102846,-0.48257460939129826,-0.2454930349679144,-0.523588884440692,-0.024779138307642678,-0.027641635975340674,-0.8261196524064172,-0.3715981842641434,-0.7749691056404189,0.19716260452190906,-0.630737129376894,-0.40429754344499863,-0.7778025952691123,0.20678609697270436,-0.46430411232610536,-0.5091530183459697,-0.494990287938734,-0.6284886857332386,undefined,1495768674926
903d185fccf839df,-0.03611767119495661,-0.6051027654508374,1.3343146802494281,1.382776830067155,-0.8066364149139906,-1.8223559102205602,1.953713686947213,-0.38997095506600277,-0.2425164119146182,-0.4207970845498013,-0.1034114187864201,-0.00426732081650533,-0.8043602384135473,-0.5345449591230024,-0.6518110378222032,0.7871800458485512,-0.5760737201223666,-0.6083766524468182,-0.7592820380897259,1.0267225208100716,-0.36556577671112384,-0.5479745296005266,-0.7762717186060165,-0.7127491044655103,undefined,1495768676421
903d185fccf839df,-0.12620857008439024,-0.6086248554395658,1.4529849453304824,1.3464528371900888,-0.7875564399998323,-1.8498665557212732,1.926450496107964,-0.6790796582336776,-0.3179939222560334,-0.4732278431002998,0.18540554415220223,-0.055592313404117674,-0.7086188168449198,-0.4706624144992268,-0.7454953597468349,1.1872603956593004,-0.42614936795917724,-0.530006477035789,-0.6978500381887742,1.3680444624647603,-0.2584997061324399,-0.45682808627751614,-0.8319011105904027,-0.8191233739622342,undefined,1495768677918
903d185fccf839df,-0.03195956228948988,-0.5775130605391322,1.560170761667093,1.6113652360420336,-0.6618652242862925,-1.8934489508869905,2.0623641197048808,0.21522052087639196,-0.3210141308010755,-0.32599633751173246,0.1944117173747682,0.00571837375189087,-0.7651932932263815,-0.40122490709975517,-0.851811331227834,1.260002313416355,-0.3762388809151257,-0.46379555253858235,-0.7704559439587084,1.2841691271032805,-0.2772009598900239,-0.4435390364123676,-0.7111664653193976,-0.7740299104603874,undefined,1495768679449
903d185fccf839df,-0.027801522394842623,-0.5534453725461744,1.7241396672981213,1.6911786790590861,-0.6425898304648349,-1.9263517848404466,2.008460986781962,-0.12043789955121305,-0.28988666265613955,-0.28975084203413837,-0.020944227163579843,0.08910270515737728,-0.6868594028520499,-0.15124975613422156,-0.8644428924373958,0.8174892677522754,-0.3471410314165527,-0.28249604098649855,-0.7681679870650686,0.9596622850084645,-0.2942598525648684,-0.48405958452170716,-0.1483194813447195,-0.8432140991807091,undefined,1495768680919
903d185fccf839df,-0.015327471721720323,-0.4683281247485925,2.156073367907626,2.085151526708807,-0.5616002554848453,-1.9041681091573475,2.000182357621991,-0.06248273768389961,-0.34537599287629894,-0.3530465129525681,-0.22491427459391988,-0.10951055058779491,-0.5693585672905526,-0.18643145469630387,-0.8244428455358437,0.793241980676405,-0.4089705972240111,-0.28096346791894994,-0.8067064215634354,1.122300665637133,-0.28551282424003255,-0.517756805804676,0.008647431247060345,-0.6896096020771151,undefined,1495768682428
903d185fccf839df,0.11495791633219933,-0.4084525803262148,1.9353216271191296,1.951626557706195,-0.42002791588591554,-1.8444510737012008,1.9121338167212658,-0.5009529576111539,-0.5215697225257258,-0.42110685780086643,0.10718517147098021,-0.19988362952550212,0.6839836786987523,-0.3151223689146753,-0.8107586395010175,2.2016055586667274,0.023179040539095083,-0.2867137808666084,-0.8480855615285328,1.8936395976115175,-0.11082939807767994,-0.44205616227700995,-0.5209046980811354,-0.6848747010249076,undefined,1495768683914
903d185fccf839df,0.22168121633809013,-0.4589359140066426,1.547410545436544,1.574070324885107,-0.21391282880096787,-1.823711528818024,1.9570903477856425,-0.2374889635299883,-0.43531260743223216,-0.19874333501059485,0.363114787087427,-0.19610684159223932,0.7710213346702318,-0.44010989259434397,-0.7686532955867028,2.4420579540711436,-0.12708407284813183,-0.38975710762416305,-0.8089523969678749,2.0898003956326154,-0.08822527384310437,-0.46838667522105343,-0.6373226749069474,-0.7936453328013746,undefined,1495768685417
903d185fccf839df,0.1911887512502949,-0.6643913094890899,0.8270951956057863,0.7447344169964009,-0.5776150831390546,-1.89950031496981,1.9732163235751554,-0.3940830678570602,-0.12211540432370467,-0.053193683785752205,0.2241677672644508,-0.233564006654415,-0.8304715352049912,-0.5197316430329075,-0.7360216593907284,2.5552118096800243,-0.007929836132977841,-0.6072683915388241,-0.7807972303304472,2.378967800177903,-0.11266185016160482,-0.46403625543219984,-0.5103886969126831,-0.5357257816854212,undefined,1495768686919
903d185fccf839df,-0.004239365335994304,-0.7330721519532692,0.35751923832158666,0.31631620747126116,-0.740427386136165,-1.95609383974733,1.9555808573578588,-0.6379359647067019,-0.19128949180325486,-0.33595894654528197,0.21855460583386868,0.00969591119750143,-0.8174158868092692,-0.6697167128909883,-0.7149690205636231,1.484289662338714,-0.31921723196487667,-0.7269356938438993,-0.7486678748030968,1.755623330241788,-0.30234384241451173,-0.4578096593240238,-0.32281833709542335,-0.40733821467725123,undefined,1495768688457
903d185fccf839df,-0.32718070535813276,-0.6820018178887162,-0.049532421843771615,-0.12301261012277996,-1.001786948169726,-1.9671157996990536,1.9662657483068913,-0.6190201846891992,-0.20300446808034422,-0.38938779846334654,0.1326083345018447,0.009762681413449912,-0.7086188168449198,-0.7067500743454858,-0.7697059404119672,1.7894016783769287,-0.3118566069166223,-0.7773649240203083,-0.818852885141357,1.291652769086186,-0.45443910067793425,-0.417347573545978,-0.29109533389314907,-0.18270461180807496,undefined,1495768689920
903d185fccf839df,-0.9730636269402777,-0.860454552685572,-0.7398603740534166,-0.82090023540587,-1.0119697859532146,-2.09405933729703,1.941953187526157,-0.8887927791024525,-0.3166515025267683,-0.7459935748073294,0.08112460901151604,-0.026295359750173154,-0.5911179812834225,-0.7817426092745262,-0.941285118024811,-0.2372680733571104,-0.5672691161423803,-0.9424077692521869,-1.0209417732948154,-0.2184881721360727,-0.9115035028858297,-0.37092007673271793,-0.31669626713853877,-0.2681373014016027,undefined,1495768691420
903d185fccf839df,-0.7526872364806952,-1.084694488390638,-0.7915396309925639,-0.8595606630036688,-0.8144226878641873,-2.174755829322908,1.9322518420250065,-0.9837102529581172,-0.27366478844626796,-0.5908882433346179,0.09844882921080136,0.044283717851762175,-0.6302849264705882,-1.0622702853826362,-1.1907590850657626,-0.766667311126437,-1.0377365694557261,-1.0894333903641384,-1.1641035203917078,-0.6789016895126482,-1.1055908545230297,-0.43028110128824226,-0.6115289320497223,-0.4810467801874909,undefined,1495768692925
903d185fccf839df,-0.2606520325383669,-0.7706411556750266,-0.665851119916233,-0.6756427100148228,-0.7536547879764502,-2.060122321204688,1.9333642536039768,-0.8888356378802209,-0.4090686092043027,-0.5628901479422972,0.11607292661210111,-0.04471704824687625,-0.673803754456328,-1.0400502691574767,-1.1139168889272826,0.6356345298890821,-0.7141980393565658,-1.0806875951456603,-1.1492003134384823,1.1595187011053965,-0.6316462728857152,-0.45683115750333647,-0.47642869121928294,-0.07386188888064382,undefined,1495768694416
903d185fccf839df,-0.34797093933677875,-0.7260279938968068,-0.5899277062759923,-0.5587428213159441,-0.8269300925602091,-2.0266255315727797,1.935126208306836,-0.8734351896355657,-0.31700028196815333,-0.5181116206170905,0.17587906392176905,-0.04534738594568521,-0.7869527072192514,-0.9382085510591579,-0.9949693672800723,3.341228503468185,0.6046163590521116,-0.9059553463642053,-0.9906665733899487,2.8764607649001426,-0.12573802616068552,-0.36792032408756964,-0.383973937016285,-0.09082571859257559,undefined,1495768695927
903d185fccf839df,-0.36321708561715205,-0.6268223642233173,-0.5037961196513125,-0.4938620305520503,-0.8227026771089694,-1.9500937191882466,1.904417961312428,-0.9483634889209406,-0.19347644163909708,-0.5104428870391006,0.08394356702552555,-0.0144260693272762,-0.7695451760249554,-0.8965460194228484,-0.93075877284344,2.953271797195371,0.4108481468500138,-0.8876848034009228,-0.9317744173787302,3.0683869878522105,-0.05952631572417033,-0.3816451902673306,-0.4599482561309126,-0.32633004374885477,undefined,1495768697463
903d185fccf839df,-0.06799594254850917,-0.3157041375530547,-0.25688580852171655,-0.26682595440564716,-0.6916011782114913,-1.88852261098001,1.9181271503376547,-0.743401979437933,-0.268372248507583,-0.5101978309991932,-0.049178207700730635,-0.05007712388051198,-0.691211285650624,-0.8206276465722132,-0.8518113017788989,1.9389266341879445,-0.1116615465746839,-0.8341207655671483,-0.854074833394565,2.3732241687315603,-0.20258520195022292,-0.40380176581490834,-0.4470860692926761,-0.4454596587648715,undefined,1495768698925
903d185fccf839df,-0.2467918305453899,-0.3638393966270008,0.0761560892325592,-0.026343274896946524,-0.8449814904406115,-1.8076048405140126,1.9222191297646964,-0.6979675136415556,-0.2016365358021063,-0.4301673694205746,0.011820245940477377,0.01665652618949383,-0.5432472704991087,-0.775261802101848,-0.8054954595480982,0.791221335733787,-0.6272784468618076,-0.8087193288093292,-0.8312862207851875,1.2099024231811375,-0.48344750436386674,-0.4203750167945746,-0.22816382855045447,-0.23628686618255046,undefined,1495768700429
903d185fccf839df,-0.22322967348654157,-0.6450198145510841,-0.12098912446094662,-0.09853687224775642,-1.0244154736062603,-1.8873556609585245,1.9456296580059433,-0.7109982606617861,-0.22910841589185846,-0.3529355094302836,0.12323433907323345,-0.002017201751870988,-0.5954698640819964,-0.8724743500183546,-0.900232441022462,0.3143578772072726,-0.8804935187381533,-0.9113636802314781,-0.9065509147004932,0.1913260512961865,-0.759725726402157,-0.4610783439483794,-0.5513444300392,-0.4053434420956243,undefined,1495768701957
903d185fccf839df,-0.8413921565773229,-0.8416700142897029,-0.5388868413537967,-0.5380816610777658,-1.3238629765825227,-1.9048575642231527,1.9394364619451214,-0.8575839211552387,-0.2572075990825615,-0.5350058096855396,0.1745106884183925,0.11766900061551008,-0.5824142156862745,-0.8872876920099986,-0.9433903561397031,0.30627546702513014,-0.7592812831588143,-0.9420277938219266,-0.9905266372641711,-0.07757700067072748,-0.8581356876072558,-0.4468872117994142,-0.5073782970743246,-0.3324485279887921,undefined,1495768703444
903d185fccf839df,-0.7402130995440486,-0.8510623127156298,-0.6020500387634885,-0.6462645394017785,-1.3940011454900487,-1.9143422261696788,1.948454066925899,-0.8185857728677122,-0.28841303677685437,-0.6520939810829808,0.14372403742245637,0.19209376348626722,-0.7216744652406417,-0.911359374365267,-0.967600914718134,0.18503894685161304,-0.8672473614085575,-0.958411119242683,-1.0097048953938954,-0.20555347903817675,-0.897140577162667,-0.44131638462864026,-0.524295128786787,-0.36393230755103634,undefined,1495768706054
903d185fccf839df,-0.6501221488965003,-0.8446051185083022,-0.6416069632151395,-0.69399736207698,-1.2983441642806164,-1.941105185017538,1.959646519894872,-0.7528618538679743,-0.32116827941035975,-0.6901272926943467,0.13827514431698731,0.15719100911786432,-0.6955631684491979,-0.9233952025921266,-0.9581272438109627,0.13654437269987205,-0.8613983973181987,-0.9626605246439962,-1.0065843175716196,-0.24247895199918587,-0.906383230894827,-0.44074547279848497,-0.5169105685914445,-0.35635443535156847,undefined,1495768706438
903d185fccf839df,-0.6972466355412457,-0.8557584327006009,-0.6473489334504118,-0.7075590999818115,-1.3121167128871967,-1.8468408736524553,1.9504316854156913,-0.6695963951866656,-0.32676544109054084,-0.6607827824444905,0.07951403913240883,0.08070900023228976,0.6143535539215687,-0.9067302009457612,-0.9476008875862412,-0.42922585927888374,-0.8915736399723975,-0.9445989690822909,-0.9675631038568094,-0.3272011988985037,-0.9002182452292325,-0.3969121624811558,-0.482471726501506,-0.3482216178752649,undefined,1495768707933
903d185fccf839df,-0.8386201299808914,-0.6949161478473868,-0.7679333580345231,-0.8265694797064724,-1.163951248722493,-1.7832130453914186,1.9183585688523679,-0.7744812802947072,-0.33941515134008043,-0.6807262661481511,0.03344543091219878,0.1792493508873839,-0.03842886586452762,-0.9437635591625649,-1.0128641342103717,-0.782832188020165,-0.9991317029479064,-0.9834769099246969,-1.0076338388544486,-0.7130246480410458,-1.0080887731465533,-0.30403758600108227,-0.5046047647012163,-0.37465757624255636,undefined,1495768709421
903d185fccf839df,-1.2308622384300467,-1.0571048108801755,-1.0084633069118951,-1.0679129752075043,-1.1339890116590199,-1.6564372139938528,1.8930177554411094,-0.8236690293873254,-0.32756477262780126,-0.6414874972236667,0.04335332018760908,-0.02755448243535494,-0.8348234180035651,-1.1104136500931732,-1.1854959179967524,-1.0273257319862095,-1.1638143010848556,-1.1008706860973787,-1.1148669625583834,-1.0352063215348195,-1.1638044298230024,-0.27030564303834037,-0.5302510116217893,-0.3076618638368931,undefined,1495768710914
903d185fccf839df,-1.329269320625004,-1.1087621307148576,-1.0441919123574321,-1.0897290834549778,-1.1846152108759438,-1.7057705008111135,1.893333334999312,-0.9690845621402211,-0.2869648876580382,-0.6777689704620607,0.09210905874859088,-0.07439642384020666,-0.9088054255793226,-1.1733703519388134,-1.3244434557325049,-1.2253453008129582,-1.3905443841067646,-1.2059215565487964,-1.2859319919636487,-1.2898042175475102,-1.3220654425350211,-0.4715035745643178,-0.6697862392834025,-0.5200426318108478,undefined,1495768712479
903d185fccf839df,-1.3112510787373797,-1.097021772296445,-1.0467439556035418,-1.099749870970963,-1.1614415339138744,-1.7297011044583745,1.8988007053041676,-0.9623234853754313,-0.2887538769918189,-0.6770177096955416,0.09187258978533182,-0.013090745350846528,-0.7782489416221035,-1.183554526986339,-1.340232947736743,-1.2415101653408707,-1.396069569658977,-1.2181378047806788,-1.3101829382358807,-1.3203393349617323,-1.3430906740689612,-0.4755600826263826,-0.6735544946304959,-0.5297417539388749,undefined,1495768713931
903d185fccf839df,-1.3126370920355954,-1.1087621307148576,-1.0473823476204935,-1.09994037183341,-1.1557946860977182,-1.7360692443178158,1.900554791023311,-0.9583806230592389,-0.28914822266242557,-0.6766307093803245,0.09179187395461794,-0.04479525229458807,-0.8348234180035651,-1.1872578576277095,-1.340232947736743,-1.2354483347391776,-1.3953019722313214,-1.2180048129413068,-1.31100856193768,-1.3166283096630267,-1.3426921169776147,-0.4755273818225631,-0.6736368444177947,-0.5297467468761922,undefined,1495768716244
903d185fccf839df,-1.3070930388427324,-1.0870425757843662,-1.048658115106599,-1.1056554813267843,-1.1487078410722744,-1.749979460852569,1.903605367231227,-0.9544680036805342,-0.29075789496173765,-0.6762408365999317,0.09137638233907922,-0.020954765152068067,-0.7608414104278075,-1.1872578608654032,-1.33707504823156,-1.2334277304270969,-1.3962909682834728,-1.22143726838677,-1.314416008785685,-1.3208628821338309,-1.34619153648133,-0.47547246865532894,-0.6735106800671276,-0.5296594375594331,undefined,1495768716952
903d185fccf839df,-1.3389714137125142,-1.083520485795638,-1.0556763611018756,-1.1124136498069563,-1.1094884792748567,-1.782656358071399,1.9112554775534742,-0.9406938764035734,-0.2851141173242575,-0.678157698775724,0.09220448651131721,-0.13704208194750606,-0.26907865418894833,-1.193738697177324,-1.3423382153005703,-1.2394895539626096,-1.3985375652014944,-1.2242934259742004,-1.3166479914308769,-1.3270068619745976,-1.349414216705351,-0.47534088370128097,-0.6734535537891227,-0.5295302192954476,undefined,1495768718435
903d185fccf839df,-1.2668986531944757,-1.0764763058181812,-1.0448303043743836,-1.0974073717932453,-1.052577718043136,-1.7818038566617254,1.9195630261713705,-0.8449819603354113,-0.2362176681969316,-0.7254268457790973,0.06889010249447046,-0.13587455988881278,-0.19074476381461675,-1.171518684189858,-1.3349697843488497,-1.203118609216443,-1.3699251988066345,-1.1607993327477186,-1.2556777808275716,-1.0709461126482989,-1.250825082360565,-0.4109540006240718,-0.5682298076563085,-0.3540441132246516,undefined,1495768719947
903d185fccf839df,-0.931483124477576,-0.4295851348725809,-0.7162541010953759,-0.888938666648135,-1.120411891374191,-1.6132088640250837,1.87483790367025,-0.8224704151088197,-0.34212924327975053,-0.6473566764363434,0.008084299093841627,-0.15533436742035842,-0.10805899064171122,-1.098377808915539,-1.2181275311857462,-0.8030382417402427,-1.0562029457650028,-1.1278996903159841,-1.2037404541610106,-0.8992688445561228,-1.1832681623356118,-0.4041876690548994,-0.5682237596921708,-0.3348107876136478,undefined,1495768721426
903d185fccf839df,-0.8095138852237703,-0.6996123847443272,-0.6447968902043021,-0.7491996058954662,-1.079701101883773,-1.4496683188231514,1.8287189926660496,-0.8217947020017463,-0.3361937679177894,-0.6523560971193402,0.0066536076642615665,-0.11260649376660613,-0.5693585672905526,-1.0428277813034141,-1.168653797732276,-0.5181325585362312,-0.9907533046474875,-1.0988378118468722,-1.1756202711681232,-0.7908329914406645,-1.1379486119793885,-0.412908408463298,-0.5850533686766872,-0.3403312956755807,undefined,1495768722943
903d185fccf839df,-1.0479084140547479,-0.7688801545226509,-0.7085979713570465,-0.8246922296087772,-1.1645683908228737,-1.3930678033375505,1.7956386744701727,-0.9868146314675416,-0.3284042045576288,-0.6126227854550643,0.054730911134219,-0.04422238280076194,-0.8609347147950089,-1.0326435965428078,-1.137074802680449,-0.39689607722670617,-0.9187549636923068,-1.0828091314104666,-1.1495851379021242,-0.5858796820390231,-1.0752820419931592,-0.42020432928560225,-0.6061981737140066,-0.3557024489347547,undefined,1495768724446
903d185fccf839df,-0.8358480343736404,-0.9197431259518168,-0.755811025547027,-0.8713611233551954,-0.5442071436872885,-1.4573990618251658,1.8088718538794133,-0.8560056163579078,-0.32179123263150616,-0.7723221035299316,0.048703150737864125,-0.11253443885439299,-0.852230949197861,-0.9613543890174443,-1.0781273734722683,-0.4009372823177774,-0.9682387195876831,-1.0346660933479297,-1.0871875786323755,-0.4897779842376081,-1.0087846651215617,-0.42733468778705813,-0.6371182582745095,-0.4172946947126992,undefined,1495768725946
903d185fccf839df,0.009620767646163219,-0.741877464609067,-0.5714255198101711,-0.6887199281266461,-0.22512425446103687,-1.6176320875388832,1.84423223419999,-0.794520094340367,-0.21059268600009548,-0.8762422078864881,0.02866763818026029,-0.05567183611937945,-0.678155637254902,-0.947466894660476,-1.0644431379885069,0.08198801917624574,-0.964688916034937,-1.0253629993073075,-1.0715916875185834,-0.1312559795444475,-0.916071829027513,-0.44706483546419273,-0.6075131718822765,-0.4419431747355248,undefined,1495768727456
903d185fccf839df,0.03595508932308198,-0.5716429397859106,-0.4157503735235757,-0.5010069292425828,-0.0344274291672565,-1.6872367440542588,1.8636586033849214,-0.7125603413458531,0.01867899118508539,-0.9863995069427309,0.023283183697866507,-0.00883432879934825,-0.8000083556149733,-0.9048785283402653,-1.0076009689819199,0.2395953710370432,-0.8173780756297528,-0.9952118545589043,-1.0495797200784795,0.06180973162852497,-0.8611160489570238,-0.4367199209871614,-0.4926993851475077,-0.3889397060401512,undefined,1495768728989
903d185fccf839df,-0.20243940500248583,-0.6397366795679916,-0.23072749231756604,-0.33893738118946604,-0.3198863787938012,-1.7832363380653795,1.8929020503738394,-0.767004282994134,-0.09893413424162466,-0.9400401550671047,0.019757260738994673,0.023608339459135815,-0.8000083556149733,-0.9011751960800478,-0.8928639971868322,2.205646848551963,-0.1798182889916225,-0.9834325794020052,-0.9749027570962221,1.0864992867729828,-0.5863157117427099,-0.4338063047047381,-0.5096369334749705,-0.09966843656925775,undefined,1495768730435
903d185fccf839df,-0.4616241678121094,-0.44308646521537665,-0.22243347883618395,-0.31455879703993234,-0.457056426064621,-1.9057077359102295,1.9111607847258685,-0.8078894723906315,-0.32465660699394316,-0.8431455142082133,0.0181588193467577,0.0756641500200646,-0.8783422459893049,-0.9030268557347693,-0.9076008370035721,2.59360361135422,-0.038649829031674146,-0.9557576154432156,-0.9347830436883987,1.3880932371972932,-0.4872661135951389,-0.4528391284132152,-0.576895056303325,-0.2514474023498906,undefined,1495768731940
903d185fccf839df,-0.2842141895972152,-0.43604229254491805,-0.2109490300917405,-0.2575213337842219,-0.4795306758121225,-1.9388830886626984,1.9311446848153546,-0.7038659643649274,-0.43447141950304413,-0.9489959025920371,0.0053304203950348,0.04762980277553759,-0.8826941287878788,-0.8798810145387893,-0.9086534891910704,2.5329853653998224,-0.06625714225040737,-0.941166513155138,-0.9069987083271709,2.026620575070411,-0.3317012089832232,-0.4591913270472513,-0.5918447635623217,-0.2931010677053509,undefined,1495768733441
903d185fccf839df,-0.2966883782919765,-0.457174832477288,-0.25688580852171655,-0.3372398065193157,-0.7074205801526288,-1.9515425036744911,1.9335325526454754,-0.7462712159318126,-0.5253987341991574,-0.8195090584995375,0.01649416620226305,-0.037945362146404656,-0.9001016599821747,-0.8808068330342222,-0.9023376717751205,2.2965742881453637,-0.0806982870123071,-0.917436973400807,-0.8712170180849645,1.9777767068956043,-0.33130115280363553,-0.42910774347534375,-0.6003100281775852,-0.33148869044961754,undefined,1495768734938
903d185fccf839df,-0.5420130081194425,-0.6409107387922267,-0.295804340956416,-0.31994658394730624,-0.9759904203033264,-1.8084037661394994,1.9002865343096704,-0.909595126947648,-0.3906191376407564,-0.7081188577238238,0.018200682237027907,-0.051351518514734344,-0.7782489416221035,-0.8798810048257084,-0.8676007901020201,2.4521610939900684,-0.12301310540605526,-0.9236495914085517,-0.8303626398592943,1.8163086038667642,-0.3453135429328718,-0.40211099342952744,-0.6844027360284889,-0.48695175973793414,undefined,1495768736438
903d185fccf839df,-0.022257469201979616,-0.7277890461981691,-0.3283435276866893,-0.43473200164362896,-0.530835736084901,-1.779749466499595,1.8563976966426414,-1.0252564639779416,-0.2124758366608927,-0.7174644071225272,0.006841902051678352,0.021039950932479998,-0.7956564728163993,-0.8502543111293395,-0.8654955299004264,0.8296128830254891,-0.682682455228661,-0.9145744828530891,-0.8249820926621532,0.8396621999686493,-0.5769633070800945,-0.40192298753527517,-0.667630207602498,-0.5881680504112717,undefined,1495768737936
903d185fccf839df,0.16901250397343315,-0.7712282145151365,-0.38129804383804305,-0.4427869216773044,-0.08645248513592126,-1.8085155711998475,1.8782434923467801,-0.8059877671282865,-0.26673957272258775,-0.5663068856167568,0.042906966013457226,0.010581989760011184,-0.7956564728163993,-0.774335957704866,-0.8191797023940934,0.7386854716968101,-0.8487426790706871,-0.8620870459427711,-0.7438540704002717,0.9188564066759255,-0.5106328757710035,-0.3916772780028436,-0.7690447181172506,-0.7128989249263228,undefined,1495768739436
903d185fccf839df,0.2036629054396464,-0.7060694620396855,-0.3998007385777631,-0.43897544890302076,-0.14003067851065323,-1.910547894869484,1.928222972643483,-0.5858421503212395,-0.003054027662818263,-0.7883401621739535,0.032228904331841376,0.07100018739196144,-0.7651932932263815,-0.7558192769776173,-0.6097057159945898,0.7993038024453726,-0.7841309625438685,-0.8498707976942785,-0.6714720605047074,1.530066902865824,-0.34365594789002285,-0.3727190667466323,-0.6659106563018878,-0.1357547344776843,undefined,1495768740927
903d185fccf839df,0.2812796846451383,-0.7318981511850188,-0.3710903791275028,-0.44402343539835104,-0.6092230333991178,-1.9972072402924554,1.9799512643870971,-0.4625182337534669,-0.10191381883868036,-0.6999855328437017,0.10553300413145635,0.11620007717832727,-0.8000083556149733,-0.7623001165272318,-0.6802321315282889,1.2074665624382643,-0.6243701292824244,-0.8496618106138281,-0.7061552524608247,1.9400967159234452,-0.2513604711592992,-0.3893353520720119,-0.5208451712788353,-0.2855189838569214,undefined,1495768742451
903d185fccf839df,-0.3299528009653837,-0.6397366941819878,-0.2658177057461514,-0.3425415383539366,-1.0007583759812317,-1.9385220580385982,1.9853318558914999,-0.4675651381777481,-0.14860481343642848,-0.6250372713270045,0.10851736786648339,0.11196212525606872,-0.20380041221033868,-0.7113792380519106,-0.7181269476771825,1.165033866584934,-0.5065734176188199,-0.7956038019772971,-0.7254104741522048,1.9118867639331596,-0.25331539668859576,-0.3945884483441241,-0.5590958699712522,-0.13364711755605213,undefined,1495768743988
903d185fccf839df,-0.4089555244582719,-0.46598009398409923,-0.017631627130449936,-0.12300851979350821,-1.1182004660467992,-1.8872159045215315,1.9310500255084466,-0.7764942361008337,-0.12541152250833562,-0.5739845653746148,0.05879560707939195,0.05862778643961416,-0.5345435049019608,-0.6715683952095652,-0.7686533103111703,1.6439179559217056,-0.5115361434734982,-0.7376637003005214,-0.744210904433418,2.1741992805355603,-0.17789775997331536,-0.4000696860108519,-0.6680233887783329,-0.25934655664127837,undefined,1495768745441
903d185fccf839df,-0.1871932242167028,-0.5223335922597371,-0.0016809756368396718,-0.019499636894689684,-0.7340913966644433,-1.83810389645426,1.9155367954972458,-0.730730395308255,-0.19468855436849952,-0.2998648910629112,0.09300389299075909,-0.01744516695692689,-0.6955631684491979,-0.7335992834163131,-0.8254954977233419,3.878710052493129,0.45645616063184485,-0.7690687676589716,-0.7988140173836294,3.1119954051322267,0.005965972058207593,-0.41154323746826943,-0.6086480060482585,0.0017745280245390167,undefined,1495768746958
903d185fccf839df,-0.1802631922310338,-0.5012010230993749,-0.10822941650429656,-0.15884167628920448,-0.7549096469101578,-1.6835006433956465,1.8739884871029495,-0.5841887672015028,-0.20372255974561668,-0.5202475797492262,-0.15579437737658555,-0.04470290335288598,-0.7956564728163993,-0.6650875556599507,-0.884442945337107,2.2096881101724772,0.33692952714599983,-0.6830547286479802,-0.8402631249497774,2.517507622218237,-0.11580426779135314,-0.29078250963609487,-0.5525948883960303,0.08153492896264758,undefined,1495768748440
903d185fccf839df,0.01932289523908322,1.5603976378064168,0.8966387552677019,-0.5048375439033614,-0.5502551347702268,-1.1169528009960337,1.5066150989554055,-0.6228017100393991,-0.296389597425584,-0.5724367136865609,-1.2507184823009232,-0.07977258313708614,-0.9001016599821747,-0.6558292023455519,-0.8897061105655587,1.2236313828025493,-0.35188060975362806,-0.7038711140726344,-0.8447061004559394,1.3507058093785793,-0.4018655390779512,-0.2825798989317102,-0.4846424210577934,-0.21375116982272585,undefined,1495768749987
903d185fccf839df,0.1177300119394503,0.9187896018439089,0.8921725525185351,-0.6325110307771048,-0.3957845373386862,-0.5848730424006012,1.1501317421398847,-0.662725565522694,0.6602684914426389,-1.5567054493273464,-1.280647914951361,-0.054959802167298955,-0.517135973707665,-0.7011950662420787,-0.8539165546182587,1.290311422261193,-0.36307328711601206,-0.7433823501907928,-0.8364008863918692,1.2732824251226957,-0.4206209404651977,-0.3052912829792137,-0.43491806007933737,-0.27523004260575507,undefined,1495768751436
903d185fccf839df,-0.3853932983886041,-0.5235075345720028,-0.20329290035341116,-0.7739502645022028,0.04941128759535316,-0.18951496529937994,0.8790276725669236,-0.833183653502358,-0.446680720889489,-0.6950395018133867,-0.12251623945694494,-0.036005302888669925,-0.6563962232620321,-0.7826684342453465,-0.8928639861434815,1.0963331256542292,-0.41993229824523426,-0.7930769596536108,-0.8691739492049847,0.7492733288606956,-0.5662501370652374,-0.2858223219579765,-0.3582813246475567,-0.09653135910957532,undefined,1495768752937
903d185fccf839df,-0.5239949042534572,-0.18127743993132595,-0.07441471642486726,-0.8617952154372354,0.3796541726061191,-0.4839680696770275,1.1289170982194998,-0.8087045391449927,-0.4456200108483456,-0.6505345361847132,-0.4716687264036989,0.08637221539682341,-0.5606548016934046,-0.8400701652210566,-0.9160218998966481,-0.15038195191366727,-0.9794604837903005,-0.8136336951626251,-0.9170671196558402,-0.2962811180460692,-0.8372229118079719,-0.28865367802836017,-0.349852065832579,-0.21857517712372143,undefined,1495768754437
903d185fccf839df,-0.43944809306229626,0.21378400454027585,-0.29644247883641817,-0.7919237590940806,-0.08771761154992272,-0.9018382424538807,1.4906442779039215,-0.8289540197449095,-0.14994267959435367,-0.711600408130507,-0.32658664733461584,0.10653688966995299,-0.24731924019607843,-0.8474768297414914,-0.9476008765428905,-0.3645663305054305,-1.0359940435632897,-0.8729987076774508,-0.9536534436504633,-0.44365963981634676,-0.8954394590389021,-0.40972149542017516,-0.6166969405309164,-0.3801064866525791,undefined,1495768755948
903d185fccf839df,-0.01948551161636758,-0.4407384198368872,-0.33918907614028226,-0.6339793085611704,-0.4523969998827822,-1.3027189454729053,1.7413936498128704,-0.7724376191266416,0.04711605159462126,-0.8229332853775835,-0.13718273484672494,0.09389011851541815,-0.7521376448306596,-0.8715485315229216,-1.051811551011127,-0.40093730351631857,-1.0248100510070104,-0.9090331569471245,-1.0099987612488528,-0.32030269626746666,-0.9024553931769856,-0.4427929816512344,-0.6179089645890825,-0.44969525407330163,undefined,1495768757444
903d185fccf839df,0.26048955418272146,-0.6532379660687988,-0.5439909278460163,-0.6676448366856935,-0.6850697524919541,-1.4342417677455785,1.8141472385799653,-0.7649895130379872,0.019869660765978774,-0.7738517991617833,-0.002336431508694187,0.09459183115125935,-0.9001016599821747,-0.878955189567969,-1.0844431577581661,-0.2291856773073287,-1.0613587000950886,-0.9418884689945839,-1.042051151452834,-0.2544435441647998,-0.9123059259859904,-0.47169813237968644,-0.6443818484764019,-0.4814098511225979,undefined,1495768759776
903d185fccf839df,-0.2814423010224226,-0.7072435212639205,-0.6090682847587651,-0.7231844871583754,-1.008493215642985,-1.5544444872944254,1.8568894756517131,-0.8151727765401838,-0.14341767288805582,-0.6608204550755931,0.02271169829516083,0.030924964305660604,-0.8565828319964349,-0.877103491060924,-1.104443184890059,-0.17058801976610577,-1.0299125582733624,-0.9615522592513026,-1.0831993963103281,-0.09123542048920191,-0.899145286501183,-0.46091434237618184,-0.6658608561612844,-0.4696999342991475,undefined,1495768760488
903d185fccf839df,-0.5544871968142038,-0.6086249431235428,-0.6849916983990058,-0.7871407946185044,-1.251235670680127,-1.7254199640978825,1.8964890970606436,-0.8940682601100925,-0.3094699750331648,-0.6800061455701047,0.049652877273105356,-0.040956675981215225,-0.0950033422459893,-0.9548735624186043,-1.134969557203323,0.005204896328119941,-0.9848009631769367,-0.9972193977600041,-1.100012733470924,0.03281445632225311,-0.8858795517840825,-0.4701224908549317,-0.6684550418157629,-0.4301814748506707,undefined,1495768761934
903d185fccf839df,0.04565728592682145,-0.7559657953359881,-0.806213498452271,-0.8809481133761162,-0.8496409133095875,-1.8454153806518836,1.891726518274133,-0.9838138919307206,-0.5138086945901631,-0.51493059344958,0.05720774662132734,-0.05846850166214552,-0.3343568961675579,-0.9854260746104063,-1.1212853143573278,0.01732853986605519,-0.9480082043413233,-1.0086186961135497,-1.0534139730261367,0.06544376308452224,-0.8650329443458625,-0.47288196652246745,-0.6197047508152985,-0.5135215014614869,undefined,1495768763445
903d185fccf839df,-0.28144216300078373,-0.5082452323048238,-0.8030235714631084,-0.8533430772372641,-0.6612995151402683,-1.7952715199839417,1.8891019817500665,-0.9100392151057368,-0.467535194713009,-0.554078439536995,0.050991411603487816,-0.07333555532361101,-0.8783422459893049,-1.0437536143684685,-1.1297063772504037,0.12442075742665834,-0.8540577029689237,-1.0704852228536985,-1.0674565724372767,-0.09006513776023405,-0.9281442623949724,-0.46158904190895794,-0.5643788439617382,-0.48654849540024303,undefined,1495768764934
903d185fccf839df,-0.8704984358398536,-0.8862831541469284,-0.919141285024154,-0.971206418432845,-0.47170326202427976,-1.6720314719115097,1.8651602300665984,-0.8907400211330107,-0.5793205412519733,-0.520256371666929,0.055915238904852886,-0.10314045852462578,-0.9610280191622104,-1.0928228040498256,-1.1854959235184277,-0.21908260098402715,-0.8972626757714754,-1.1394826440306374,-1.128195887810638,-0.4241036132110505,-1.0438739656805107,-0.4638161139386637,-0.62470839950217,-0.4833454622807686,undefined,1495768766437
903d185fccf839df,-0.9453432919651432,-1.0218838525369076,-0.9153134742919388,-0.9710161404865123,-0.793933578753399,-1.574389763152304,1.8582885520448091,-0.8889676202848402,-0.23889391136157032,-0.6569534334407483,0.09297099808931289,-0.0485970576780732,-0.4605614973262032,-1.0511602788889034,-1.1212853254006785,0.1688741264873281,-0.652413619802015,-1.089047080063441,-1.0898393703889475,-0.18314874290625177,-0.9597631038841645,-0.45084733975414804,-0.534837611340967,-0.3848379238829158,undefined,1495768767936
903d185fccf839df,-0.7360550769021063,-0.35327312666081584,-0.8349243661764301,-0.8826773245099248,-0.8861551359396673,-1.7568600322581118,1.9045284287707278,-0.7899159657931066,-0.14570447158521269,-0.6830354947344678,0.06499952302393876,0.016524201057218912,-0.29954183377896615,-0.998387747234248,-1.128653747149607,1.082188893703119,-0.4384588977703717,-1.0589149340907036,-1.0796800009348417,0.47310220738525544,-0.7872809473208828,-0.4519345242571543,-0.47856967670246764,-0.2558173350792626,undefined,1495768769439
903d185fccf839df,-0.7305109892038335,-0.4606969443870106,-0.6071541252557081,-0.6904179835688918,-1.1188073144380546,-1.9048319423738505,1.925416977061621,-0.8403161473387412,-0.12777323897747261,-0.6941899015338333,0.06894922973921772,-0.05518903004355602,-0.44315396613190733,-1.023385261035724,-1.164443266285738,1.033694263021935,-0.4460776375041064,-1.0735946974352382,-1.1281679003040974,0.4567182609861504,-0.8160270818991597,-0.45078246161766133,-0.4822137483687135,-0.16536560649439602,undefined,1495768771716
903d185fccf839df,-0.8386201644863011,-0.8669117176649073,-0.5905655900190451,-0.6681937251643079,-1.2021317480811922,-1.9825213872761946,1.9422451025195133,-0.8204257165792014,-0.17307362530397535,-0.6650827862500734,0.07702496666140733,0.05325507243406579,-0.44315396613190733,-1.0530119514943992,-1.165495889024301,1.0195500028061033,-0.47070906888673547,-1.0781164192928727,-1.1341851575234645,0.4567490577424199,-0.8181961887264333,-0.4508994583472912,-0.4911138495508685,-0.16223230159614302,undefined,1495768772428
903d185fccf839df,-1.0146439913813405,-1.0054473887475202,-0.7577246767761852,-0.7987837772232322,-1.5017746762103805,-2.0552728456292377,1.955470389899559,-0.902747687222109,-0.31114383603752244,-0.6699254256709214,0.09589352994514602,0.03975606030163565,-0.7086188168449198,-1.053011945019012,-1.169706416789722,1.059962166775702,-0.4619859440997421,-1.0721254546017431,-1.1418676560801533,0.4934589522652462,-0.8098025752205964,-0.45118250454502445,-0.5043666044861572,-0.15319523938105478,undefined,1495768773939
903d185fccf839df,-1.0867167864047889,-1.017187688709948,-0.8374764094225399,-0.8802866801214058,-1.5869505346422659,-2.0689128705035125,1.9512968828988173,-0.9502997027974476,-0.29965478301742615,-0.6597435750791565,0.08049659490832577,0.01977231745571799,-0.847879066399287,-1.052086110335111,-1.1591800936950525,0.16079173043754638,-0.642199720196711,-1.0556344693488644,-1.1460097681252632,0.40323946217247836,-0.8283116010878423,-0.4534053656496573,-0.5196579398842652,-0.14435486366732886,undefined,1495768775448
903d185fccf839df,-0.9869237081643206,-0.9919460437907283,-0.780693574265072,-0.8319946859061406,-1.412710824874104,-2.0587899967820618,1.9495585780954994,-0.9114815252071825,-0.3070238955961437,-0.6270771522459437,0.0777466428192121,0.023567050202608367,-0.7303782308377896,-1.0613444571741224,-1.1507590381642103,-0.17664981327035187,-0.9355466776161733,-1.083328432459813,-1.145708905459429,0.12682197282608274,-0.9007352838549577,-0.462012106227669,-0.5887508266804936,-0.246888968440408,undefined,1495768776996
903d185fccf839df,-0.2772842093696608,-0.9109378717520037,-0.42787270601107186,-0.5242664436941853,-0.9710944265585062,-2.0283887662695657,1.9497084711315573,-0.7392248125577329,-0.23831471567305632,-0.7426206553087752,0.10253848595624322,-0.002528218394000295,-0.7390819964349377,-1.0298660908722574,-1.0433904770747002,-0.19483527857725472,-0.9073561370408515,-1.0328992019622774,-1.0778958134088905,-0.2714126222691816,-0.9678642020168582,-0.4056408776540319,-0.4879167603849002,-0.18866013259472708,undefined,1495768778443
903d185fccf839df,0.3644406550651321,-0.7512696461230246,0.06467214876201462,0.0819104053118768,-0.4171376427421175,-1.9732347107515265,1.936328029013483,-0.6034103490446779,-0.21340481323441976,-0.6497650618275725,0.06910861176842857,0.06148092422779982,-0.6825075200534759,-0.8484026709007798,-0.9065482069027753,0.48408894326780916,-0.4480686149038985,-0.865272515289236,-1.0008609264641264,0.35073076687585186,-0.7415005279324602,-0.3479033226022862,-0.015541896027702201,-0.1532495839272995,undefined,1495768779941
903d185fccf839df,0.4254252401866252,-0.7342461965635082,0.7460679496102754,0.7360292987700381,-0.3133549595959625,-1.9321050053493067,1.9994302301650622,-0.09831392075556748,-0.26263871012210394,-0.6363107208266751,0.03282187531945077,-0.005279031938713832,-0.5780623328877006,-0.7595226092378347,-0.848653389389807,0.7508092565583531,-0.3305414568160032,-0.7692397572047011,-0.9360844514963075,0.48880862723309015,-0.656091217816717,-0.30605068426942184,0.09091112934051596,-0.17842329560468484,undefined,1495768782210
903d185fccf839df,0.39909091850970646,-0.6902200132484194,1.237336782760307,1.2585305614511293,-0.27654245015735174,-1.9196295995312689,1.9774345340922133,-0.20270410903816835,-0.29634676502124707,-0.6579426857583628,-0.009531487757418066,0.03773557663038954,-0.6825075200534759,-0.5910208554148114,-0.8381270736573713,0.84375712910896,-0.21585578014481488,-0.7135541840307434,-0.9020939441595367,0.6170468807482166,-0.5953927711029379,-0.2964773828890256,0.044477302366767495,-0.2050025976201589,undefined,1495768782945
903d185fccf839df,-0.034731657896740854,-0.5211595622634944,2.2224262381695308,2.245550120222919,-0.5849899325068324,-1.8619203689631736,2.0393848692802146,0.18062796247192578,-0.24261200335832608,-0.7503710099321113,0.022920464396505892,0.06247528774560903,-0.7695451760249554,-0.4225191145425628,-0.8728639332437703,1.0700651936357408,-0.41614426398190557,-0.5486316645460253,-0.8030680798280415,1.037285853336164,-0.40463733981511363,-0.35934207682376085,-0.20523618562839474,-0.45088505968647846,undefined,1495768784432
903d185fccf839df,-0.2079835272061683,-0.6009936604639877,1.7605061564867108,1.776717079967604,-0.8509369131029465,-1.841322907675457,1.9681881210210328,-0.3478234588404588,-0.3097297533233947,-0.6434915369231694,0.18006709717666414,0.01506708915132363,-0.847879066399287,-0.3910407676668597,-0.8065480749244275,1.2963731875007176,-0.4328766046109238,-0.4011310723592893,-0.7797547057973242,1.3908033613341715,-0.2651611915826741,-0.37349940373114215,-0.2679544885444458,-0.5095847570309833,undefined,1495768785933
903d185fccf839df,-0.1885792720203283,-0.5698818363355619,1.2156444151683738,1.1126404200829447,-0.892676272537274,-1.8495963649179208,1.9202441258893015,-0.725447595385201,-0.3707871061257841,-0.5979181678219693,0.2988464551506405,0.06610290499910133,-0.7347301136363636,-0.4817724566075899,-0.8591797345711779,1.100374359010022,-0.504191474456172,-0.4026699783040754,-0.8550473872252873,1.0547476851546407,-0.3620921769234854,-0.2964311741869179,-0.3329720733732018,-0.4966441030255069,undefined,1495768787411
903d185fccf839df,0.015164889849845698,-0.4800684247110202,0.5495606196598223,0.6581660361276818,-0.8914728444293684,-1.783022047671358,1.9025376439795079,-0.7617362110723519,-0.4425918107407145,-0.5184162537199857,0.2642755878455371,-0.05728524889299412,-0.7042669340463459,-0.4993632605609201,-0.8981271292852319,0.9447875249005955,-0.5930945519032961,-0.5680484698387624,-0.9109099245612159,0.680426877210615,-0.5193891185774719,-0.23572647683787692,-0.4112359600461893,-0.3724450445379697,undefined,1495768788924
903d185fccf839df,-0.3465849432912679,-0.5775130897671246,0.04106536753007502,0.11198257318641293,-1.193172911186047,-1.733409253463543,1.9081075750481622,-0.7672679648121414,-0.32791792232247674,-0.6663860316782866,0.12729795935222094,-0.09386498851773957,-0.2734305369875223,-0.6743458895481879,-0.9739167026851487,0.8639631686966769,-0.6563083242869777,-0.7557885864063337,-0.9365742271260185,0.6642585136249431,-0.5921689259282862,-0.26507062836651524,-0.6212709198371008,-0.4329910546756311,undefined,1495768790421
903d185fccf839df,-0.5752773617820303,-0.5440531764182208,0.26819772470774433,0.19241118238405255,-1.2262208586413943,-1.7686646187244146,1.9030767584034034,-0.8537635799645518,-0.31824689481668,-0.7204223241071507,0.021473155427687733,0.00848884064346235,-0.2734305369875223,-0.8030367908157847,-0.9518114190327791,0.45782099711695995,-0.7981981489070856,-0.7992452459150607,-0.9137086496153488,0.4882850801956148,-0.6413948897473074,-0.2718719459457384,-0.6872862574126662,-0.48264723461799924,undefined,1495768792024
903d185fccf839df,-0.560031215501657,-0.5581415656011264,0.35688084630463507,0.38906221155041454,-1.0812542443711637,-1.835835221007793,1.9352129970587453,-0.6878555081513685,-0.39663415432945137,-0.6901304571483928,0.08218174722778558,0.021158415799024523,-0.517135973707665,-0.7382284147458016,-0.9402324290261438,0.13250323827060465,-0.8109403239191817,-0.7454722198436723,-0.9334256629349758,0.41971580275792386,-0.6372007042923752,-0.2975382536850886,-0.6242200117307064,-0.5104627694978067,undefined,1495768793437
903d185fccf839df,-0.31054861479036316,-0.6943291328492653,0.644624103508937,0.6358904697447036,-0.8891277101798153,-1.9264193328629335,1.9228765832494126,-0.8221117389419241,-0.4347723600667294,-0.6629913722517483,0.11743361354266071,0.03977404956984603,-0.8739903631907309,-0.8178501457582034,-0.9497061661934192,1.1771574535934262,-0.576863992631849,-0.7922536741739968,-0.9631271254796113,1.2187103334244584,-0.4799901332391085,-0.4488290742487408,-0.6544085663786255,-0.5753573427642104,undefined,1495768794941
903d185fccf839df,-0.4131135988583288,-0.47537233395404144,-0.35386345187388824,-0.4431023266817983,-1.0132863564924819,-1.8195747997170368,1.9467815208269552,-0.5729162853577984,-0.5968822422311372,-0.5699102372031051,0.14942425513390273,-0.011076419638311788,-0.8826941287878788,-0.8002593029525494,-0.9497061661934192,1.6216911159354022,-0.5316618501433993,-0.8144886396080301,-0.9749167512440428,1.2602091453292057,-0.47636135319507844,-0.4468014895880383,-0.6414333394249224,-0.5408461845765227,undefined,1495768796449
903d185fccf839df,-0.7513012059297747,-0.46832818320457714,-0.7704848930067341,-0.861721928996078,-1.3288515431530936,-1.6987315374185035,1.9111266072322983,-0.7233011893116393,-0.6049103646793101,-0.6501734869703222,0.08799491983094201,0.05344793795190086,-0.9262129567736186,-0.7780392705389215,-0.9697061822819615,1.460042530718812,-0.10887938070399611,-0.8417646276223806,-1.030527403590274,0.7030625908185107,-0.633749189183483,-0.4204845074341931,-0.4341049913373641,-0.3841440681913913,undefined,1495768797937
903d185fccf839df,-1.1518594631790438,-1.0007513126045375,-0.895535520340012,-0.960996223346355,-1.8124027288126625,-1.5050320029705233,1.8578283275347358,-0.902741555464096,-0.29272489825505055,-0.6687464169944485,0.07558609837887709,0.027475736309396592,-0.4649133801247772,-0.9122852058114745,-1.1191800541557342,1.5226813368216632,-0.11382792724984926,-0.9626098594889438,-1.0941354113496682,0.4107846957428128,-0.7647084377818989,-0.43448937843692886,-0.294457013951935,-0.26043437910457157,undefined,1495768799420
903d185fccf839df,-1.2253182369952982,-0.9966422076176878,-0.9185039095550002,-0.9780335026882503,-1.8437741040077904,-1.4939308513036471,1.8509829444050174,-0.9310083366191209,-0.29742877621162767,-0.6681548627193813,0.08314979779115579,0.04760344001339234,-0.4866727941176471,-0.9891294133460109,-1.161285353896646,1.272126006417553,-0.2182410736686797,-1.0386685134032314,-1.1084019090881194,0.20589297946330326,-0.8446827069881159,-0.43628424043186004,-0.3492840198335939,-0.25649922364982264,undefined,1495768803018
903d185fccf839df,-1.2045280202693571,-0.8698468511114988,-0.9274358067794349,-1.0039235567051032,-1.7974576093453325,-1.5201254774440496,1.8578204334104966,-0.9283947218049321,-0.30221512400252915,-0.6676886774567182,0.0791388813974657,-0.03464752164129639,-0.47361714572192515,-1.0604186192525276,-1.2276012379838073,-1.043490601813757,-0.9953351611014808,-1.0888760911101347,-1.1554624594850789,-0.49833951991920566,-1.041975911271794,-0.44014659004982093,-0.5240373342124008,-0.45243342833482725,undefined,1495768803950
903d185fccf839df,-1.2793727901311223,-0.7048954028154503,-0.9516804717544273,-1.0001719013796169,-1.8352266882944392,-1.6214916405919348,1.8813124902729639,-0.9424035217115189,-0.2876701843819211,-0.6702695115914485,0.07571625724946093,0.05989470110317954,0.018145610516934058,-1.128004483185746,-1.2423380925250147,-1.1829125378309144,-1.3402819855065438,-1.1483107675003117,-1.2159428928193003,-1.2525553780533298,-1.2612217328826343,-0.4387679945044597,-0.6703939323430425,-0.523970849927246,undefined,1495768805474
903d185fccf839df,-1.2641266179716917,-0.9825537892067899,-0.9408344150269354,-1.008181496918866,-1.839268968140794,-1.7181387629470608,1.9001497876721258,-0.989190003173894,-0.26618630401216226,-0.6788012575423611,0.0883316137376697,0.06010741980004576,-0.13852217023172905,-1.115042813799598,-1.2412854642647764,-1.1364385520923481,-1.2853494301835566,-1.1456319324022883,-1.2329311496951605,-1.0362072193714564,-1.2175694859274493,-0.44530911699634224,-0.6518764750190946,-0.5202769770245739,undefined,1495768806916
903d185fccf839df,-1.101962932685162,-1.0048603591354026,-0.8846894636125202,-0.9404708001384641,-1.6647001175377845,-1.761830630993314,1.9173802809163698,-0.8847532172858061,-0.36464333573696317,-0.6723938727958853,0.07273962105790521,0.009648766034221769,-0.1863928810160428,-1.0631961265419247,-1.1918117078043255,-0.39487546761499015,-0.8326315872993897,-1.0952406995778905,-1.1845272123378094,-0.5980598498965084,-1.0855818550521912,-0.43310918894595085,-0.6054058084544698,-0.433513880063861,undefined,1495768808515
903d185fccf839df,-0.8968327575167724,-0.7213318812188338,-0.6371407604659727,-0.7058319424380235,-1.4525781865431946,-1.7766236286167452,1.9289277683519144,-0.7747100334638441,-0.409762036299567,-0.7236312075563365,0.05266405915130296,-0.0519569520809778,-0.39528325534759357,-1.0428277796845673,-1.132864274915028,0.9266020878584141,-0.4324596520698702,-1.0673567484888202,-1.1672031080933236,-0.02813258586733058,-0.9375815860759416,-0.4455536355181356,-0.5477046490029311,-0.3465328256407471,undefined,1495768809939
903d185fccf839df,-0.8067418241219291,-0.5152893830542882,-0.32451520868057515,-0.3470788664032921,-1.3083727140718675,-1.7873311410434676,1.9409906888861586,-0.6714016085521587,-0.42422376424395325,-0.7467606004987483,0.038214225091489425,-0.05866499526854409,-0.32565313057041,-0.9780194036145843,-1.0876010719878164,0.8053656171481598,-0.48877368162903617,-1.0206259572483716,-1.1364101433883649,0.13761627931448273,-0.8724949320438095,-0.44995351644014464,-0.5970337220738672,-0.39158380004175414,undefined,1495768811448
903d185fccf839df,-0.8566383373631059,-0.5047231130881031,-0.47955196295021907,-0.47706073173113117,-1.4087714059051508,-1.7693820243853937,1.93220449927753,-0.7286476739168382,-0.3691120179477795,-0.7374415943155989,0.05858993455027736,0.038855050283849425,-0.13852217023172905,-0.9567252188356321,-1.070758944361106,0.9548905234959129,-0.6089845438340816,-0.9822103204306954,-1.0844098449896022,0.5171725601507132,-0.7522460667551581,-0.46852133877141305,-0.6812756694607793,-0.45907078772786564,undefined,1495768812937
903d185fccf839df,-0.8635683693487749,-0.4976789331106465,-0.47955196295021907,-0.47706073173113117,-1.4179153907704014,-1.7764652411490693,1.9337429316849584,-0.727985239426137,-0.3647435121734407,-0.7393190262358985,0.05347498504297385,0.10635057205558422,0.0660163213012478,-0.9622802237013455,-1.0591799617167046,0.9266020030642496,-0.6246979870927062,-0.980164779650581,-1.0769722349542898,0.5490781381999817,-0.7426280882109244,-0.47034109095624776,-0.6880205922275442,-0.46435578402308025,undefined,1495768815206
903d185fccf839df,-0.7956537004834981,-0.5047231423160955,-0.3647095086013801,-0.4229565741476629,-1.3485177925617784,-1.7598903757246673,1.935620614500567,-0.6640994750908721,-0.32933581295742265,-0.6401063378921668,0.05437811251476961,0.10172872395184272,0.12694268048128343,-0.9243210405137214,-1.0539168112127206,0.7790976074016871,-0.6400607860787956,-0.9159423969876493,-1.0444790455610882,0.6133050533756289,-0.6896774921192361,-0.46658622213348666,-0.7494981997127352,-0.5206488752503747,undefined,1495768815938
903d185fccf839df,-0.7097207897305972,-0.43662928562204517,-0.2371078545697899,-0.28636391977838016,-1.2642779330285154,-1.8177929332570242,1.9403016719985091,-0.6686717437000738,-0.3666149904794895,-0.5476892826740696,0.16853936588181503,0.15216219780686854,-0.2560230057932264,-0.8215534715430334,-1.057074708877345,1.0821888654383975,-0.5145513709874499,-0.8606241341428038,-0.9851600830709601,0.8932333931302094,-0.589974773978054,-0.442251826430249,-0.6797923978085523,-0.46552340077683096,undefined,1495768817445
903d185fccf839df,-0.6473500877946591,-0.4894607085229509,-0.1809623948814759,-0.2360561349069643,-1.218568293757136,-1.9117195048399287,1.9563803092306329,-0.6485813182397072,-0.2627835370874039,-0.5065059462983396,0.18552678468699524,0.03495894281001195,-0.691211285650624,-0.8484026806138607,-1.0265483844186005,1.5348050510214022,-0.3713051003256755,-0.8678563550915455,-0.9869792530119224,1.5858554629768922,-0.4281515293332895,-0.44458352169171134,-0.5976321283354604,-0.37571646183773955,undefined,1495768818933
903d185fccf839df,-0.361831106824346,-0.640323694566113,-0.2715601842553225,-0.2711902007875956,-1.0293320391112528,-1.9722634178232645,1.9609088328900743,-0.6684684964101876,-0.2663740363863801,-0.5694020980232657,0.17999176398921857,0.08394303454950285,-0.2560230057932264,-0.6623100483705536,-0.9549693240596371,1.5327845191376703,-0.1645318893592254,-0.7986879447121504,-0.8677815830942445,1.999642493694387,-0.29263078312676166,-0.3915656534789313,-0.4727891307547997,-0.1997837070542356,undefined,1495768820433
903d185fccf839df,-0.375691308817323,-0.6526510387546545,-0.2766642707475421,-0.28153401515302623,-0.9647995752077229,-1.9846130441500067,1.9806060828307401,-0.5395058483258587,-0.265794509947446,-0.6053252980341833,0.17796510786010053,0.07204494204548897,-0.2212079434046346,-0.6641617242137432,-0.9518114263950128,1.2943528252053151,-0.26163403917019673,-0.7940902276854138,-0.8665431474895509,2.048763535233458,-0.28053912347221643,-0.39301848487252766,-0.4889270336783924,-0.20845408840563234,undefined,1495768822618
