UUID,iqrAccX,iqrAccY,iqrAccZ,iqrAccXYZ,meanAccX,meanAccY,meanAccZ,meanAccXYZ, covarianceAccXY, covarianceAccXZ, covarianceAccYZ,pressureDerivative, pressureIQR, iqrGyroX, iqrGyroY, iqrGyroZ, iqrGyroMagnitude, meanGyroX, meanGyroY, meanGyroZ, meanGyroMagnitude, covarianceGyroXY, covarianceGyroXZ, covarianceGyroYZ, class, timestamp 
903d185fccf839df,-0.5239947662318183,-0.33566261826118954,-0.40745686831609246,-0.734836250332122,-1.0341449415326676,-1.2573706204130928,1.817518236636445,-0.31250154387145085,-0.2991238780945323,-1.1302418625942836,0.0032423716085242284,-0.5180548738420682,-0.5062562667112299,-0.11051305594411953,-1.023390464667275,-0.045310322766238975,-0.3642190270779594,-0.4235388338598097,-0.9593808287017199,-0.1076391599700825,-0.6171819586983487,-0.5299598687679786,-0.445497415422706,-0.36343163195270944,undefined,1497423288074
903d185fccf839df,-0.8524802974684587,-0.5628376563581052,-0.3283430194127904,-0.4926189181390715,-1.1153354239060045,-1.3149203445776838,1.8337830474630181,-0.39536437905616056,-0.20069583434849872,-0.8058434134922702,-0.009399366611601947,-0.9894803646038706,1.7588987299465242,-0.502140787276479,-0.9981272465391121,-0.5524829325346737,-0.6263969594106432,-0.5300488560110868,-0.9899265232567792,-0.4391372378197366,-0.7441239469536146,-0.45569525490143353,-0.4853300654984726,-0.36223363491389127,undefined,1497423289501
903d185fccf839df,-0.06106591056284015,-0.3920161749928121,-0.050170305586824344,-0.2018217006213264,-0.6407633142372097,-1.2768930856191876,1.7196678862098345,-0.7310205873170094,-0.498753062575413,-0.35880947655758383,-0.1542809807754854,-0.5847747986682593,2.8425175467914436,-0.27901484538177274,-0.9254955855282869,-0.037227898451735734,-0.5797393612484876,-0.3232295313189642,-0.908279123098806,-0.20596923797332045,-0.5707141497801015,-0.30787074082080584,-0.45263937913208147,-0.43744137733764926,undefined,1497423291009
903d185fccf839df,0.49333982278837757,-0.07913683025820453,0.4838451248670713,0.37334011649259696,-0.2555390469662365,-1.4503833925235834,1.7880858673998417,-0.5405877614019454,-0.80970752803392,0.33461333804915416,-0.20829302132546396,-0.2985975642511697,1.110468192959002,-0.3725240610380619,-0.8928640008679491,-0.18675285426275148,-0.6835539091799816,-0.36947034648655885,-0.8764132126368555,-0.23684981811336253,-0.5839662951027594,-0.36018996055465696,-0.45292944237033006,-0.4966084315945312,undefined,1497423292469
903d185fccf839df,0.21197898522894093,0.20145657266775735,1.0019109203751544,0.9928314562601069,0.4829431462954699,-1.600009062629876,1.757911473127358,-0.7932887887484003,-0.9295116128482521,0.9622596077986084,-0.2062245226611408,-0.08334954205957582,0.17916527406417115,-0.3984474321872944,-0.8886534657402942,-0.1766498415350734,-0.770861222991905,-0.4461349785954262,-0.886503682745055,-0.2790742991255151,-0.6277021483906666,-0.3897757850700741,-0.5384011675540378,-0.4952089203211964,undefined,1497423294005
903d185fccf839df,0.40463497170256946,-0.27226496923608734,1.1620515070000685,1.32269380360353,0.8376659813674752,-1.7750816702485221,1.8434643263509962,-0.5951780045966353,-0.4243136034505152,1.2160428168208373,-0.0032652002772823275,-0.06029239314861298,0.11823891488413549,-0.38178238845091167,-0.9054955768019785,-0.23928867590264602,-0.7879119454352919,-0.41619081251271406,-0.8944884096966883,-0.24873072336783006,-0.6148420193916672,-0.40229432079879507,-0.55575394217193,-0.5220967945732781,undefined,1497423295459
903d185fccf839df,0.5806589366192478,-0.28224422420415096,1.1563092826278467,1.3063034493093146,1.1459180364474788,-1.7676141304314195,1.7769723085347782,-0.8528424983375389,-0.42233687967001143,1.1876946549827485,-0.00611544365678253,-0.1435687918135044,0.2400916332442068,-0.38548572718651636,-0.8707586877666442,-0.2635359629785165,-0.7662305923839109,-0.3834748259957538,-0.7841836865806618,-0.17095317434165203,-0.5438810357778339,-0.3611107758641579,-0.5952413439807862,-0.5577002198308232,undefined,1497423296981
903d185fccf839df,0.5848168384922562,-0.26874290847535137,1.3068800882852731,1.3787677211834681,1.0037594130395968,-1.7336095674283174,1.8447660722566097,-0.4157900700717502,-0.39756491476694866,1.0105417029226398,-0.0051959986864325266,-0.18534625545615133,-0.4126907865418895,-0.42899991523985365,-0.8854955607134363,-0.3221336063873787,-0.833206102920555,-0.4721360366653513,-0.7897601458525716,-0.3468650143796023,-0.6143461071339668,-0.4243554162836728,-0.6180067442674163,-0.5180134148992678,undefined,1497423298468
903d185fccf839df,0.1399062937217218,-0.21415036751010066,1.4791430073976835,1.3546290560674459,0.5750001328412563,-1.6720943603017027,1.777080124191657,-0.8867634577806041,-0.4708440277391065,0.7002690230801636,-0.088510969603069,-0.019303038585351012,-0.7564895276292335,-0.40863155866941536,-0.8939166088820446,-0.267577153937227,-0.7695167733220948,-0.4426941822123126,-0.8217775526750459,-0.35631965961437606,-0.6115919409081044,-0.45413073255550135,-0.6233558311099302,-0.48570574454628884,undefined,1497423299958
903d185fccf839df,0.11357204105562252,-0.23352189167609877,1.7885786321939183,1.6269699392786574,0.4625877450205604,-1.6564162508757754,1.8585593998036065,-0.40117140053559314,-0.47443520530751404,0.6120887001111767,-0.1509318195209966,-0.04684831752016038,-0.8957497771836007,-0.3725240351365128,-0.8897060884788572,-0.28778327831910855,-0.7236847453943464,-0.36108787010170973,-0.8170477086264022,-0.29133821892907225,-0.5666801822308238,-0.45973165724507337,-0.5707137234790952,-0.4917258570387671,undefined,1497423301460
903d185fccf839df,0.14545007087130696,-0.2217816501696557,1.990828694790492,1.8790752982037278,0.34113423763916945,-1.6231267657735657,1.791215325665167,-0.8041708103431102,-0.44861637632287044,0.5046232985809253,-0.12426953771226915,-0.007036898896383952,-0.8217677696078431,-0.45955243714473654,-0.8770745125448279,-0.24332989512607803,-0.677997177597817,-0.4260068761649781,-0.8158512538441492,-0.32358256236082755,-0.6012983561174445,-0.4399975222617319,-0.5890705857372672,-0.4581665004312612,undefined,1497423302957
903d185fccf839df,0.16346838176975068,-0.3010287333720277,1.8345159188977933,1.827251168329078,0.40594441035543405,-1.6750268749509631,1.8320851489559302,-0.5892352761623044,-0.47816964528109557,0.05655292386497236,-0.14743847096952026,-0.0062664105264493754,-0.8957497771836007,-0.42807407731825886,-0.943390363501937,-0.1766498415350734,-0.5933326021929889,-0.4094145634810612,-0.8989453798278016,-0.09188215408057422,-0.5902201794772208,-0.516279547273021,-0.49326450755065643,-0.4095984906897621,undefined,1497423304457
903d185fccf839df,0.18010067936997864,-0.28576628496488693,1.7751807863572662,1.7542452188649111,0.29794458907889615,-1.7373270358222028,1.8385544738566735,-0.6635997316281623,-0.5868211962924986,-0.2830658932303167,-0.0840895934579153,0.07680443819684135,-0.6868594028520499,-0.35493323118318254,-0.9370745828971561,-0.126134650705436,-0.6004964135515758,-0.38459575746404867,-0.9158496745938837,0.06733776885885798,-0.5580583649862765,-0.5158429329154205,-0.5143507361409614,-0.39893112716951074,undefined,1497423306001
903d185fccf839df,0.21613702512358818,-0.41608370223181196,1.5652745940223631,1.5268929761111911,0.2905285966268874,-1.7822766938524863,1.7848117683727331,-1.107412351257338,-0.6477048327245644,0.019158715478603084,-0.07684454399699135,-0.028441242359136722,-0.7695451760249554,-0.40215074502134995,-0.9360219454341254,-0.10996974554698645,-0.6243562814326467,-0.4134803137538067,-0.9308648313836413,0.1599286223909013,-0.5667766803606287,-0.47909128388780103,-0.5094483221272834,-0.40560205651780135,undefined,1497423307434
903d185fccf839df,0.3450362618576532,-0.46950218397282756,1.5046634398587813,1.5082069855689748,0.3023777176947028,-1.856153171740113,1.8875477579515947,-0.5892170990396182,-0.645963180924327,0.6630188420412596,0.0223990295519986,0.006307481540745499,-0.843527183600713,-0.3669690205577186,-0.9307587802056738,-0.07359875840373764,-0.6546554874355224,-0.41209339787039145,-0.9201317240554711,0.11964629043618454,-0.5638557803142314,-0.4986090808901393,-0.5635351619215403,-0.40188180307592597,undefined,1497423308929
903d185fccf839df,0.46423347451502733,-0.5152893684402919,1.6201435238137234,1.6466876857202735,0.26548292490836484,-1.8989855526881438,1.882664205063191,-0.7014226103063153,-0.5371532071245573,1.0110836170145383,0.01706632893606495,-0.019571283996054702,-0.9088054255793226,-0.3993732442073401,-0.929706150104877,-0.09784613027377274,-0.6406599008072366,-0.3530260343506564,-0.9203836091552755,0.10869799393338754,-0.5360608535800151,-0.5138393361920456,-0.5838124230794219,-0.38261275087728625,undefined,1497423310447
903d185fccf839df,0.2785076925541165,-0.6233002596205928,1.6010034536048496,1.729127648182197,0.10187862778647673,-1.9620357287913959,1.9606721484833027,-0.32335713602203126,-0.5670115347389323,0.7867252967840502,-0.016353506473182833,0.02862801622770926,-0.9436204879679144,-0.38363403839255217,-0.9560219615226677,-0.2251444156868144,-0.7204027961773302,-0.3900990866270355,-0.9375817696539738,-0.05050653532625589,-0.5879392259637991,-0.5082813986786372,-0.6113545765080579,-0.396447516469389,undefined,1497423311937
903d185fccf839df,0.031797049428434726,-0.5816221801399781,1.9091628026410803,1.8684977463604537,0.0029610843068110463,-1.9187770980409562,1.9357599946079012,-0.4518711311824809,-0.6047187182445153,0.3121234823552032,-0.027555316208229035,-0.0318887579079828,-0.8217677696078431,-0.39752155541337597,-0.9581272364487289,-0.2433298527289957,-0.6939543816766774,-0.3415887402451961,-0.9199008280914797,-0.07668388761735093,-0.5667273862097176,-0.49541609821822963,-0.5761380283387678,-0.35146977460993034,undefined,1497423313437
903d185fccf839df,-0.034731657896740854,-0.5587285221432632,1.5952612292326278,1.5555393869716614,-0.01767202773934331,-1.9193058353275543,1.8571472021525204,-0.9514619257564569,-0.5964532966725594,-0.07739200833909901,-0.002930223130407069,0.003101907410126849,-0.7129706996434938,-0.36048821986042767,-0.943390363501937,-0.22716500409998924,-0.6595763170884731,-0.30511731776765905,-0.9145272768977631,-0.04678010895695361,-0.5390705141162605,-0.5071945504421393,-0.6010481578276462,-0.3028356063657898,undefined,1497423314936
903d185fccf839df,-0.008397267209002622,-0.5158763980524095,1.83068734575473,1.8453595191703527,-0.05193368477653466,-1.916857805353098,1.9572717989870252,-0.26095993167998466,-0.5857455216445786,-0.17224778505111482,-0.08754532198995127,0.12147158993806029,-0.4649133801247772,-0.3299356591032212,-0.9370745681726885,-0.13017585579650726,-0.5636717114018792,-0.2869101058135638,-0.9067118389588859,0.031505588324695744,-0.5184352376711213,-0.4902933999540849,-0.5709359593805136,-0.3005409875163359,undefined,1497423316436
903d185fccf839df,-0.23015973997762035,-0.4835905293137447,1.7254154347842265,1.6600623546333348,-0.25264877713330103,-1.899111332202997,1.8768654842357648,-0.8502783680194163,-0.6141160247615983,-0.1108837172424224,-0.12493979451810908,0.024919386555559777,0.10083138368983958,-0.2197614515136475,-0.9318113808575355,0.04965829365351123,-0.4808868964080915,-0.32733328296434694,-0.9134777554558905,0.14406822673140685,-0.5142686338057361,-0.48945287955361777,-0.518950540032406,-0.29702341017683426,undefined,1497423317977
903d185fccf839df,-0.13868272427374176,-0.5170504572766447,1.7075513861984075,1.6721072080219137,-0.45559586248256434,-1.9027938587731001,1.8987796621626098,-0.7881727519122735,-0.5750759377142958,-0.06748587532266806,-0.11846230265711948,0.00817415628554963,0.19657280525846704,-0.2577206379389651,-0.9191797901990385,0.3002136876532448,-0.47383573577196875,-0.31401510279835815,-0.9063410084717869,0.28759713607659027,-0.4784458441631448,-0.4841401069343983,-0.5666493442765004,-0.24385630780294534,undefined,1497423319449
903d185fccf839df,-0.17471920804899024,-0.48241654315949045,1.297947936923889,1.4372891090537565,-0.45160500787055463,-1.8943690006022924,1.9006468330970168,-0.788010521782305,-0.6453368152068898,0.019200231674609453,-0.05328793503118139,-0.17575153272524402,0.2400916332442068,-0.32530652129834536,-0.9549692946107019,0.17897716747972772,-0.4911190962704007,-0.36960568070982186,-0.9383094372327496,0.21651791322930042,-0.5255675299510907,-0.49639881454976253,-0.5620754563710908,-0.2772068481293716,undefined,1497423320960
903d185fccf839df,0.13852021141268658,-0.5921884354921669,1.3509029613491417,1.4493587171835707,-0.41825878498964164,-1.9255528538846514,1.9271736889179019,-0.642969676729066,-0.6308816076944552,0.27038321706903384,-0.058946630682039786,-0.17493399768831094,-0.7173225824420678,-0.38641156510811114,-0.961285104664418,0.13856506003957228,-0.5172150476806165,-0.3926575945992687,-0.9517013335932651,0.21913564838975205,-0.5397166997217626,-0.49625912475270456,-0.5296958781780264,-0.29598505237895195,undefined,1497423322436
903d185fccf839df,0.026253065246391184,-0.4841775443118661,1.4555364803026933,1.50095559703966,-0.24485221589539097,-1.911069645308239,1.9230107021785365,-0.5613330961433988,-0.6953957523635985,0.22536875196922812,-0.0639297915339156,0.04387035723157513,-0.8609347147950089,-0.38733739007893137,-0.97602197761121,0.19312139943083784,-0.557180809702058,-0.3941395023069086,-0.9504069239297523,0.3347779737856,-0.5153774079011063,-0.5382777819137232,-0.5705564384089343,-0.3073806065986993,undefined,1497423323932
903d185fccf839df,-0.10680441841477945,-0.43369421063143826,1.4823334426607448,1.4983261769686989,-0.13360211704739827,-1.8836335359988807,1.8696045984439211,-0.8429406887524995,-0.5220644098784649,0.0867056501184493,-0.11279221218946016,0.15667341161105788,-0.07324392825311943,-0.42251910159178824,-1.0065483388811232,0.03551394864351499,-0.6399235004584994,-0.39150499932613664,-0.9730276133778256,0.17238596553776125,-0.5514631660733524,-0.5135455544701089,-0.6280414783935919,-0.36303022440595395,undefined,1497423325446
903d185fccf839df,-0.30639054039030617,-0.42723706026609914,1.4395868453568808,1.420801363379167,-0.031063995678927876,-1.8813811624050374,1.8579229983643832,-0.9037435610950253,-0.44137301738345774,0.08780306856517721,-0.10310288109021142,0.19168137326385007,0.3619443516042781,-0.3753015489012972,-1.031811520198117,0.15877105723020693,-0.7200513572236951,-0.4053614800701236,-0.9940040519701436,0.4289086716737996,-0.5097525303639264,-0.5229376750637158,-0.6764321857431793,-0.48696023301906155,undefined,1497423326947
903d185fccf839df,-0.18857934103114776,-0.3344886174929391,1.4989217237604584,1.4298075212892016,-0.18931973219729578,-1.832350677056221,1.9755726295736258,-0.13651972570496151,-0.5053796331580038,-0.017960009235742962,-0.08308933856008605,0.20297565899195333,-0.5475991532976827,-0.2975315131582469,-1.0381273081651317,0.0819879909115242,-0.763526881863254,-0.3733547806538715,-1.0025261680155455,0.46765115885502867,-0.48822033575138896,-0.4998212927916792,-0.6750130701006974,-0.5242993270845296,undefined,1497423328467
903d185fccf839df,-0.10264630950931272,-0.40669146226186975,1.5186996777123851,1.4802686738046251,-0.40313880152079484,-1.8396015985271321,1.8997947610619683,-0.7103657206827981,-0.5638707070703446,0.00017290047446441464,-0.018957293966335238,0.035414681106852426,-0.843527183600713,-0.2873473219222532,-1.0497062760850657,0.15270920719651776,-0.7516318256291339,-0.37892777012659656,-1.0094110295511722,0.4785224613939561,-0.4933335969592466,-0.49743122848827415,-0.6285531769790927,-0.5190007848362076,undefined,1497423330031
903d185fccf839df,0.047043195708808,-0.4630450482214846,1.7853884510678064,1.9058618824333264,-0.5971270523475314,-1.8517346059404938,1.8557902193751923,-1.046452149199572,-0.615536919603373,-0.05354756156805759,-0.02408719622503495,-0.024296096931065037,-0.8130640040106952,-0.3512298406444797,-1.0233904425805735,0.08804981268049182,-0.8250237232204245,-0.39970615788918634,-0.9990277619043301,0.3902893691617445,-0.523323513339325,-0.47421096544399977,-0.5919368792511208,-0.5467987857044048,undefined,1497423331431
903d185fccf839df,-0.009783418528857312,-0.4947438288920472,2.2683635248734055,2.2302185246095765,-0.6414172670120146,-1.8850171054542737,1.8804130870131794,-0.9506718881637043,-0.47810748957013083,0.136236680812478,0.008937727392058021,-0.03996727830281928,-0.5301916221033868,-0.4317774160538635,-0.9833903956790215,-0.015001185656679319,-0.8623732204546398,-0.4082872956363559,-0.9777854441316747,0.3162690425476358,-0.5350485955310537,-0.47024921763185007,-0.6031486846388011,-0.5520137542564925,undefined,1497423332935
903d185fccf839df,-0.22045764689011008,-0.4518917340291859,1.6463020941548234,1.635305932220478,-0.7302959740451411,-1.9137529297316527,1.9578582498732666,-0.5004762807978799,-0.45883353993960624,0.02844791265078124,0.02968568544877618,0.023907881948777104,-0.5301916221033868,-0.44010994439744217,-0.9518114043083115,-0.24939167449796334,-0.8700627808422279,-0.3815242765526373,-0.9467475912662464,0.06456605254220926,-0.566310466316259,-0.4750177009543918,-0.5802804931383174,-0.5078595919666127,undefined,1497423334439
903d185fccf839df,-0.22184366018832583,-0.5651857017365945,1.7975107835553026,1.8405600202943464,-0.7501165152970669,-1.9275886095749102,1.9730769455628647,-0.43447310770185826,-0.4611797406623272,0.4542396397553429,-0.02175711881467264,-0.12481983655893689,-0.5606548016934046,-0.4660332248912528,-0.9423377260389063,-0.2837420449633158,-0.8402078271188351,-0.42188412802604286,-0.9398347419059924,-0.0568814872176826,-0.6040683552560642,-0.4639097525329105,-0.5840170482654325,-0.5108940796802204,undefined,1497423335938
903d185fccf839df,-0.2745122000259341,-0.4929827838976831,1.3081563640452776,1.347903734249232,-0.7895827331472314,-1.8729469869403066,1.938431891163553,-0.6166428938799764,-0.4841599696591196,0.3432137670713544,-0.13405363736082676,-0.11653824313336347,-0.15157781862745098,-0.580836635039575,-0.9907588579202358,-0.2756596347811733,-0.885779646365344,-0.5382836349315134,-0.9502110128520647,-0.16154472008142903,-0.682906312703047,-0.4474323901355743,-0.6551591476014341,-0.4966102791226241,undefined,1497423337438
903d185fccf839df,-0.4671681519941529,-0.4460215840479721,1.2296809071589272,1.3668693488896855,-0.9142453828158774,-1.782483995319727,1.931504981507657,-0.5801886271582873,-0.4107299855529814,0.06103443032454872,-0.04935885479324073,-0.13235443351186232,-0.36482007575757575,-0.5576908424089997,-1.001285158928204,-0.36052516781144156,-0.8699607519464042,-0.5895614825283458,-0.9637218544836507,-0.22629518353308373,-0.7218692370873006,-0.4540518562490598,-0.6395676675579558,-0.47745527562758827,undefined,1497423338932
903d185fccf839df,-0.5725053696910085,-0.4043434899533612,1.0172229257148637,1.020134706864885,-1.0794233871935077,-1.6888182970831624,1.9283623653210784,-0.49097657878496836,-0.386228958743638,-0.32262794954611174,-0.06881356543293897,-0.13619717140787646,-0.5432472704991087,-0.5771332963039704,-1.0012851736526716,-0.3382984408840244,-0.8742239206595119,-0.6193199842870608,-0.984684299429747,-0.3064132944227609,-0.754288619633702,-0.4788401824622156,-0.6378285148580551,-0.47333602931705543,undefined,1497423340469
903d185fccf839df,-0.46023818901930336,-0.4348682113996887,1.0019106662382051,0.8970248803615221,-1.1098484778529902,-1.6689172752704524,1.8854018508955213,-0.7579089638467579,-0.4265588454384141,-0.26048573013805976,-0.06529525436401787,-0.019153406687316188,-0.691211285650624,-0.5882433384123334,-1.0076009689819199,-0.37264883961409834,-0.851055726873591,-0.6529669136630143,-0.9966068657080235,-0.29802114234111277,-0.7717032078959379,-0.46868309511746553,-0.6177362825957761,-0.4429404334729231,undefined,1497423341938
903d185fccf839df,-0.4671681519941529,-0.41373570069531107,0.6886469765728054,0.702037520940162,-1.104643911074463,-1.7252056691523048,1.8831007671034612,-0.8596918586393889,-0.5152482358603282,-0.17851569636056452,-0.11645755718549768,0.05644005580746468,-0.6650999888591801,-0.6141666707092424,-1.0254957175066348,-0.31809240129630745,-0.806820433717556,-0.6603891245553942,-1.0076898139348172,-0.1873833126442071,-0.7634364110347515,-0.4614147623014819,-0.5540787542575072,-0.3783160547155327,undefined,1497423343433
903d185fccf839df,-0.26758209902944563,-0.3497510366720875,0.6235701279339554,0.5531901206855688,-0.9022213960821116,-1.7954135994668288,1.905885403167882,-0.7798321737066682,-0.5663568940059084,-0.24008277748471468,-0.0906175387062775,0.0871722850239828,-0.6215811608734403,-0.5428774486142575,-1.0128641268481378,-0.13421707501993926,-0.6883756314545979,-0.6235060588840436,-1.002834026660336,-0.07218754278556766,-0.723623900679993,-0.4717832141194931,-0.5021884518549401,-0.35491339124198235,undefined,1497423344931
903d185fccf839df,-0.23015973997762035,-0.3051377799028927,0.7715888903452721,0.7654915281822982,-0.7361073898670932,-1.7966248050307352,1.9056907956165285,-0.7182539518169679,-0.625048672986758,-0.16180839526460059,-0.1094965199358448,0.019878689787275316,-0.8913978943850268,-0.5632458440370194,-1.0128641342103717,-0.03722785605465343,-0.6591252659401142,-0.611511461311177,-0.978044325277723,-0.004280397573167793,-0.6977304022161482,-0.4747134276451988,-0.5315630859143259,-0.363164855030375,undefined,1497423346444
903d185fccf839df,-0.24540588625799362,-0.2716779250099736,0.8596343823360595,0.8339248657499487,-0.7684661914497767,-1.7927769024612146,1.9318757733208134,-0.5196318814050703,-0.6001419032560185,-0.3728702465403712,-0.14406438931484342,0.03754461759951458,-0.9349167223707665,-0.596575840854363,-0.9833904104034891,0.09411162031709869,-0.6985138875654368,-0.6207322281802529,-0.9705297498639875,0.08275161560460041,-0.6879962927248863,-0.4734343336649505,-0.5309953897195806,-0.3395757833109585,undefined,1497423347939
903d185fccf839df,-0.3881653594904453,-0.32685733483338403,1.1212190691992614,1.1116343940974218,-0.8686180204465463,-1.7826097730070716,1.922705628216405,-0.5991513018027791,-0.5139979149767625,-0.35466116728157643,-0.09626788455507114,0.01888027033179067,-0.852230949197861,-0.5400999478002476,-0.9602324966503225,0.07794674342337066,-0.6924483036136252,-0.5761229726564805,-0.9706207079343706,0.0584220742630705,-0.6731238744484633,-0.48734410496542674,-0.5230905769829872,-0.33342310643341094,undefined,1497423349478
903d185fccf839df,-0.2842142241026249,-0.4342811964015673,1.2073501475500423,1.1350810829796494,-0.753891360532732,-1.8223442644616417,1.8690023566903973,-0.9650562860276458,-0.5190991267685103,-0.2596511664031147,-0.12198648630734843,0.009249780099251693,-0.8304715352049912,-0.523434955866963,-0.9697061749197277,-0.053392761213102984,-0.7506310389411567,-0.5751856970088366,-0.9629801905671462,0.05740577602895244,-0.6700165512416634,-0.5023983086706363,-0.5941940361104983,-0.33781556661048406,undefined,1497423350960
903d185fccf839df,-0.08462817113791768,-0.4524786613433303,1.1952280691994956,1.2384916837422295,-0.6535852485410264,-1.825644796608668,1.8873820735244935,-0.8380112585297376,-0.5294942916883372,-0.21301285081838744,-0.08756929405625313,0.0021000577229645556,-0.7738970588235294,-0.5104732897185086,-0.9465482390798599,-0.07763999175953042,-0.7705299539412903,-0.5429510138016448,-0.9528628024493141,0.042885041690395594,-0.6529510202431383,-0.5031558360179804,-0.6101673576872515,-0.3565812898209168,undefined,1497423352454
903d185fccf839df,0.006848810060551184,-0.4677411974344481,1.1441872042773,1.0482359697793187,-0.6131933157888348,-1.8211586834325777,1.9236812973479183,-0.5735012704257154,-0.5599389020365237,-0.11646872804542908,-0.20022612846346188,0.0038559895358469035,-0.6302849264705882,-0.5530616398502511,-0.9181271748227092,-0.05137211627048506,-0.797817292057035,-0.5697203691676503,-0.9575296758974127,-0.03324487425190896,-0.6769123554842426,-0.5125325466799292,-0.6001236427742381,-0.3481727737205344,undefined,1497423353946
903d185fccf839df,-0.16085897155060352,-0.39906026728629174,0.9993586229920952,1.0721456297429686,-0.6443281210783712,-1.8318033079203213,1.8747248394054228,-0.9130797617792148,-0.6410599327615708,-0.23432043302473696,-0.1964028035230961,0.0114844930663215,-0.5998217468805704,-0.4901049331480703,-0.9044429430200648,-0.0554133213615563,-0.8039263765230689,-0.5407978144960612,-0.9477551311944507,0.008608100013379196,-0.6473906630657318,-0.51385894673968,-0.6264188745471494,-0.35916631454738474,undefined,1497423355435
903d185fccf839df,-0.18580721091848706,-0.3538600685889564,1.208626677446996,1.1832594214903003,-0.6551486685873359,-1.8426133068440886,1.910684805488015,-0.6715833977077564,-0.6862061134962532,-0.09146596683589102,-0.3047699065567423,0.01939242263676748,-0.8348234180035651,-0.4447391210546416,-0.9065482069027753,-0.0008569254408476836,-0.7623282427413408,-0.5402721793348012,-0.9421716767877389,0.08544634493085626,-0.6284940020448312,-0.47752141862593167,-0.6365520469843063,-0.36710359643933743,undefined,1497423356934
903d185fccf839df,-0.23570379317048334,-0.4119746703149431,1.432568599361604,1.354759046017514,-0.739182815940288,-1.8568170052107638,1.9650008186022474,-0.35745251118911675,-0.6255788785477151,-0.1696989923167112,-0.3146508727820121,-0.033313045902966264,-0.9131573083778967,-0.42899987638753,-0.8676008121887214,0.10017348448314861,-0.7127930731756539,-0.5448002340641365,-0.9277372554230866,-0.00846877244596513,-0.6386916273960396,-0.46118498355916726,-0.5871056438398572,-0.37618003940107503,undefined,1497423358439
903d185fccf839df,-0.19135136762757926,-0.48828666391271197,2.1114126111007043,1.8735921504620696,-0.6821383406970798,-1.8780992625684936,1.923510354885172,-0.628605320486494,-0.5566128693800392,-0.23828269486102926,-0.39190825825425185,-0.0465457253591403,-0.8217677696078431,-0.37159821016569256,-0.8549692288924582,0.035513962775875756,-0.6027753579213798,-0.4821547552073751,-0.9313056294534399,-0.010917128462492109,-0.6091862715949999,-0.4464031101325152,-0.5421497352238677,-0.38559642744692557,undefined,1497423359937
903d185fccf839df,-0.3174785777652127,-0.427237045652103,1.797511037692252,1.6945812882634665,-0.7259965544215142,-1.8526313595873083,1.9332879798758347,-0.5472943219798293,-0.4851855334521429,-0.6143808296677535,-0.32698016732839136,-0.019782029498932704,-0.7521376448306596,-0.4030765311398466,-0.8949692684317765,0.0961322228626343,-0.5977681727356186,-0.47255401178409573,-0.9397157958886404,0.10449422142288262,-0.5916420838560171,-0.43457061161416466,-0.5503803158821876,-0.3687192875890023,undefined,1497423361430
903d185fccf839df,-0.21768558578826883,-0.37323157814095836,1.4172563398849454,1.4672489574646324,-0.7663267669859108,-1.8222091681167645,1.864455428073036,-0.9523399923381083,-0.5096338615447582,-0.7896200662813668,-0.3285644947633739,-0.04209579936198111,-0.8913978943850268,-0.4178898860822652,-0.8749692376187667,0.1203795099385048,-0.5592387671627838,-0.476151124379741,-0.9300392061953964,0.18482790871793361,-0.574281581706547,-0.41613237212857745,-0.5784599558324235,-0.32795970177844613,undefined,1497423362969
903d185fccf839df,-0.29946040488840797,-0.40962661032245756,1.2890155314255554,1.2931303560537561,-0.9246647844553819,-1.8415045862632133,1.8712876747556977,-1.0077508882454336,-0.47547848452799435,-0.48307402950584255,-0.1604527608138816,0.019697948140079326,-0.8174158868092692,-0.44103578231903695,-0.824442867622545,0.1446267404849322,-0.5818846993863359,-0.48197743302802154,-0.902639695065362,0.1333663023536554,-0.5764734315807752,-0.4532996528977683,-0.5869614282516193,-0.3021786124494278,undefined,1497423364440
903d185fccf839df,-0.4339039018477943,-0.35444708358707777,1.0618836825217848,1.0712037594725716,-1.0302371802345818,-1.8542758039855063,1.959717526159673,-0.46591864983357145,-0.5514179315817174,-0.4010525854910886,-0.1523080298587616,-0.010614204495340394,-0.865286597593583,-0.49751166242237777,-0.8191797023940934,0.10421471783894139,-0.6606020935007964,-0.4613763670627555,-0.9011073943152902,0.15289153047950652,-0.5630563665266303,-0.4632732634099262,-0.6080088282201923,-0.31815043899425327,undefined,1497423365953
903d185fccf839df,-0.5433989524068388,-0.36677441316162307,1.4166179478679939,1.3372861004914582,-1.0996553495372035,-1.849286571575759,1.9888084445477001,-0.27156819170660446,-0.5187924216267678,-0.5990238046917554,-0.14390110149565397,-0.0004875961105994472,-0.7434338792335116,-0.5382483367109308,-0.8149691378175034,0.13654433030278976,-0.7040489255421095,-0.47133175373187236,-0.8671028930447959,0.18561322675669462,-0.5583870779358154,-0.43988788176796245,-0.6137218654739169,-0.3227222580824313,undefined,1497423367442
903d185fccf839df,-0.2384757507560954,-0.36442644085311454,1.6220576833167806,1.5834297848873697,-0.9473344646011754,-1.8043881568091742,1.8921472889233597,-0.7977384629154266,-0.5952317162457651,-1.0518255790254276,-0.1862419541613458,-0.21616148492580736,-0.7390819964349377,-0.49843742263932533,-0.8539165472560248,0.1648328224697315,-0.7557792756083027,-0.4477415378747241,-0.871279988428593,0.21289927312411216,-0.5458820087644694,-0.462155051661886,-0.5989234625852642,-0.31897962333627566,undefined,1497423368933
903d185fccf839df,-0.05690793967901236,-0.46598003552811457,1.6099353508292844,1.5778177761850198,-0.7924215801944592,-1.8204971763978175,1.930902748134308,-0.5350652429774256,-0.6037876919150557,-1.1113978805285176,-0.18594958450566196,-0.18975761658008955,0.3445368204099822,-0.4734399800671094,-0.861284980048304,0.15472982387441417,-0.7657520917860593,-0.43062992412485096,-0.8608057633230741,0.15007361361660532,-0.5483947594662856,-0.45504812022202784,-0.5568736739280661,-0.324019200092835,undefined,1497423371682
903d185fccf839df,0.03179698041761526,-0.5751650005466467,1.6099353508292844,1.4590957876580484,-0.6967234567570187,-1.8334989907330237,1.902137927470817,-0.7194141454973788,-0.6017142797265022,-1.1006821264322888,-0.16272970447671342,-0.2259605458946998,-0.2212079434046346,-0.47714330585193954,-0.8591797051222427,0.10623513666378702,-0.7509362555853385,-0.40766666980803445,-0.8667950337821823,0.07696179761280725,-0.5508750791412033,-0.4622858950218118,-0.5513818733510327,-0.3578575588274695,undefined,1497423372798
903d185fccf839df,-0.05690783616278316,-0.6009936604639877,1.3496266855891375,1.249284939231709,-0.5944424859346249,-1.8869690078218913,1.8472433602133866,-1.1430173271133914,-0.5874053040660256,-0.824229491925024,-0.06739653182207439,-0.08283396287264534,-0.9349167223707665,-0.3169740188563158,-0.8360217913690763,0.12442074329429757,-0.686659041714497,-0.34326063274737495,-0.8637094398368952,0.1263600121930468,-0.5086922312085856,-0.45684354252205117,-0.5236697422248104,-0.3656738378197913,undefined,1497423374292
903d185fccf839df,-0.07631209134862316,-0.6262353199972035,1.1671553393553387,1.11361260746166,-0.6142115987033585,-1.9194083224801286,1.876907575232727,-0.9828053082305107,-0.5639000477485817,-0.5251719240044403,-0.06184504841645701,-0.005943929063670829,-0.9175091911764707,-0.3132706801207112,-0.8476007445645426,0.03551389211407192,-0.6572413751107588,-0.31626962851069684,-0.8755900243568205,0.22281587278579693,-0.48501195303497163,-0.4429597888079527,-0.5556636321205004,-0.3300772523048686,undefined,1497423375804
903d185fccf839df,-0.05690787066819289,-0.6227132592364676,1.4102378397527193,1.3760589014725273,-0.4456084575219993,-1.9470307695859572,1.906450809865044,-0.7760340087394363,-0.5568029859378586,-0.3337551537131874,-0.04291465177452843,0.10151606656473983,-0.669451871657754,-0.31697404475786495,-0.8612850168594729,0.041575770412482616,-0.6541789586140377,-0.3035214130043767,-0.8828387202843656,0.24123241301452575,-0.47962079610185,-0.4446385770148926,-0.5400906960243482,-0.30652058686292427,undefined,1497423377311
903d185fccf839df,-0.004239365335994304,-0.5957105108668991,1.4261882371093801,1.5294897350589634,-0.4825855384413108,-1.9398357491423048,1.9234340994886618,-0.6743316407319745,-0.5245645277776494,-0.12442721340484923,-0.07104391024200138,0.05767604020414457,-0.4475058489304813,-0.2901248097854885,-0.864442885075162,0.057740732100375246,-0.6715891191639287,-0.31566166665958045,-0.9007715468916107,0.2170106574524667,-0.49451849115568824,-0.4339046168141871,-0.5008855807109578,-0.33791894794627064,undefined,1497423378796
903d185fccf839df,-0.007011391932425808,-0.4624579747673786,1.4210838964802113,1.46127224968102,-0.29959270330014337,-1.839112457966562,1.9261953863165986,-0.44771949264799965,-0.5773576992998628,-0.07769185556145022,-0.14434040529821004,0.0001946789001188836,-0.7303782308377896,-0.2780889686078543,-0.8360218134557776,0.06784370243097103,-0.632419417729936,-0.34754803748836227,-0.8832865159663759,0.18818476854630464,-0.5070223091950696,-0.4466159423000171,-0.5184375239875602,-0.32311902957074834,undefined,1497423380266
903d185fccf839df,0.10248386565907704,-0.35209909666457306,1.6730988023759257,1.6390546506136021,-0.21162941853819933,-1.7970720199853099,1.9442437473905148,-0.25489002732150984,-0.5836207416653629,-0.22280142758299024,-0.21639228171868352,0.004351212698790764,-0.5432472704991087,-0.20309642072803932,-0.7876006852555651,0.043596500149265145,-0.5624837613125386,-0.3202720481064553,-0.883769295653833,0.2864576469940985,-0.4776832233955521,-0.43703177613406746,-0.3875858972229319,-0.2547623262278833,undefined,1497423381764
903d185fccf839df,0.13852007339104766,-0.3755797258174209,1.715207515936737,1.617139825981707,-0.30734811950331437,-1.7836952002385238,1.8563398472515724,-0.8252480097957221,-0.6247203315687849,-0.48229072822039365,-0.18424654667155307,-0.061435636794776066,-0.6825075200534759,-0.25586896209577553,-0.8465481218259796,0.07390552419993866,-0.6088996925670043,-0.32993611929443545,-0.9011563711350383,0.30886238553577694,-0.4874886897022243,-0.42656239815164826,-0.35705476657908053,-0.2795761320631431,undefined,1497423383258
903d185fccf839df,-0.051363817475329886,-0.4542397940216715,1.7356236077686658,1.6439833160872335,-0.435806189646704,-1.859674983780567,1.8644738382685646,-0.9390954506325446,-0.5030078622265949,-0.7086166444954951,-0.20062218211964047,-0.037549989631430365,-0.7477857620320856,-0.26883064119500455,-0.9086534891910704,0.21130686473774069,-0.5848655137732938,-0.35363399345558627,-0.9003587350376525,0.3230443556361431,-0.4976978988303544,-0.45673575161756147,-0.3573565299544339,-0.2529764970019017,undefined,1497423384776
903d185fccf839df,-0.1885792720203283,-0.5452272064144635,1.76561049711588,1.6421001598933609,-0.6329418536005637,-1.8661572555657158,1.905522478767159,-0.7314375669358614,-0.47037766435364026,-1.0164022161646977,-0.18332329791738494,0.027806939278176606,-0.7913045900178254,-0.25401731215413503,-0.9223377173125978,0.07794675755573142,-0.5491115587432691,-0.3145723970859726,-0.8941525631783337,0.3413069138470869,-0.4772199295304077,-0.43931552883744557,-0.3700589256248244,-0.2737985299707696,undefined,1497423386263
903d185fccf839df,-0.25926601924015114,-0.5141153822860377,1.793044580806136,1.7991412693178177,-0.5721533810344152,-1.8675780919914686,1.9216247837066944,-0.6128983692826891,-0.48053575149471245,-0.9346180988651149,-0.16985761794438775,-0.05430754171835341,-0.9044535427807487,-0.26975647911659933,-0.9118113574067593,0.09613219459791277,-0.586623706901833,-0.29792308932080913,-0.9060821260411556,0.36711470679958613,-0.4672725391661021,-0.4201569748241788,-0.4278933047465668,-0.22341443511896208,undefined,1497423387764
903d185fccf839df,-0.20659744489713308,-0.6655653979413173,2.0259189082190776,1.9690114110066417,-0.443685024867902,-1.921527929747065,1.9180587649723815,-0.6642876852007538,-0.49796570814915847,-0.7712930278127703,-0.10003037556249166,-0.024779584551240637,-0.9044535427807487,-0.2891989977654428,-0.9212850945740348,0.0536994422151394,-0.605935413567993,-0.20233363610884494,-0.8494009613983443,0.36147887385459715,-0.39372973659870714,-0.483006100539999,-0.5945355740170449,-0.172622547820979,undefined,1497423389303
903d185fccf839df,-0.29253033839732917,-0.731898165799015,2.378101384456126,2.285794989937379,-0.38778226408650873,-1.9737052171886025,1.891729145982553,-0.9333234521381032,-0.3713882216605196,0.016918962342162853,0.09070869898672128,-0.08100827207028401,-0.678155637254902,-0.26975646616582477,-0.9170745299974449,0.06380261039878594,-0.5918575069092237,-0.13624937021942643,-0.8374504081090096,0.20242833137839591,-0.3790486635675169,-0.4682579792161445,-0.6777754418892955,-0.24519146701814126,undefined,1497423390772
903d185fccf839df,-0.06799611507555785,-0.8181894143648474,1.9742399054168798,2.0591169331003525,-0.07945820681263314,-2.0229150539490397,1.8915923909648344,-0.9282940312990067,-0.30271560719194335,0.4353275730235193,0.2246911216896784,-0.0688364619964649,-0.8174158868092692,-0.21513232665954626,-0.9528640712202773,-0.004898158796640457,-0.49382409488012513,-0.13087903501635445,-0.7997935724845661,0.167951208093166,-0.3715571585119211,-0.4614574099839416,-0.591124981133009,-0.25703592600949754,undefined,1497423392270
903d185fccf839df,-0.0984884076363044,-0.7794464098748397,1.5761209048868046,1.5692680121136169,0.09353692758230323,-1.9759389572111914,1.9504527076068126,-0.4688944349998532,-0.32243688480634464,0.5324956018612076,0.19143783653036323,-0.013007488459643748,-0.9392686051693405,-0.1743956135186697,-0.8823376556865782,-0.03318667922830373,-0.42613985343018085,-0.1535636388313759,-0.7959313329051084,0.11397965680393181,-0.3889054120187081,-0.4798680576136851,-0.5361120111426854,-0.21797055522101005,undefined,1497423393761
903d185fccf839df,-0.17333326376159397,-0.7424644357651999,1.0650736095109474,1.1718008472740342,0.15876881958063033,-1.966957410567865,1.8977224659811587,-0.7860226730607363,-0.33656744538729727,0.12888044785444705,0.18603776630625557,-0.0725045915503667,-0.7564895276292335,-0.1521756070065909,-0.8476007740134778,-0.12209344561436478,-0.3987305313973133,-0.16661583717894052,-0.7598487793119573,0.11464179083317233,-0.3828367514519926,-0.43861031460484895,-0.5027954486157348,-0.10601531964280982,undefined,1497423395346
903d185fccf839df,-0.19273731191497556,-0.6602822191162363,-0.07888066503708467,-0.09539363951990547,0.1044089133430039,-1.944347485173416,1.9229475711825819,-0.6440889008646177,-0.37403004409734364,-0.0714164989602887,0.16140560940220972,-0.05397640255888278,-0.8043602384135473,-0.28086652122496236,-0.8886534289291254,-0.12209341734964324,-0.5002609524759293,-0.3731204647774376,-0.8373944339706686,0.05874543596327254,-0.5183919659096415,-0.3534890742074656,-0.45546247031903425,-0.15828383692809558,undefined,1497423396754
903d185fccf839df,0.00407671445330021,-0.6279963796055639,-0.15544196242037808,-0.10512507874254803,-0.09945359796640289,-1.9360996486286612,1.916691260886155,-0.7010528502687824,-0.43216154889298714,-0.10884202548861838,0.1615069899026626,-0.029235096325317674,-0.9566761363636364,-0.451219934702707,-0.9002324336602282,-0.057433966304174223,-0.48943528908571254,-0.4751188560995192,-0.8923124018871823,0.29860702041083154,-0.5336761679208526,-0.3265826203028644,-0.5140305930556431,-0.25648244444168966,undefined,1497423398254
903d185fccf839df,-0.32025074238328316,-0.5951234958687777,-0.07888066503708467,-0.027862623818859265,-0.25644419360300136,-1.9012751939735653,1.9268475749567782,-0.6224969426184411,-0.43032534596622596,-0.008622080542824772,0.11897532916553791,0.12596565515160382,-0.9131573083778967,-0.547506651173006,-0.8928639935057153,0.17291537397548165,-0.6156802864704841,-0.5579220950800591,-0.9075234687208444,0.32997365712356985,-0.5650483325387534,-0.321968884009257,-0.6574652239111326,-0.3131117291340601,undefined,1497423399750
903d185fccf839df,-0.3451989817511667,-0.45071770403294314,0.469809141150417,0.5740172439085803,-0.4782861068165579,-1.8167238096857707,1.8907692755747358,-0.7648709638398062,-0.4387991371668942,0.30393708414303117,-0.000017145375266450424,0.058104050621320236,-0.5127840909090909,-0.5826883497350883,-0.9444430083272014,0.08198797677916343,-0.6846588686343072,-0.6294083640911294,-0.9447674931703236,0.19993378376805218,-0.638263847785437,-0.3138007138139935,-0.6325860062606734,-0.39489882274259125,undefined,1497423401304
903d185fccf839df,-0.2897583808117172,-0.21708547172869994,0.9298153174671291,1.0555630418004225,-0.5439397112151554,-1.7399334519886125,1.945719074990033,-0.3274342846420579,-0.3404112494391662,0.2756848525920102,-0.004406578064962121,0.01979117071278167,-0.6825075200534759,-0.5984275296483271,-0.9949693562367217,0.03753459358613291,-0.756736671589724,-0.6180977275470273,-0.9629941859200278,0.1549087308582006,-0.6481256516963448,-0.31492145342830946,-0.6448126798935074,-0.47248983006777495,undefined,1497423402763
903d185fccf839df,-0.43390383283697487,-0.12433704356953604,0.770950244191371,0.8423729409201287,-0.8672500235266348,-1.6009384322367544,1.9155683573288969,-0.3651221350775813,-0.32336288025833826,-0.10626162520635446,-0.10817476012174036,-0.09601458242146814,-0.678155637254902,-0.5743558343422842,-0.9549693314218709,0.18705959179423096,-0.7715976947623856,-0.6589642128480876,-0.9391070730242823,0.01268868842012757,-0.6710858961000417,-0.3498359034843947,-0.7723541295334468,-0.6019879202776205,undefined,1497423404282
903d185fccf839df,-0.57527739628744,-0.21062836520534933,0.49469143573151264,0.6308096318692109,-1.0758748183923703,-1.616847136454429,1.91460320845876,-0.46581279637578504,-0.22890624340494922,-0.32499132786600343,-0.07287899322202115,-0.14991178341026906,-0.35611631016042783,-0.5891691892847027,-0.938127205635719,0.13048257919562598,-0.8556767441805715,-0.6211122087485392,-0.9309907728171798,-0.01254936297975831,-0.6656159454790873,-0.3720464026882316,-0.7287517049181547,-0.5701423030558167,undefined,1497423405764
903d185fccf839df,-0.6196298908411636,-0.3579691881898023,0.13357680813307984,0.18837729297495792,-1.2256757124932602,-1.5883395776430516,1.8696203694082891,-0.7586803073182371,-0.24858376194105675,-0.5769324468972279,-0.06420655094003622,-0.24146869434672927,0.21833221925133692,-0.5863916625691439,-0.9381272129979529,0.07794674342337066,-0.8850329685095154,-0.6222078071410081,-0.9233012777248822,-0.160266648934377,-0.6958538840507221,-0.38928412950175023,-0.6713056407774931,-0.5699610835767209,undefined,1497423407271
903d185fccf839df,-0.8663404304506162,-0.698438237836115,-0.24476347603422038,-0.31524751531522055,-1.3460595107275213,-1.6731960890904054,1.905093819231302,-0.7525605943059751,-0.31047471606343835,-0.6669374484593131,-0.05892373761630505,-0.11683454170757131,-0.0950033422459893,-0.6215733611312262,-1.0044430860417632,0.08602923839967774,-0.9812588704948836,-0.6942640395936805,-0.9563682058424198,-0.15341434168006599,-0.7389358547177125,-0.38091239886984063,-0.7040280050847697,-0.6020656912574023,undefined,1497423408774
903d185fccf839df,-0.7582312896735582,-0.7489216445865237,-0.168202178650927,-0.1719390385317354,-1.2092803136365202,-1.6915248723158804,1.8983168047065075,-0.7972627067559132,-0.40573153408554435,-0.4943492217902943,-0.07589011435539489,-0.15738819179604183,-0.7216744652406417,-0.6363867095982575,-0.9223377025881303,0.1365443585675113,-0.9362869365020015,-0.7146751172541616,-0.9152829334878765,0.27145956605662064,-0.6488431565644202,-0.3962464792714043,-0.5900984740655375,-0.4630644822727342,undefined,1497423410326
903d185fccf839df,-0.8386201127281865,-0.6350405595830205,-0.18287655438453293,-0.20005466043473866,-1.3636686283164887,-1.7461874584418555,1.9504316791305607,-0.5619371685632011,-0.40205325638515566,-0.5260057684911101,-0.08397120323489132,-0.0068276404438704,-0.6041736296791445,-0.6974917534080233,-0.9760219628867424,0.22747176989619025,-0.8670984499849337,-0.752957761950096,-0.9558364497328236,0.5004498484633576,-0.6239586336197237,-0.41385461421573466,-0.5806192739740423,-0.49537736380036523,undefined,1497423411766
903d185fccf839df,-0.6570522153875792,-0.5047230546321185,0.18525606507222703,0.09147961566384162,-1.2977475949586732,-1.7255294367722913,1.933674557842425,-0.5794422782909453,-0.39927549424572734,-0.45398327550336065,-0.1582152339979027,0.03079850575998879,-0.5388953877005348,-0.6558291893947773,-1.0307588900973204,0.1911008392823845,-0.8353376064579099,-0.7300515040488627,-0.9860416824403656,0.46469465832555246,-0.6378630495891426,-0.47108687235122054,-0.5030366493881276,-0.43125321325056165,undefined,1497423413683
903d185fccf839df,-0.647350105047364,-0.3961252507516695,0.18142774606611295,0.060688576894088575,-1.338633238982142,-1.7134523333000542,1.899889440795551,-0.7740730909429772,-0.43963226372444547,-0.5248024429519604,-0.15862942969221555,-0.015346040849839855,-0.6302849264705882,-0.6095375329043665,-1.0181272994388233,0.24969844029416435,-0.8205415658930421,-0.7148017755961894,-0.9707746412297971,0.4901636886957254,-0.6171835916259651,-0.45453713447905847,-0.5332435409060707,-0.43960968565585923,undefined,1497423415310
903d185fccf839df,-0.5461710825194995,-0.2898753607237443,0.45577264915986376,0.36640588394798423,-1.1995500447842713,-1.7020460477343982,1.9222874994171424,-0.5743153714362946,-0.48461961871551285,-0.24930831810197104,-0.10544661176451085,0.15033487847986077,-0.6302849264705882,-0.6456450175849454,-0.95812719963756,0.2173687430361514,-0.8189001325764931,-0.7146561177310462,-0.9351958572857192,0.37396702055619274,-0.6267506801998516,-0.43406086342348693,-0.589296378208749,-0.45423172606360795,undefined,1497423416638
903d185fccf839df,-0.38955132103054646,-0.20182311100553618,0.6344159305244979,0.7299397313805431,-1.1496644141216918,-1.6897290313918492,1.8776465411020766,-0.8244677045112276,-0.5309167899767411,-0.21938344611402144,-0.07841115899960639,0.048840567745732984,-0.7129706996434938,-0.5891691569077664,-0.910758749392664,0.1062352779873947,-0.8054371868292504,-0.6777097236638148,-0.9294584726115263,0.28825927382142824,-0.6228198277844958,-0.43976716607847943,-0.5978063476066001,-0.44569005644772675,undefined,1497423418126
903d185fccf839df,-0.3756911880483889,-0.2112153509754784,0.5680630602625929,0.6151171974627594,-1.126357021875804,-1.697401546003369,1.8810258401241442,-0.8056677100043941,-0.5723302442834095,-0.20708530929916655,-0.08148517575069078,0.02632897707984542,-0.7826008244206774,-0.5780591860286634,-0.9339166410591291,-0.04733093944413536,-0.7761078695818822,-0.6475775775471239,-0.9420527321222576,0.20336764412989977,-0.6280376159775077,-0.43226429551571927,-0.5910459742853651,-0.4384754454910158,undefined,1497423419651
903d185fccf839df,-0.3826212545394677,-0.34388088669087363,0.26500754358163237,0.24400231294773259,-1.0536988580440747,-1.6587617956329859,1.8803210548909306,-0.7603383264364715,-0.4110005666649065,-0.3777483561090202,-0.024483725741852792,-0.05656266461422983,-0.6868594028520499,-0.6160183530278192,-0.9570746063479321,0.3325434131759793,-0.6280497879221254,-0.6687992712010311,-0.967101314375651,0.3691935035852157,-0.6049891833081295,-0.4366262507185552,-0.7712899757647319,-0.565914438479963,undefined,1497423421120
903d185fccf839df,2.1912079763948,-0.517637384590789,-0.1599081651695449,-0.19820827947423658,0.36763019242405975,-1.6696975730998649,1.8066444108694661,-0.664266422792738,-0.6651770099704655,-0.8684494078100808,0.027229444456700468,-0.07644083002591019,-0.5780623328877006,-0.5697266576850848,-0.8518112796921975,1.532784293019898,-0.42177466925378393,-0.6157798662854357,-0.9010374256926902,0.7876308588771483,-0.48949818306560516,-0.40902692137870844,-0.6023507925649435,-0.47110734464011456,undefined,1497423422625
903d185fccf839df,1.4857264484839678,-0.7054824178135717,-0.26135201127088337,-0.28597306502123615,1.2140813360956002,-1.6454921182164597,1.7811957833726113,-0.5616003978466843,-0.6042394820928594,-0.8126540420629362,0.08385614137581623,0.005226762264832314,-0.7738970588235294,-0.6697167387925375,-0.8412849713219955,1.5449079365578333,-0.3895112779740202,-0.6735996414731377,-0.885665432557537,0.7571727326266352,-0.5197237648384934,-0.38748359109748803,-0.5392199022569562,-0.5020637822320578,undefined,1497423424142
903d185fccf839df,1.9306372002869605,-0.8293426993291538,-0.21222479757784599,-0.24703137355418725,1.002802834910856,-1.6747287280490721,1.7989916796476908,-0.5703581214843905,-0.4224357148856191,-0.8993624946041382,0.10780260186685615,0.08119015807771272,-0.7216744652406417,-0.6576808587625796,-0.9044429540634155,1.518640061068788,-0.3346331344265215,-0.7372520585905343,-0.9395828577237471,0.7710313314954845,-0.564350007113615,-0.4179530684971693,-0.45055965163684963,-0.4000317994592054,undefined,1497423425628
903d185fccf839df,-0.02502956480923059,-0.7718151710572732,-0.130559413702333,-0.16174337857913335,-0.3438931972479946,-1.617462053705233,1.8774493157937602,-0.6193044423120888,-0.1572529829240592,-0.6205119504479413,0.07285983238732859,0.06462778048683349,-0.6520443404634582,-0.71878591552312,-0.9244429885575423,1.5934025389742958,-0.2988757129974983,-0.7532300764796573,-0.956130314700807,0.6742059042271797,-0.5986554609056294,-0.408688246866533,-0.418130233858111,-0.37428926925261574,undefined,1497423427158
903d185fccf839df,-0.5032046357694014,-0.7988179194268417,-0.17330626514314654,-0.17113551513706693,-0.9838384023144201,-1.6203107140936348,1.8659728419556696,-0.9065712513159018,-0.27736162784894436,-0.5655445042614815,0.09330202852284639,0.05967447193160959,-0.865286597593583,-0.7298959317299338,-0.9391798357365159,0.10421466130949832,-0.6909476500996334,-0.7799804309162344,-0.9696971305563727,0.3073533379224277,-0.7012139452755592,-0.40474519628922,-0.33377562786913917,-0.36983979925330523,undefined,1497423428632
903d185fccf839df,-0.43806190723703187,-0.7600749295508301,-0.11397138673956886,-0.13756062006177966,-1.0850805161535164,-1.5866089521517064,1.875755723410694,-0.8015665026718541,-0.355752086857663,-0.6102713947879883,0.09596827119549783,-0.058934823569797894,-0.8870460115864528,-0.7872976432794823,-1.016022031874996,-0.48782339669504016,-1.0276854878762745,-0.8449121029277606,-1.0058566492771477,-0.4661105761445045,-0.9032403377930467,-0.42342887359857484,-0.5537355894688059,-0.4059366474177124,undefined,1497423430134
903d185fccf839df,-0.45192210923000886,-0.6814148028905948,-0.1146092704826216,-0.1386055475142339,-1.1289284451411623,-1.5796282216979758,1.8857542466546935,-0.7153134618376339,-0.31999654349237533,-0.7293997532871966,0.07299032341178338,-0.09088438281141255,-0.4083389037433155,-0.8335893127206676,-1.0949694918961863,-0.49792645181980055,-1.046099499857826,-0.8511437191187479,-1.066917818073177,-0.4372384901922902,-0.9224780929255354,-0.4573342092713353,-0.6372957079338512,-0.4582132217258971,undefined,1497423431642
903d185fccf839df,0.011006780944378972,-0.5728169697821535,-0.009975497392120593,-0.044902223222761585,-0.538118014737478,-1.5830848136268876,1.844684569823433,-0.7920614447167248,-0.32107130294266556,-0.7240907943695652,0.05695667036236353,-0.033353569728718446,-0.4823209113190731,-0.8113693191593634,-0.9802324832899296,-0.31203052299789674,-0.9428806214970717,-0.8182630752301387,-0.9781282882255385,-0.28522503572341423,-0.8550018915804541,-0.43105603123559494,-0.6245286530178994,-0.3665398816430173,undefined,1497423433120
903d185fccf839df,-0.13729671097552598,-0.47772042317451935,0.41749200046821705,0.2912970908635768,-0.4212416404556633,-1.604029334341006,1.848884360193506,-0.7530276521296168,-0.2939205798001503,-0.5333869781068697,0.026317705176095652,0.0751457194486948,-0.36917195855614976,-0.7623001035764573,-0.9707588197449921,-0.27565962064881255,-0.8798037596290573,-0.7916837105829048,-0.9630011829694699,-0.20199643886704932,-0.8198924771366867,-0.4312581412226395,-0.627819338306686,-0.37901061232005717,undefined,1497423434635
903d185fccf839df,-0.3077765536885219,-0.40493050495148264,0.6733349712330962,0.738354957807088,-0.6744754997402898,-1.5600206886774848,1.8297604063603932,-0.839619075854419,-0.31512696328397,-0.46938719959140035,0.0671658660066414,0.08592813729371725,-0.21250417780748662,-0.7613742850810242,-0.9223377025881303,-0.14027882612710305,-0.8525389496821626,-0.8039316236549807,-0.9156327732915459,-0.09634770553512757,-0.7882433403063086,-0.43216533098009385,-0.6303431474731895,-0.32477041867027556,undefined,1497423436133
903d185fccf839df,0.25217340538260746,-0.4900476796790838,0.5897551737175767,0.5392115148337964,-0.3740097155719522,-1.5914887084531044,1.8667091816878811,-0.5443997687590086,-0.46127515591229984,-0.1382651139965696,0.05293675835568609,-0.011470651134774787,-0.6563962232620321,-0.7178600905522997,-0.8886534510158267,0.10219401636688039,-0.706199330718,-0.7865603586994248,-0.8272490587683734,0.4081053650908626,-0.6543655542822697,-0.4237083007057601,-0.5871634781854613,-0.07937140068371447,undefined,1497423437623
903d185fccf839df,0.8952840243250431,-0.5340738629941725,0.3460347895771432,0.30628618783769657,0.34055822594771856,-1.6464610821949877,1.8698754713432417,-0.43659820786521525,-0.4641663546087594,-0.4117108041126343,0.12429954628693698,-0.0007106381852498415,-0.7434338792335116,-0.7567451148992121,-0.891811348680451,0.05572005889303579,-0.7295480703928245,-0.8034756516160853,-0.8266473330329792,0.3613094897834671,-0.6744776122267291,-0.41071508621808267,-0.5683865880447024,-0.08183918824384123,undefined,1497423439164
903d185fccf839df,0.18564473256284164,-0.5258556530204731,0.16930541357861678,0.23956546232216827,0.6116789172014969,-1.626990972183137,1.8182234507089654,-0.6751152197621191,-0.3846129826068852,-0.23048195804563112,0.07827528759752822,-0.017121609041461656,-0.8826941287878788,-0.7882234682503025,-0.9318114029442368,0.003184251385502018,-0.762684142543851,-0.8331391600335292,-0.8846858785576716,0.311649502478766,-0.7110825012506828,-0.42563607115801183,-0.5698039818131205,-0.10473869050112963,undefined,1497423440629
903d185fccf839df,0.28682377234341105,-0.6109729446600436,-0.23391792758062738,-0.14576888311290154,-0.24416307242135196,-1.5404038332583698,1.7850431853161641,-1.0409867057649282,-0.4386372290035375,-0.7102135397124879,0.12842841943222558,-0.0009487187405381231,-0.843527183600713,-0.8159984958165628,-0.9265482598024866,0.8841693072109192,-0.4890625625778301,-0.8660451351764011,-0.8962935872209582,0.8369366698474313,-0.6077820311931421,-0.42856859331331193,-0.5979145830920235,-0.10226893292423138,undefined,1497423442130
903d185fccf839df,0.32424613139523634,-0.5781000463092613,-0.3532255681308355,-0.460023039902401,-0.018906307911055083,-1.4987407309458656,1.7637838384032236,-0.9401978744987235,-0.5759852502491438,-0.9029860257673371,0.11595810317405184,-0.02334872152051475,-0.8130640040106952,-0.7743359641802533,-0.9212850798495673,0.7649534037152985,-0.5459002608681787,-0.8343170873582041,-0.88947869376963,1.3476569085508738,-0.4842401129481347,-0.44581523898265396,-0.5998778671120079,-0.20518947734478216,undefined,1497423443637
903d185fccf839df,0.8980561889431136,-0.6385625911157642,-0.40873212752829907,-0.4823624078685685,0.12109230758374451,-1.5485934374586159,1.7549398035936126,-1.0339063846407786,-0.6516406868305163,-0.7698887040319319,0.113111319340251,-0.010533608494531195,-0.8826941287878788,-0.8289601619650172,-0.9002324189357607,1.0013645374992004,-0.5883049623516949,-0.8726313966894754,-0.9101262817980816,1.0132488700189395,-0.5646787033597841,-0.4580965171060485,-0.6063145444817948,-0.3258433821411285,undefined,1497423445700
903d185fccf839df,0.9216186220452397,-0.590427419725795,-0.3436552788894491,-0.3485373980339234,0.23843154063691627,-1.623168690067144,1.7925065759261658,-0.8849992150749869,-0.45372559795256173,-0.4971507267794351,0.16169252677187668,0.03472387060977585,-0.8304715352049912,-0.7595226221886092,-0.9054955915264461,1.0296530579308638,-0.6155679119315263,-0.7920256886057874,-0.948657719204187,0.7781146111774002,-0.5809342927951523,-0.47779727672752087,-0.7512583146057948,-0.5017697913954821,undefined,1497423446632
903d185fccf839df,0.7428225615213103,-0.5235075930279876,0.17568577583084063,0.18604915904285885,0.29769773309816777,-1.738139936303123,1.8231175191448972,-0.8458920760817558,-0.24245289975800244,0.12351490208935413,0.16744258226170805,-0.026129374572769738,-0.7390819964349377,-0.7095275686841083,-0.91707455944638,1.029653114460307,-0.6471619406722767,-0.7433316837955274,-0.9300112178018821,1.076367101632328,-0.48300095282937094,-0.4765606005676107,-0.8697196689657674,-0.5101701178161708,undefined,1497423448117
903d185fccf839df,-0.24540588625799362,-0.4460215255919874,0.43025221669876595,0.34778406238783505,-0.6113933136057481,-1.8137190912052723,1.9172593073382378,-0.6909405775409253,-0.2792415181729201,0.35792332355432704,0.1337835731058269,0.02139540147630201,-0.865286597593583,-0.6863817242504348,-0.8665481600012233,1.2943527121464289,-0.6453587904487396,-0.7300008372494206,-0.9050885774469238,1.5481446714924787,-0.35481531157938984,-0.48976911632085124,-0.9532770907479023,-0.4232541475793584,undefined,1497423449610
903d185fccf839df,-0.32718080887436196,-0.4982659481087679,-0.05399862459293844,-0.009388321457277889,-0.6596229441603824,-1.8371419210301254,1.9157918864332195,-0.7458415329465939,-0.2632914402428706,0.1232180544985837,0.10390994532430696,-0.10691890889978135,-0.6520443404634582,-0.7215634098617425,-0.8802323954849846,1.2014047406692967,-0.6536833074486962,-0.7179682444949159,-0.8938307092907687,1.6650034728131264,-0.3210613515868109,-0.48496575988239526,-0.9347449702590552,-0.41824336847833266,undefined,1497423451153
903d185fccf839df,-0.572505300680189,-0.5910144347239165,-0.13119729744538575,-0.18489541009442076,-1.1719226587339535,-1.7476339185308283,1.9245885821616808,-0.7003858614565222,-0.4258312859228624,-0.5119272509634256,0.05061554000385682,-0.03915169498547205,-0.5780623328877006,-0.7400800970643785,-0.8802324102094522,1.0357148796998314,-0.597608748737885,-0.7529070946855739,-0.893026075954312,1.0347605006767682,-0.47577424438278315,-0.46152122199111706,-0.8042890509851788,-0.29093479774368797,undefined,1497423452630
903d185fccf839df,-0.6944746434502239,-0.4912217096753266,-0.1656501354048172,-0.23680893818785817,-1.197698612787646,-1.6049144438321619,1.882719438792341,-0.7640051597572117,-0.3663716124280105,-0.5406560901196246,0.05457544331260938,-0.09046633618372894,-0.8000083556149733,-0.7317476075731235,-0.9623377494896824,1.1104773576053393,-0.43467131007297866,-0.7653449959517018,-0.9737202961314684,0.9705643817188984,-0.524785965402501,-0.4350884142437995,-0.7640852089766499,-0.135180198535975,undefined,1497423454127
903d185fccf839df,-0.7499152098842637,-0.600406616237874,-0.041237900088490695,-0.05998889758426202,-1.1686518061354756,-1.5697079918904098,1.9114395480831021,-0.5235164011278199,-0.28737478840382313,-0.6826828334015951,0.036158165726709636,0.011961381016922517,-0.8609347147950089,-0.8215534715430334,-1.0149693870497314,0.983179043927576,-0.5094531924248366,-0.8706365194698537,-1.0097608694710656,0.8980531032162442,-0.6116589591410776,-0.4283933529374124,-0.5906358049879109,-0.09319919919110317,undefined,1497423455649
903d185fccf839df,-0.6182438775429479,-0.5728169113261687,-0.10822941650429656,-0.2009870156884893,-0.7726010423354174,-1.624873693343142,1.9097775133415997,-0.5572196225943027,-0.2579319267037499,-0.7241772189574659,0.0016775856365240278,0.006923993946107729,-0.8957497771836007,-0.8261826482002329,-0.9549693166974034,0.9670141952985696,-0.45498099753524424,-0.8786666924458899,-1.0009378903928061,1.0188385092969157,-0.5896985861129707,-0.43253693935304044,-0.5432986828710107,-0.01052257610299783,undefined,1497423457103
903d185fccf839df,-0.7942677044379873,-0.6344536030408838,-0.23965938954200083,-0.29143874912962037,-0.526155744374513,-1.705115984995448,1.9301059161135405,-0.5155977930090088,-0.21453323017950687,-0.7433938719312538,0.004970356840170086,-0.045356289494349396,-0.7913045900178254,-0.7947042883737552,-1.000232532508524,1.1044155075716502,-0.4265709859802335,-0.8783563771980245,-1.0127904885256134,0.7122246666937144,-0.6738502025407752,-0.4333608361954786,-0.5650820459733061,-0.18241713460733597,undefined,1497423458624
903d185fccf839df,-0.4546941013210306,-0.7512696461230246,-0.2402977815589524,-0.27218682720998183,-0.021724596667618605,-1.7147310858059794,1.8941380464790134,-0.6241208387327356,-0.18058260628485784,-0.6900776641345533,0.033380366737669316,-0.04733592590474185,-0.8043602384135473,-0.7956301392461246,-1.0233904499428075,0.9508493184048415,-0.5689549825461614,-0.8633029702817205,-1.0417292985623499,0.8554764050036135,-0.6490064417994555,-0.44442089515091854,-0.5669888226915147,-0.2032252079120678,undefined,1497423460125
903d185fccf839df,-0.08324212333429219,-0.7442254076895832,-0.2556095327617123,-0.2750491715251671,0.33241195507555943,-1.7457588807108348,1.8737018285739553,-0.6650597100770481,-0.12060806038162657,-0.7160412342874376,0.024827306313806176,-0.09443079235269784,-0.8957497771836007,-0.7928526513828892,-0.9854956816484334,0.7972831009733116,-0.6055884031730587,-0.8550891427584664,-1.0087883128448465,0.9109262086711685,-0.623358077825613,-0.43119286542983526,-0.5739476113735832,-0.27024299267692936,undefined,1497423461615
903d185fccf839df,-0.22461561777393785,-0.6955032213014928,-0.045704102837657516,-0.18459529991071377,0.4065718350400423,-1.7769404058271954,1.8738569937872016,-0.6721540343908362,-0.032316005614470136,-0.657241132044387,0.02458167557944904,0.021344203446913824,-0.9523242535650625,-0.7919268005105199,-0.9823377803026923,0.6255314464996001,-0.6072168005619575,-0.8666467647316302,-0.9877978803493901,0.9777400649569218,-0.6080429889522568,-0.4444909877233021,-0.5622517909871789,-0.3045519825992179,undefined,1497423463177
903d185fccf839df,-0.2717402079349124,-0.5910143762679317,-0.07250081105875963,-0.18646926023621674,0.42571351986731953,-1.7824187764168589,1.889688431588786,-0.5586333612308672,-0.03320410691228347,-0.710710125081689,0.02246356063787835,0.0007618597558694917,-0.9392686051693405,-0.7854459674362927,-0.9918114512098636,0.6295726798553929,-0.581889749867503,-0.8682869972658812,-0.9747698182156325,1.0338212030299758,-0.5940612372441988,-0.43968107217921437,-0.5533297323498836,-0.315052533763866,undefined,1497423464741
903d185fccf839df,-0.31470648215796176,-0.5880793012773249,-0.24412559229116765,-0.27062361286719727,-0.03442742165329941,-1.859747188763398,1.9188345753257885,-0.5936203528129569,-0.010117695048824284,-0.7982915384387287,0.011634223091647803,0.06850285803434973,-0.7303782308377896,-0.8197018216013929,-0.9876009308066763,0.9569110553796446,-0.5103940458603518,-0.8874188201429657,-0.9781632716620986,1.175887260609717,-0.5654213437450033,-0.44604862385236055,-0.5700280018230262,-0.31578477403424443,undefined,1497423467129
903d185fccf839df,-0.4408339683388731,-0.6391496645698702,-0.20456866783951663,-0.2658520150976285,-0.20005800387449077,-1.8689267215679215,1.9507314903431996,-0.4619429199065474,-0.057257376832096064,-0.7012898216006768,0.015558508663831962,0.02035660712792916,-0.6520443404634582,-0.8474768297414914,-0.9949693709611892,0.7184794745061754,-0.5932111883707217,-0.9046254279760231,-1.0046811852211435,0.9241072790097875,-0.6318445802993832,-0.45225983526295016,-0.560468875080608,-0.3670456657400097,undefined,1497423467626
903d185fccf839df,-0.597453609058892,-0.5945365247126447,-0.33408549792196157,-0.3700491335779172,-0.2788361519406755,-1.8257472846292406,1.9614085081184287,-0.3888945013599742,-0.0772790811368515,-0.7970822174284228,0.036785961969918936,-0.032863455937957066,-0.6215811608734403,-0.8798810080634021,-1.0707589296366387,-0.24130923605109933,-0.9885806130104394,-0.9183869154008857,-1.0579339125588512,0.309355142225042,-0.7934363201187898,-0.45468105360101563,-0.5953216713773453,-0.5003786637091437,undefined,1497423469128
903d185fccf839df,-0.5420130771302619,-0.6121469746562864,-0.45658306546133215,-0.4174045661849167,-0.11626042764344713,-1.724357830931182,1.8998394761010249,-0.6193337925170088,-0.08753157413165422,-0.7099931668706947,0.017196891923541027,0.02147536954216725,-0.5998217468805704,-0.8789551766171945,-1.0086536064449505,-0.13017591232595033,-0.9270666061770857,-0.9180449363204999,-1.029198010000836,0.38037277273101383,-0.7672606577214591,-0.4384309821814159,-0.5935016594407687,-0.46436364539953423,undefined,1497423470622
903d185fccf839df,-0.32163668667067946,-0.7283761196522751,-0.08781256226151947,-0.09426226284534805,0.06898497844800414,-1.6871645374332842,1.885541214242507,-0.6089801169071799,-0.14513209057222842,-0.49270311146141726,-0.013259452629718492,-0.07255722372765401,-0.7826008244206774,-0.8345151635930369,-0.9876009455311439,0.19514204437345575,-0.7799211772709856,-0.8924915080783867,-1.0296248153419723,0.8204449467559138,-0.6637816506143693,-0.45987237625349686,-0.5745517613721242,-0.416738254402363,undefined,1497423472128
903d185fccf839df,-0.3770773566209485,-0.6485419629957971,-0.2396598978158997,-0.21376245259403642,0.21447616496763952,-1.7058403761945709,1.884715449669791,-0.5948215808323856,-0.1700916884114978,-0.3258204053990401,0.00996620863141799,-0.020426623556474562,-0.9262129567736186,-0.8159984699150137,-1.0012851626093209,0.3931615743362125,-0.7207133270745618,-0.8604974763821258,-1.0260424483138058,1.1537288989587418,-0.5779310649876804,-0.47455122948885464,-0.5330405862847185,-0.47544818888862117,undefined,1497423473630
903d185fccf839df,-0.2592659502293317,-0.623300201164608,0.0397890917700707,0.07279060603772283,0.707798759792967,-1.7942722723370592,1.9252907402102348,-0.2651987396514483,-0.3149270645157222,0.04123374279267504,-0.017531007550645832,0.05175672178495387,-0.9001016599821747,-0.7882234488241406,-0.9612851341133531,0.25778079394686376,-0.8135590139670152,-0.7631727979368929,-0.9654850507634027,1.0832040188012868,-0.5390992073186975,-0.4450212400929886,-0.6268412011901822,-0.6045535984885239,undefined,1497423475127
903d185fccf839df,-0.23431771086144812,-0.49591791734427465,-0.07505234603097057,-0.11524054601265471,0.9641903278963588,-1.8715424550984734,1.9084915462567684,-0.34447552547446253,-0.3083152538470291,-0.029749184222583647,0.03685670535643937,0.03719655465026536,-0.8000083556149733,-0.748412599506408,-0.9728640873088196,0.5507690533882569,-0.691480325200404,-0.7367200915486366,-0.9587471216628313,1.505537185381778,-0.4275633897214943,-0.45115441718068716,-0.6475589763290219,-0.6479703333968583,undefined,1497423476670
903d185fccf839df,-0.007011391932425808,-0.6925680659339069,-0.274750111244485,-0.3318912720130387,0.8929413030605089,-2.007684158460189,1.9322123996868998,-0.29857321845715,-0.2062993800504768,-0.21976681634598247,0.03244521389592741,0.021813978482858636,-0.9392686051693405,-0.7947043142753043,-1.02128518237898,0.39922345263462317,-0.7646257014043236,-0.7359411391053609,-1.0044642839860936,1.4782973333814131,-0.44805177547527064,-0.4487756230305605,-0.6268658777119998,-0.638119514226068,undefined,1497423478119
903d185fccf839df,-0.4782563273906984,-0.9643562950370346,-0.5669593170610043,-0.6275627158753654,0.7044353354590226,-2.0773749959092473,1.8816833004177518,-0.782522216934151,-0.2263048051500702,-0.6057059970788841,0.07646627376470204,0.006383300126525741,-0.9088054255793226,-0.7632259285472776,-1.067601039334248,0.6578612002870562,-0.7303494155531342,-0.7830075763551746,-1.0191226031030536,1.0576579981963048,-0.5668997102469724,-0.42682433713742146,-0.5481107702325289,-0.5643159794900606,undefined,1497423479627
903d185fccf839df,-0.6140857686374811,-0.9596601823590616,-0.7392229985842628,-0.7796721790616975,0.5892766666390842,-2.0998009113497638,1.9185558119685548,-0.6362241288050187,-0.27736974045561635,-0.75737385836779,0.0882299622399884,0.05015482415401226,-0.8565828319964349,-0.756745088997663,-1.0697063142603094,0.36891431552506354,-0.679237999579974,-0.7972883644750368,-1.0556949336533181,0.669263006819896,-0.6710124875406487,-0.4000764723609984,-0.5396133091125779,-0.5033513610901158,undefined,1497423481132
903d185fccf839df,-0.6362621194305721,-0.8399089985233311,-0.7558105172731281,-0.7624404422849878,0.6996524797844281,-2.0402026680034044,1.8997106204451544,-0.7010669986097071,-0.3949115147336008,-0.6738239891953204,0.09049165343843052,0.04067049995370328,-0.852230949197861,-0.7937784634029349,-1.0854958025834305,0.4840889291354484,-0.6102067901895882,-0.8425182479366002,-1.0830664577355917,0.5439196615198525,-0.7211203471594226,-0.397862688995292,-0.5168050292979313,-0.4729005127401107,undefined,1497423483086
903d185fccf839df,-0.6418061726234351,-0.7900126944550209,-0.8629963336097388,-0.9122205173392441,0.34888964043084747,-1.9640132539256938,1.910553311124745,-0.7214598097840734,-0.3922284577241745,-0.6762837241312835,0.09069419627103999,0.016556888487284174,-0.852230949197861,-0.8446993095013198,-1.1297063735692867,0.7871801306427157,-0.48447171824942675,-0.9393869547803343,-1.1564909902129366,0.3976036316103183,-0.8165556758790892,-0.4316714880063454,-0.3777664216046086,-0.3568255430987879,undefined,1497423484112
903d185fccf839df,-0.8968327575167724,-1.040081259022686,-0.9491284285083175,-1.003213871619693,-0.1917368782372206,-1.8623326453181546,1.9142139954510968,-0.8039756033078379,-0.3077209538613552,-0.6777822256116006,0.0870152630011001,0.05105733002288347,-0.7260263480392157,-0.9835744003860635,-1.2023380382612288,-0.3443602767853528,-0.9418169677350842,-1.0579459937025257,-1.2168944589027828,-0.5479995081931931,-1.0880525925347468,-0.43978168102454823,-0.5279093546781612,-0.4383805728730154,undefined,1497423485628
903d185fccf839df,-1.1768075817779933,-1.0817593823452891,-0.9408344150269354,-0.9855946431754832,-0.46267242368545813,-1.8453664667121186,1.8869429052500002,-1.0470519417437716,-0.2895625748393279,-0.6664000009740729,0.08799455901218621,0.02845152904266418,-0.6346368092691622,-1.05949278780632,-1.2549696795023948,-0.7444406265961021,-1.1570764765178307,-1.0956776722653072,-1.2396480880572487,-0.8804673430835385,-1.1822890981783696,-0.43960062735221767,-0.5679445714837215,-0.450020977843775,undefined,1497423488488
903d185fccf839df,-1.1975979192728685,-1.0788243073546822,-0.9408344150269354,-0.9855946431754832,-0.480970679359061,-1.846610280404622,1.8878159979048867,-1.0463765913936156,-0.2877176418081322,-0.6712225046245317,0.08741214871931206,0.026017267923545112,-0.6302849264705882,-1.05949278780632,-1.261285482193877,-0.7444406265961021,-1.1563988934347094,-1.0961716418721437,-1.2423698474454568,-0.8826385241203241,-1.1837009397021538,-0.43910986492943116,-0.5676063503705434,-0.44957895004732057,undefined,1497423488641
903d185fccf839df,-1.1906678527817898,-1.0565177958820542,-0.9070199690844556,-0.9680558184147028,-0.6571646683116845,-1.8542129163129069,1.8937304337510399,-1.0537797320416078,-0.27725725047419797,-0.6891377902770546,0.08600553534545109,0.07519445050085262,0.557779077540107,-1.1354111655134957,-1.3181276585626978,-1.08592334713035,-1.3212592715846256,-1.1761567210601975,-1.2917673318983594,-1.1117673914725552,-1.2737880594061513,-0.4756345635713409,-0.6527128595087713,-0.525695830422128,undefined,1497423491486
903d185fccf839df,-1.1768077197996323,-1.0706061558369675,-0.9159518663088904,-0.9680558184147028,-0.672325786878682,-1.8532579280025416,1.8938619249717443,-1.0547648366102875,-0.276346011076816,-0.6901386756284781,0.08604969154569868,0.08959146508660194,0.557779077540107,-1.1363369969597032,-1.3202329261265253,-1.0899645804861429,-1.3246887530994347,-1.1779299453452339,-1.2932436589872212,-1.1216069980858077,-1.2764209934875637,-0.47617124502316516,-0.6545850353253775,-0.5269815019124727,undefined,1497423491624
903d185fccf839df,-1.230862307440866,-1.072367142375347,-0.8598069148944751,-0.927747715144802,-0.7932547312470737,-1.8844068450845348,1.9193263438596422,-0.938814347138592,-0.2770573983669589,-0.6953044793347105,0.08367406484412371,-0.03122695766836039,-0.03842886586452762,-1.1668895156268926,-1.3233908237911496,-1.1627064523130248,-1.3551150655918258,-1.1978217213694822,-1.2998206610706053,-1.2447483662928365,-1.3134422005205448,-0.47615665000779067,-0.6709267467821171,-0.5281313775188919,undefined,1497423493167
903d185fccf839df,-1.2682846664926914,-1.098782875746794,-0.8974491715691703,-0.9533557189130499,-0.7805724612071855,-1.9106201019892406,1.9445567023828627,-0.7924440633900062,-0.29308951531050914,-0.6910338135278125,0.0902338698687545,0.013119549316095427,-0.6520443404634582,-1.1631861801289816,-1.3286539853384842,-1.118253097384716,-1.352009355438855,-1.1892975792738358,-1.3020036660274263,-1.1476919651833848,-1.2913476997637736,-0.47103133944238446,-0.6500407818480859,-0.5090974990575343,undefined,1497423494662
903d185fccf839df,-1.236406360633729,-1.0893905773208672,-0.8923450850769508,-0.9479706028776965,-0.7777336097928205,-1.9128421958977377,1.9479412641544231,-0.7707198665678817,-0.2958880464643408,-0.6845377369677494,0.08878717692098997,0.0903442140653893,-0.6302849264705882,-1.1650378462590902,-1.3265487251368906,-1.1061294308816945,-1.3512663438118826,-1.1885122942412292,-1.2980714583514361,-1.1373134129256632,-1.2876770039274277,-0.47015851471700343,-0.6495947195331411,-0.50805713714141,undefined,1497423496598
903d185fccf839df,-1.0257321322724764,-1.0224708090790442,-0.8712908553650197,-0.9174521112900523,-0.9573938761727633,-1.8921748555407412,1.9421346497265186,-0.8089430631182497,-0.3407306805396597,-0.6751414760103848,0.08779561159654792,0.012691970447830912,-0.7042669340463459,-1.1446695010205796,-1.3023381665584597,-1.0899645769530526,-1.3175914749872761,-1.1760870587517227,-1.279830772450992,-0.9107868825442214,-1.226060608277548,-0.4676160059303794,-0.6328770642715286,-0.46581119786887837,undefined,1497423497619
903d185fccf839df,-0.9841516643151843,-0.997816179157946,-0.852150276882247,-0.8942512616605852,-1.0312040389050179,-1.8939963203454449,1.9518202226920178,-0.7553604740344468,-0.3280268277911894,-0.7062528211143173,0.08358156235125593,0.0003338816348823697,-0.6085255124777184,-1.1409661622849752,-1.2991802652127187,-1.067737881823447,-1.3024663761043542,-1.1738895272403012,-1.2696993903382658,-0.7964842240023206,-1.1947105422249478,-0.46719277152221605,-0.6303217044504349,-0.4129671015250414,undefined,1497423499771
903d185fccf839df,-0.6917025133375632,-1.0101434941184952,-0.843856263400865,-0.8929517393554207,-1.192946623360552,-1.8859837371098336,1.954886574578151,-0.7473199377479136,-0.33266910819711665,-0.7054496807801295,0.08341916153971313,-0.08765269320925755,-0.5911179812834225,-1.1354111655134957,-1.2739170746929325,-0.7141315106850836,-1.1915813473106216,-1.1706090625150722,-1.2632903113672496,-0.7338125519917584,-1.1776131823021305,-0.46720109284010836,-0.6296444345326547,-0.417769816819936,undefined,1497423500623
903d185fccf839df,-1.0853307040957536,-1.0764763058181812,-0.847684582406979,-0.9062031147631335,-1.5056112422119914,-1.8648715136546137,1.9614637250872302,-0.7241384385451052,-0.31905211022753294,-0.6819345705264387,0.08470221813536802,-0.057670334711860366,-0.5998217468805704,-1.1363369953408564,-1.2718118108102219,-0.766667311126437,-1.2131953838647183,-1.1662456644597659,-1.2592181674920768,-0.6918209913674335,-1.1659826553888206,-0.46797490116277257,-0.6338967993980839,-0.42218369612946327,undefined,1497423502122
903d185fccf839df,-1.2211601798479461,-1.0987828172908094,-0.864273117643642,-0.9228478901483219,-1.6525835675367575,-1.8783228712055282,1.9973421740713408,-0.5238587746819239,-0.2806709282514982,-0.6944808493794812,0.08647449056290567,-0.1502271145583836,-0.8174158868092692,-1.1400403292199206,-1.2876013046550185,-0.8151618994105387,-1.2152137575065634,-1.1707357214329133,-1.265172453646002,-0.7181831299849383,-1.1751589039838632,-0.46786846056378095,-0.6322117116513712,-0.41745670341056235,undefined,1497423503627
903d185fccf839df,-1.2225461931461619,-1.1017178922814161,-0.8578927553914182,-0.9157735478566829,-1.635643023992264,-1.8757630375909617,1.9995170262496242,-0.5069508167329878,-0.2838857401726022,-0.6834223255928252,0.08940828950901894,-0.19261654371937342,-0.7390819964349377,-1.142817834890471,-1.2897065703782875,-0.8070794680298551,-1.2063504819267883,-1.1724899467706476,-1.264822613089934,-0.7197691699062928,-1.1766059195085612,-0.4676558005051435,-0.6308553396166058,-0.41760697276938075,undefined,1497423505642
903d185fccf839df,-1.1338412730495342,-1.1169803991445417,-0.8757570581141866,-0.9356196844456183,-1.7234108765354414,-1.8761310565655933,1.9999193856558006,-0.5088942049123195,-0.28608174031955363,-0.6730877367067205,0.08861592895969526,-0.4461513788632074,-0.7173225824420678,-1.1539278397653572,-1.3128644914936878,-0.9505426303366248,-1.2494642951253567,-1.184028570062269,-1.2719103826364666,-0.81873497834532,-1.2043664918460608,-0.47155045266246076,-0.6439520169200784,-0.4270376393965171,undefined,1497423506620
903d185fccf839df,-1.0700845923207902,-1.1187413856829211,-0.8719287391080724,-0.922934321158237,-1.7477571214354992,-1.8752995182776218,1.9979575491293557,-0.522115400883448,-0.287558882069321,-0.6705180800474049,0.08850957174985166,-0.5086070848401603,0.5403715463458111,-1.1567053430076373,-1.3160223946799874,-0.9727693254662303,-1.2848001398544107,-1.1859854497527065,-1.2760245073707819,-0.8378752459946673,-1.211017886930646,-0.4723038194837851,-0.6431008663450606,-0.42590484098924675,undefined,1497423508619
903d185fccf839df,-1.119981105561967,-1.1099361607111005,-0.8795848688464019,-0.9361251833870924,-1.8112815867651906,-1.8822313344074204,2.0013526259246834,-0.5093587897186207,-0.28835628064401037,-0.6642301474562793,0.08953983437516193,-0.7197015120457407,3.181964405080214,-1.1724445140172186,-1.3265487196152153,-1.0232845180624128,-1.3204871950137675,-1.1961941549108324,-1.286960522722092,-0.9739821044731931,-1.2492171384094115,-0.47399652391553376,-0.6520085320380408,-0.43925629927892773,undefined,1497423509618
903d185fccf839df,-1.2308622729354564,-1.1005439207411583,-0.9370060960208213,-0.9886650739858318,-1.909499707115352,-1.8721270959243619,1.978215593053569,-0.659034877502015,-0.28605255185353423,-0.6663035520935723,0.09048416941461489,-1.0038362848213078,7.229215407754011,-1.176147855990517,-1.3328645167850222,-1.1303767444557413,-1.3646974136029717,-1.2060545481722382,-1.307678079911445,-1.2166154068394157,-1.3162290396298482,-0.4768235114596193,-0.6724116411475237,-0.5280065706501127,undefined,1497423511116
903d185fccf839df,-1.1781937158451432,-1.066496992394133,-0.9344540527747115,-0.9861207756614873,-1.8602312200395408,-1.8772933475446252,1.9572349990226436,-0.8004071278776576,-0.28683723196554445,-0.680202583363883,0.09402133056712997,-1.2558047318794439,4.57891878342246,-1.1622603454450804,-1.3318118885247838,-1.120273689330981,-1.3484655336199027,-1.1974860752327736,-1.3045505053394633,-1.1868194140661878,-1.3057163594862944,-0.47599735792015624,-0.6680158780092252,-0.5271032045952557,undefined,1497423512669
903d185fccf839df,-1.1463154099861808,-1.0553437658858114,-0.8151459039506046,-0.867935796580409,-1.8054084558607735,-1.8972316344159232,1.9116210165685943,-1.1182366930769652,-0.289950317497099,-0.6820090227192132,0.10028150393820222,-1.192665416983157,4.4396585338680925,-1.1622603454450804,-1.3202329279670837,-1.0879439638082464,-1.3297351243920517,-1.1931986725292794,-1.295678549294646,-1.14812312048466,-1.2929865842683648,-0.47585707005651917,-0.6670057345282692,-0.5268029330986629,undefined,1497423514123
903d185fccf839df,-1.1269111893057506,-1.0659099773960117,-0.7851592687403399,-0.8100210742586428,-1.7348794321542251,-1.9033552028876561,1.8946929428662562,-1.2314143829714195,-0.28504138463252454,-0.6824649099382636,0.09755640047881851,-0.9203872665917916,4.317805815508021,-1.1437436647178316,-1.3097065993507389,-0.8050588725504999,-1.2256592433056936,-1.1653653849342616,-1.2752128774925995,-0.8845787262406721,-1.2161412935789682,-0.4724404448421484,-0.6381828192375829,-0.5014708163440491,undefined,1497423515615
903d185fccf839df,-0.9273250845829287,-0.9631822942687841,-0.7085979713570465,-0.7473019756342131,-1.3015018726012517,-1.82932499175506,1.862577747352471,-1.2668965555373377,-0.05579413987410926,-0.7319647580492755,0.08046674779082742,-0.5865481623377945,1.8415845031194298,-1.1141169855910842,-1.2781276116611457,-0.6191629649271373,-1.135101553498683,-1.138235054342121,-1.231678720236265,-0.7339049382891855,-1.1594559415685324,-0.4690921691427237,-0.6286580720922954,-0.4803464977371732,undefined,1497423517122
903d185fccf839df,-0.2135275803990313,-0.5323128179998083,-0.5344206386046298,-0.5702115482093858,-1.0150143530588052,-1.744484783664377,1.889733128296211,-0.8610937722374259,-0.18220446580921193,-0.7698899445925957,-0.02453456246560279,-0.20708262115974704,-0.8391753008021391,-1.0141269109590187,-1.224443336638066,-0.21706199843849153,-0.9237845818764291,-1.0518220386835342,-1.1807559305106479,-0.388440814472888,-1.0296898853031022,-0.42564960665222074,-0.5242781852050594,-0.46133036177236636,undefined,1497423518633
903d185fccf839df,-0.2135274768828021,-0.5088321596189682,-0.32132528169141267,-0.3682825268061186,-0.9554395965321827,-1.7079809480156785,1.91986019239148,-0.5800279281989947,-0.28269053741326094,-0.8084807104205558,-0.09100365278498097,-0.029016086774353595,-0.9088054255793226,-0.9335793841150394,-1.166548524646773,0.21332743901855478,-0.7662029769513522,-0.9816466898165007,-1.1405732459089244,-0.011409875458894403,-0.9099897800848931,-0.39267222442104227,-0.40741134117670175,-0.401157257455463,undefined,1497423523436
903d185fccf839df,-0.1234366124987782,-0.3250962898390199,-0.21605362485785892,-0.15790766579798324,-0.8060707043355934,-1.7222591839527204,1.9381794232221514,-0.4361765029845546,-0.34280714328662765,-0.6139918323118302,-0.15997242208376342,0.0019156767459491304,-0.847879066399287,-0.876177682278572,-1.12760111704881,0.1486680162378073,-0.7634962109462907,-0.9356631857583475,-1.1193099377525755,0.07305059750435419,-0.8661880168632552,-0.3874621060571522,-0.4081580940701806,-0.4088269741235914,undefined,1497423524740
903d185fccf839df,-0.39648154279596903,-0.29222347917221453,0.5935834927236907,0.49194777334793977,-0.7819815994508694,-1.826215461621878,1.9649955589953203,-0.3800966797479887,-0.4977804491001967,-0.38547818950985957,-0.13445229608445486,-0.04087118763572526,-0.7956564728163993,-0.6641617242137432,-1.0644431453507408,0.06178190892672494,-0.8129186693227692,-0.7868073450198895,-1.0870196556239977,0.15678734265657704,-0.7665392999208557,-0.4247503400174016,-0.49441338697410736,-0.43247110667901356,undefined,1497423526122
903d185fccf839df,-0.5239947662318183,-0.5563804621507776,1.359835112710526,1.3273192418036353,-0.7138491409237036,-1.9334722686591979,2.0193904557382445,-0.16952226011806087,-0.35103270844737433,-0.32783739634178005,-0.05936324317568961,-0.03500038538527128,-0.9175091911764707,-0.5613941811446043,-1.0276009961138128,0.3082959989088619,-0.7123910708386972,-0.6332904572919374,-1.0489849912946545,0.12971687721786937,-0.6883316764082106,-0.4666497246388692,-0.5327902663699754,-0.42280504080955694,undefined,1497423527621
903d185fccf839df,-0.31332053787056546,-0.659695204118115,0.7154436847939075,0.7112459868771953,-0.4797363842394558,-1.9962871918447211,1.9810163237908947,-0.44714928456523373,-0.2749995131286141,-0.3972903035022899,0.01625307930410095,0.004651091498189813,-0.9871393159536542,-0.4197415878270039,-0.9949693635989554,1.1913017138092579,-0.3853106244958782,-0.4714520806361961,-1.029205007117566,1.4204299702920529,-0.3331106431546278,-0.4620407807762967,-0.2276896513855806,-0.2806667828582893,undefined,1497423529133
903d185fccf839df,0.9715149627593679,-0.7048954174294465,-0.020183670376559715,0.04492148801720434,0.7144021794482256,-2.0001513992328293,1.8653890193016092,-0.7304256921486822,-0.2382960929963099,-0.6257286195478738,0.05874298210651623,0.05203952538177062,-0.9523242535650625,-0.502140787276479,-0.9665482993418049,1.4135686156420497,-0.4846460517725786,-0.46903922909510976,-0.9972295811420004,1.5377661261678466,-0.306726535801447,-0.5172080597429475,-0.27687649635192696,-0.3137275895355516,undefined,1497423530638
903d185fccf839df,0.7331202614013417,-0.6420847687884695,-0.00869922163211628,0.012377855083158484,1.7576290054859178,-1.9528771602302677,1.8257578423461587,-0.48560357047812086,-0.07681891445241433,-0.2579921956460511,0.005932292923326709,0.04881714657022419,-0.5519510360962567,-0.5215833188760971,-0.943390363501937,1.4539807796116482,-0.4535163838166928,-0.49508662625197625,-0.9667864569869926,1.534902015907179,-0.31637424921953694,-0.4996022849846207,-0.2267589938144021,-0.40341632677936606,undefined,1497423532117
903d185fccf839df,0.2369269485535466,-0.49767894772464266,0.25033316784802645,0.2866268855323441,2.33177661899849,-1.9015989587598716,1.7419827341689014,-0.7099109360243772,-0.2536981126654857,0.4564137945441912,0.017224882396568043,0.0018420766665064293,-0.669451871657754,-0.5141766155033387,-0.9454956016168292,1.4176098489978424,-0.41137716437457883,-0.5243194938072743,-0.9495603082844091,1.5333313745524313,-0.3237315552399296,-0.4824716041249752,-0.19980286300433625,-0.48277516286240135,undefined,1497423533626
903d185fccf839df,0.34503653790093103,-0.5152893830542882,0.8960011256615986,0.935501839518154,1.937381849146772,-1.87893313220588,1.7322314082603973,-0.9934834179996118,-0.25231526707980473,1.1089743399482666,0.013872676431217028,0.11494497163556569,-0.6868594028520499,-0.6428675297217101,-0.9444429936027338,0.6073460377221404,-0.664591469627435,-0.5853247419458109,-0.9390650909845465,0.45987494976075866,-0.5726595890468952,-0.49143370146806975,-0.6020837425009107,-0.4897112488254084,undefined,1497423535112
903d185fccf839df,1.021411441495135,-0.5493363114013132,0.6459001251319918,0.8188304439670554,1.0075445326813592,-1.8917718995647925,1.8173056330635646,-0.8303772343398677,-0.5655312218455881,0.37171322743459023,0.03717817044470131,-0.08702593619667698,-0.7913045900178254,-0.6410158797800697,-0.9676009220803679,0.12644135997219397,-0.8310651734548478,-0.6475269143299047,-0.971425341142369,0.15537068875838767,-0.6629755299251195,-0.46493570131566625,-0.7238545122045084,-0.5640136233941218,undefined,1497423536620
903d185fccf839df,0.85370369438939,-0.499440007333003,0.5820990439792473,0.7251151733888085,-0.057395394837246455,-1.836310384310531,1.9288383319886706,-0.4022945415935344,-0.4120737277323821,-0.002313801659560368,0.008199521451431296,0.0524271165865244,-0.7956564728163993,-0.6391641974614928,-0.968653574267866,0.11431777296370178,-0.8690705294596475,-0.6547528026727056,-0.9601324892499177,0.1993332491882293,-0.6405924641104944,-0.46674903307007465,-0.7624774115962075,-0.6062302478065126,undefined,1497423538174
903d185fccf839df,-0.016713485019936074,-0.4876996781425829,0.8073172416538595,0.8459090750093224,-0.6181510175022672,-1.7765397767161537,1.937811235024414,-0.4871183204185057,-0.28091508357583184,-0.5819001361228849,0.03820350103256471,-0.03375586626978174,-0.7129706996434938,-0.4669591210913331,-0.9465482758910287,0.03551400517295806,-0.8869379146084129,-0.5664842330992566,-0.9433541374160543,0.32966569113596533,-0.5707585074629147,-0.4505986867409627,-0.7399731754910485,-0.5996814731878684,undefined,1497423539624
903d185fccf839df,-0.4034116092870478,-0.4841775296978699,0.816887530895246,0.7871161484755297,-0.3668508668182366,-1.7465415050227995,1.9585761809812332,-0.26429849143981776,-0.2522738815931091,-0.5479427214403373,0.014434072476240907,-0.0382451643402621,-0.6999150512477719,-0.5502841519870159,-0.9360219123040734,0.0739055524646602,-0.8446414278021973,-0.6608324274126187,-0.9773446456703843,0.5033601604549611,-0.5985231745448656,-0.39366917555544106,-0.6594740996310956,-0.597719162608357,undefined,1497423541133
903d185fccf839df,-0.6653683986931028,-0.6056898096769512,0.2356590462513699,0.2943572841773109,-0.2731584520967229,-1.7674860247656294,1.9420978230503312,-0.4341076751443457,-0.27230673625835833,-0.43945582937037414,-0.005226300628047723,-0.009714815511303852,-0.7216744652406417,-0.6317575394164453,-0.9633903648660116,0.24363661852519675,-0.8005672289828981,-0.6857715594813084,-0.9919469904899597,0.6473510223827192,-0.5754835303763103,-0.4112707276739281,-0.7043277028027455,-0.5950999755362295,undefined,1497423542614
903d185fccf839df,0.22999702008410677,-0.7671190803002944,-0.0463424948546091,-0.03362526838599622,0.4629066028550722,-1.8494635971213964,1.8782382337873742,-0.6892107339398146,-0.39978746675056875,-0.4997640441249106,0.03552067292660258,-0.06178796448814626,-0.8957497771836007,-0.544729169785158,-0.9033903018759173,0.8033450358011653,-0.6240664717417794,-0.6257225873883244,-0.930696907720738,0.8610352434193158,-0.48833557760133156,-0.4083012125588789,-0.6549882096375143,-0.5804182405044093,undefined,1497423544130
903d185fccf839df,0.5723427878191338,-0.7806204252570863,-0.3462073221355589,-0.30359914320980563,0.23115956070276952,-1.955793366476596,1.9032582027958937,-0.6851375330780028,-0.22580338602960184,-0.5983037631924031,0.061687736495343,-0.09712314801732448,-0.9131573083778967,-0.7224892348325628,-0.904442935657831,0.7892006907911691,-0.6058178222038006,-0.7927793089476903,-0.9062290584823279,0.9266172241501405,-0.5378036291075026,-0.42202789012313435,-0.5749841696801038,-0.5612977815958443,undefined,1497423545631
903d185fccf839df,0.31870200919155384,-0.7342462111775043,-0.1841523218706384,-0.2064234106300283,-0.36570915363675566,-1.9500285000461808,1.9600988335203575,-0.46518089495475734,-0.2796175574673348,-0.5866380497641792,0.0663142132908946,-0.06737043007550507,-0.40398702094474154,-0.7298959317299338,-0.8802323881227507,0.6740261337102272,-0.6357716309103636,-0.8031970009038968,-0.8514790119715218,0.9257087117762673,-0.5286923203743178,-0.4163162501489516,-0.5858434339779702,-0.6266253157626925,undefined,1497423547138
903d185fccf839df,-0.727738962607402,-0.621539243854221,0.1961021217997189,0.10990601311321854,-1.1781763658302011,-1.848946506795143,1.9800301427781797,-0.436522966362181,-0.39534045806872464,-0.44705472319917494,-0.027690040663949905,-0.0008637401418080044,-0.5475991532976827,-0.648422557251279,-0.9033903018759173,0.5123775060965547,-0.6538776058011398,-0.7709939816399588,-0.8618832686073675,0.6954249568422489,-0.5686272392673424,-0.4305661563498114,-0.5756650297582477,-0.6114233557181122,undefined,1497423548681
903d185fccf839df,-0.7928816566343618,-0.4970919765685098,0.6490905603950532,0.6962006105295161,-1.2464528187585102,-1.8098129580675588,1.931336656801874,-0.6921041227947691,-0.38514099885657815,-0.7142948555400485,-0.07107454763756381,0.03482221382610219,-0.43445020053475936,-0.6132408522138093,-0.8844429342937563,-0.09380489691797997,-0.751298841661262,-0.733578950759347,-0.874652448139216,0.19925625622057094,-0.6610202710255402,-0.43431116496095734,-0.6232498059592239,-0.5084357826527016,undefined,1497423550126
903d185fccf839df,-0.78040753695042,-0.4254760298857312,0.9732003067879448,0.9475669071548779,-1.241659682518214,-1.784999572872251,1.9268817624018058,-0.6860929097001214,-0.39671098871178045,-0.7627196759813331,-0.05978859557868698,0.08178867326783734,-0.517135973707665,-0.6299058506224812,-0.9465482501232105,-0.14634073269023526,-0.780397774058787,-0.7364351089059807,-0.9523380394681236,0.0714029646358777,-0.7133657677137235,-0.45707779067593596,-0.6293111347746057,-0.5193282300154879,undefined,1497423551888
903d185fccf839df,-0.3147066546850104,-0.5164634422785233,0.5916693332206338,0.5570152991168363,-0.99332180704382,-1.8234832623299948,1.934516085523096,-0.6047064813468602,-0.3836891744011157,-0.8933903841788972,-0.07957772590519027,0.10108783113686237,-0.6041736296791445,-0.49843746149164897,-0.8307586445462091,0.05369949874458247,-0.6044416351559648,-0.6077623597061275,-0.8313072057613989,0.5495708923583327,-0.5218901023908307,-0.4047209560359282,-0.585186353542054,0.22383525255673412,undefined,1497423553097
903d185fccf839df,-0.39093742059228653,0.005393387927259934,0.39005791677796103,0.3618908074505217,-0.812828396108955,-1.6266811831356653,1.8493655958957216,-0.6896807600080261,-0.38925331774185834,-0.9606480493492576,-0.1684880837595737,-0.1632733008167899,-0.5824142156862745,-0.31882570765027995,-0.7454953744713025,0.2234306213345621,-0.3789356567785411,-0.46861492197945775,-0.7621507286161722,0.5290293652983233,-0.43546087018299723,-0.3287809628087452,-0.5867754335300887,0.18086870536443256,undefined,1497423554623
903d185fccf839df,-0.37291924771548174,-0.06035235031832013,0.3868674815148997,0.2957208568836689,-0.8257472341879484,-1.575211983445068,1.8566159687588413,-0.5678436926846446,-0.3570270598815243,-0.8735255054969093,-0.17482597193837185,-0.04462693828082693,-0.20815229500891266,-0.24475897179051068,-0.5433898723997146,0.12240012661640119,-0.21445875203272188,-0.36605289951719827,-0.6785318432481614,0.6173086553439391,-0.34409440864686297,-0.3251067729641935,-0.664048688033599,0.1131757808445941,undefined,1497423556148
903d185fccf839df,-0.6251738060123876,-0.14312152350942045,0.09338250821227494,0.09938024462171736,-1.1812723602506792,-1.5738400618542603,1.8779016210390715,-0.5541021108612064,-0.10397090503249047,-0.7499905430084519,-0.1188231659145972,0.007088876866550894,-0.49537655971479505,-0.29660566228587754,-0.561284635648897,0.18705960592659174,-0.07028780521760779,-0.4043608758549622,-0.6632438116722507,0.5279976719708739,-0.3731479455059297,-0.29828355220875236,-0.6037489957121726,0.2031036511915605,undefined,1497423557630
903d185fccf839df,-0.7097207552251874,-0.7407033761568396,-0.48848386017465384,-0.48408334791306507,-1.334837816844965,-1.7823046429581098,1.9910595426947977,-0.3595487222264474,-0.2769890869176271,-0.5256417050552323,0.12161784128729315,0.012150731738665719,-0.673803754456328,-0.3049381906294562,-0.579179376811378,0.2375748108885899,0.04629741257449459,-0.4727946651608831,-0.6606899759224777,0.408705913954196,-0.42961926316899024,-0.23247226431967546,-0.48425173289373286,0.2749366346763062,undefined,1497423559196
903d185fccf839df,-0.8275320235951653,-0.7001992828304792,-0.7392224903103639,-0.8324373945723964,-1.3378926672489695,-1.7455259549388893,1.9272762329213526,-0.7493240963437999,-0.2752700459197928,-0.611806378285026,0.07836890704650552,0.06211008788644793,-0.8174158868092692,-0.3299356720539957,-0.7833901685334947,-0.13219647247440364,-0.3011966664432056,-0.5384166277674853,-0.8004652675582564,-0.24752963622253862,-0.6453205668447104,-0.10547651969889264,-0.23731476481706446,-0.22882742414425722,undefined,1497423560632
903d185fccf839df,-0.9938537919081043,-0.791773739449385,-0.8725666228511252,-0.9232654696873243,-1.345905223819566,-1.7008790972376882,1.9226214786956557,-0.745514266963156,-0.2820358577826814,-0.6452636069188847,0.08302180971407976,0.054021593587143285,-0.9088054255793226,-0.6419417079885835,-0.87181135467861,-0.4251845552612871,-0.5850184160549499,-0.681680478563333,-0.8650248413521961,-0.5301373071137124,-0.7821733679164127,-0.16751353742271005,-0.39284378171798695,-0.3270791469888458,undefined,1497423562120
903d185fccf839df,-1.0423642573456555,-0.770641199517015,-0.8502361173791899,-0.9050054079720817,-1.282051615294412,-1.682722677722489,1.9063640200656131,-0.804649670675878,-0.33753884846471816,-0.6538781089691753,0.06922443546971453,-0.044063667330462346,-0.8261196524064172,-0.7298959155414657,-0.9097061266541009,-0.4756998308850891,-0.6703661255532818,-0.778606181878017,-0.8987284782012597,-0.5424560621648976,-0.8504431603035618,-0.21239511630249516,-0.49423871400393415,-0.2937567979165094,undefined,1497423563630
903d185fccf839df,-1.0021698716973988,-0.9373536343514431,-0.8042993389492139,-0.8566784861185873,-1.175296365346046,-1.6670701905843934,1.8800159976891477,-0.9163419658111666,-0.41818321259168373,-0.6371194103126949,0.05119733317237255,0.02822505123840243,-0.6433405748663101,-0.819701811888312,-0.9560219578415509,0.041575826941925687,-0.645800990986663,-0.8916555594188476,-0.9484198289740164,-0.241524245285185,-0.8635420376566028,-0.3180086696109622,-0.5407915611843641,-0.25393420871304256,undefined,1497423565145
903d185fccf839df,-0.7180368695198917,-0.5235075345720028,-0.439995038498568,-0.5339519128845056,-1.0422405873201208,-1.6754088676602412,1.8888153347438121,-0.7955875877308424,-0.39820141869049946,-0.6255458260247233,-0.024570122069689025,0.0585973049443192,-0.6607481060606061,-0.9132110210692138,-1.0507589061858624,0.0011636700385075512,-0.7214889505214357,-0.9450802718937596,-1.0406447928152942,-0.2681481597773317,-0.9201797263183612,-0.4160748466848105,-0.556354265050112,-0.3520956871848199,undefined,1497423566630
903d185fccf839df,-0.25926601924015114,-0.4642190782177274,0.025114716036464754,-0.05340317654689944,-0.732898245349257,-1.7055818341111177,1.8748116171583533,-0.8466815944530616,-0.43176615145111463,-0.3641523147275896,-0.08907681460569619,0.07527295543558066,-0.41704266934046347,-0.7956301392461246,-0.8665481784068076,0.324460932332033,-0.651161303669628,-0.8695789181747091,-0.9275063604745274,-0.09414572605928381,-0.811653190836187,-0.3259138878306024,-0.5593428227919306,-0.33754989854136697,undefined,1497423568127
903d185fccf839df,-0.3992535003815811,-0.44895662981058665,0.6344161846614472,0.41049017817656486,-0.759682199661227,-1.7299433469751753,1.8490421442112375,-1.0353330710392663,-0.35021317616735825,-0.2148807772184167,-0.19749483150140465,0.13165796182334202,-0.5693585672905526,-0.6549034032762807,-0.8012849170582096,0.4456974383731893,-0.5701318791907791,-0.727986963895123,-0.820728029807898,0.15644857598170872,-0.6545062593663133,-0.32260392505628255,-0.5692718457639375,-0.4002198637283789,undefined,1497423569629
903d185fccf839df,-0.24124781185793662,-0.48652564814634014,1.2813599099611248,1.180226735754563,-0.8306432227354148,-1.7011073637528988,1.8933149216612188,-0.703079095235836,-0.4038017147980857,-0.08211965131821926,-0.14351040736477788,0.032686620975787825,-0.6563962232620321,-0.6428675556232593,-0.7486532868603943,0.45175917534799237,-0.6769320590585358,-0.635538652208825,-0.7348771606141026,0.5472149247662779,-0.5122568360404607,-0.35660548096685735,-0.6013033160480565,-0.451838855525181,undefined,1497423571134
903d185fccf839df,-0.4727122741978354,-0.3368366482574323,1.0797479852445533,0.9099426210376899,-1.0579365594404173,-1.645631872219795,1.866062237465563,-0.8100368656771796,-0.3881455166862473,-0.18731311441704335,-0.16953465720467828,-0.06322533742086961,-0.2908380681818182,-0.5354708229461463,-0.7370743189404604,0.33052265517447527,-0.6851633467890161,-0.5565415129099177,-0.6962687569364832,0.4486802744017615,-0.47899158135818454,-0.3309279824901717,-0.6638343183280723,-0.45248822639494785,undefined,1497423572673
903d185fccf839df,-0.6459641090018531,-0.4630450482214846,0.4449265924323719,0.431014212176493,-1.3045772918966807,-1.6199729737062136,1.8824327773826615,-0.7238504067581052,-0.27419450057032807,-0.56331382709681,-0.0841738219801739,-0.0910982356472886,-0.2908380681818182,-0.39844738038419625,-0.6181268304233023,0.007225484741294791,-0.6391966561654224,-0.44501837462923854,-0.6718009090132412,0.15252197445263885,-0.4679125130963311,-0.2971526911905424,-0.6706539631592043,-0.4094735166402814,undefined,1497423574106
903d185fccf839df,-0.6016116317008344,-0.5405310279735078,0.37027945455213557,0.28774437072772063,-1.3163852748215525,-1.665712244415302,1.89449306654216,-0.7364080756097348,-0.3176079281574935,-0.7002038890846994,-0.12353309215175776,-0.15186707256105106,-0.843527183600713,-0.3456748908195582,-0.7128637677242633,-0.023083609971182563,-0.5335184614212363,-0.36417834652215375,-0.7670624895335124,0.06701440570472669,-0.476586701869256,-0.3299467050718476,-0.6169417875748782,-0.3504916234376042,undefined,1497423575637
903d185fccf839df,-0.5766633923329509,-0.47654633472229185,0.41238842224989636,0.35421689892700653,-1.2666436436674464,-1.7309216247412025,1.9427289654063884,-0.5372957501217492,-0.3746565087581559,-0.6581190649947032,-0.12491849063742483,-0.037844097912282625,-0.8130640040106952,-0.27994065740181845,-0.7170742954896844,0.1789772240091708,-0.510480234387056,-0.3179035284722272,-0.7874581930677488,0.11180848457149657,-0.46563084275788064,-0.306378887548105,-0.5312935501517732,-0.327883280064046,undefined,1497423577127
903d185fccf839df,-0.5572591543998158,-0.405517519949604,0.178876211093902,0.07679259935056502,-1.1604335396851675,-1.700068521511478,1.972479967082595,-0.2494584570760559,-0.43874271943102094,-0.6493304632657837,-0.16326859920950293,-0.01746889204491575,-0.8565828319964349,-0.16606308517509105,-0.6065478477789008,0.912457799377861,-0.10498228842008243,-0.29927834161531736,-0.7032095953264259,0.8581711309373673,-0.2792774727309213,-0.24455008573342954,-0.542647063874906,0.38789762172171766,undefined,1497423578629
903d185fccf839df,-0.4643961944085409,-0.4466085698181011,-0.2709223005122698,-0.35796352105696644,-1.2111625975429112,-1.6433003049301678,1.9723931882821424,-0.18643353638356677,-0.490566986713188,-0.6763051216881497,-0.06629777885549244,-0.007114226920073709,-0.9436204879679144,-0.2975315520105705,-0.7170742881274506,0.9488288147858314,-0.2606018046431967,-0.3910743606122171,-0.7308609924982921,1.308945224412813,-0.24775524295579096,-0.28369939820976514,-0.6022087141239737,0.2764206878364128,undefined,1497423580173
903d185fccf839df,-0.43944798954606706,-0.5117672346095751,-0.2868724437319812,-0.3982654692502497,-1.1494689888147258,-1.6116599183872502,1.8874110134090942,-0.6997425953599836,-0.4690161176629554,-0.4816635209465076,-0.04333650018465779,0.03422097502909106,-0.8565828319964349,-0.28642149695143293,-0.6876005790450356,1.132704112797478,-0.23018324886967936,-0.3989082114760711,-0.6711362158642907,1.3074669729230048,-0.2294842623452612,-0.2322106463531833,-0.6212293747639472,0.13573197404608703,undefined,1497423581672
903d185fccf839df,-0.43528981162978087,-0.29868061492355746,0.046169454022294575,0.08678693478473481,-1.0290131873063113,-1.4846884305152954,1.8661464047941831,-0.5386873326520154,-0.1462776292187634,-0.44954314542014145,0.05212010159185026,0.0626182032408077,-0.7869527072192514,-0.305864028551051,-0.6644426579296353,1.0094469759460645,-0.3088675867757241,-0.3866159684128232,-0.6257129199648724,1.4795907959061987,-0.18139270473671903,-0.2837519739097734,-0.6390658456283571,0.11308917033480302,undefined,1497423583135
903d185fccf839df,-0.46994028210681366,-0.19771397679069413,0.14888906760973852,0.24419469404655084,-1.0575765674119901,-1.4112987618641937,1.8253870395340235,-0.5964469404912506,-0.2347263276174706,-0.293956221352166,-0.01945151548566522,0.04341507560020425,-0.6389886920677362,-0.36326569477288845,-0.6676005555942595,0.5548102019498851,-0.5448365360352617,-0.4030436215214983,-0.6689532111521523,0.9545500028973225,-0.29805410775945546,-0.3180123134494682,-0.5982840639986158,0.24918990098879654,undefined,1497423584630
903d185fccf839df,-0.15808691044876227,-0.4436734948274942,0.002146580958426152,0.04364553993804475,-0.7474627958286331,-1.3542324030290431,1.7599758714651248,-0.8564744893516759,-0.4493990943348436,-0.5243359038511658,0.016191820348853594,0.02960209001754192,-0.9044535427807487,-0.3938182296285459,-0.7444427590949733,0.14866803037016807,-0.7864598089384518,-0.42263775021165556,-0.7662158775767571,0.24676045651829503,-0.4791812602374547,-0.4229974653007264,-0.7404783108170759,-0.4099819904201422,undefined,1497423586108
903d185fccf839df,-0.3673751255117993,-0.45423976479367917,0.07232802436339454,0.05787452874899748,-0.9756098431552471,-1.3712638004505129,1.7793864586867087,-0.8299165010169435,-0.6298847051844917,-0.7367154916018147,-0.08561897017442081,-0.09126860412407854,-0.8739903631907309,-0.3706724110964214,-0.8454955064496503,0.039555295058193905,-0.696239540687154,-0.3962293760513843,-0.8129685668759843,0.2580783167753252,-0.48450217353601766,-0.3734022945746689,-0.7242395851359467,-0.42996292708849143,undefined,1497423587626
903d185fccf839df,-0.5239948007372279,-0.5223336214877294,0.028305151299526113,-0.007539694790145655,-1.109025619411215,-1.4696834728804995,1.8038620641396235,-0.9375814064573368,-0.47471635960244346,-0.8109667658784031,-0.04675840662162868,-0.061133453073524024,-0.5824142156862745,-0.3928924046577256,-0.9149692697958512,-0.053392761213102984,-0.7483995677410206,-0.5372893640143761,-0.9039620913056219,0.13342790038953023,-0.6117257089142608,-0.4083174011093146,-0.6104011936943579,-0.4218642727798973,undefined,1497423589104
903d185fccf839df,-0.7208088961163233,-0.3708835181484728,0.024477340567310865,-0.08200598143423872,-1.241536256928475,-1.5448922773168048,1.889451745086971,-0.5349903153080909,-0.34399673346205145,-0.7328198339026483,-0.06377936599677964,-0.025186360111345583,-0.7129706996434938,-0.40955740306639743,-0.9549693240596371,-0.05137217279992814,-0.7847063975760464,-0.5608859121563385,-0.9577815603977451,0.028579885897720175,-0.6567285289410337,-0.3922948680613864,-0.5898253807821354,-0.5014157811925972,undefined,1497423590626
903d185fccf839df,-0.7000186621376772,-0.3597302331841664,0.12911111365781186,0.0858792678083157,-1.3078275741093446,-1.6679110446028942,1.8832690724300913,-0.799151554062997,-0.31109453439709756,-0.7977911161432213,-0.12073394694172486,0.06298894681718555,-0.7869527072192514,-0.38733740302970593,-0.9812851428396616,-0.04733088291469229,-0.7095024570343595,-0.5369853843843977,-0.9766449630656853,-0.014628151391831377,-0.6602293857332945,-0.3451590557222837,-0.5683373229456743,-0.4915533347728752,undefined,1497423592173
903d185fccf839df,-0.6847725503627137,-0.36090429240840155,0.55147452502593,0.4339788877784812,-1.22017286600005,-1.798159773285701,1.9389788918552742,-0.5856727957117375,-0.2738774440683342,-0.9247213008383001,-0.030883018060111216,0.0936059123960958,-0.6476924576648841,-0.4002990821289349,-0.9602324892880888,0.00924615794863425,-0.5692929212376617,-0.5551102666588372,-0.9718801356905885,0.3209501673650813,-0.6020944975502943,-0.3643314113362623,-0.4482000185306675,-0.3327727065606436,undefined,1497423593618
903d185fccf839df,-0.6487361528509895,-0.5851442555147103,0.08253645148478309,-0.0631974657060729,-1.296729312684316,-1.8677434664510497,1.9250303870485297,-0.8032263477969939,-0.2773466546232724,-0.9213439200642581,0.008400661180313287,-0.024920905224450982,-0.6868594028520499,-0.4373324047311086,-0.9981272796691641,0.15270926372596083,-0.5656349257926038,-0.6105995187338223,-1.010957324565289,0.3322372250635866,-0.6290262432235995,-0.34084993187469226,-0.4268013795854034,-0.32908463725875314,undefined,1497423595136
903d185fccf839df,-0.7305109546984238,-0.5622506267459876,0.01299289182286743,0.05011677427531316,-1.3077555798935505,-1.9065951769564742,1.927704899789862,-0.8837924924441527,-0.3375482259448207,-0.9293928875766027,0.1200389262879289,0.07521638088480884,-0.7869527072192514,-0.4651074517235308,-0.9812851207529603,0.22140993399486186,-0.5857350195789239,-0.6089656188055119,-0.9992236722418534,0.33274537372292706,-0.6263046336978593,-0.3556689116371828,-0.45179479721344323,-0.3506843842472642,undefined,1497423596630
903d185fccf839df,-0.7277389453546971,-0.5387699829791436,-0.11843708121483684,-0.18400210853245907,-1.349608081893274,-1.7809816345133653,1.9065165486665046,-0.8724851045584605,-0.31247258341539624,-0.7133999430216227,-0.0007113528735708055,-0.03342323775498655,-0.7521376448306596,-0.49010495257423214,-0.943390363501937,0.13048259332798673,-0.6654131112944326,-0.5915626899067021,-0.9772606824534181,0.3904125514211647,-0.5978403535365955,-0.36241404592694226,-0.5242518297736796,-0.3900781081829734,undefined,1497423598119
903d185fccf839df,-0.7665474039682625,-0.5640116278983632,0.25543750847719543,0.19061027986866977,-1.3497932228355487,-1.6580210956145995,1.9017408255765238,-0.7176360023456713,-0.3188970542027555,-0.7942940026754725,-0.10769079221588922,-0.00947093803917701,-0.8000083556149733,-0.5975016982021196,-0.9876009381689101,-0.0513721445352066,-0.787625732687881,-0.6529352463756144,-0.9968727435303731,0.36374244697760316,-0.6468453143710738,-0.3945506036951474,-0.4899920317518297,-0.36783846546836635,undefined,1497423599621
903d185fccf839df,-0.5378548992139758,-0.5323128764557931,0.16994380559556835,0.13349537513710416,-1.1543855514709762,-1.5382376375285023,1.902406175804283,-0.4504611707435556,-0.3000700675367525,-0.56692330886159,-0.1664968816232417,0.04379059384320036,-0.7956564728163993,-0.6437933870694668,-1.023390464667275,-0.20089710034622235,-0.9721936307804532,-0.7037317884314018,-1.021459536559525,-0.1595737169776462,-0.7779610320589441,-0.43127543022575093,-0.6579387450874391,-0.5529097767540665,undefined,1497423601165
903d185fccf839df,-0.3202506733724637,-0.5980585562453884,-0.05272234883293413,-0.23585715118385653,-1.0476817247404309,-1.5361902376671819,1.917233032872842,-0.3412397826028176,-0.3023879587108743,-0.6858678445193573,-0.14356986321890117,-0.10757815014995044,-0.7434338792335116,-0.6558292217717137,-0.928653490555145,0.08804981268049182,-0.6867921888761613,-0.6936307432272051,-0.9190122314952375,0.6013404635255324,-0.5659739561563476,-0.4841435850537937,-0.8826791641625831,0.009424507130017882,undefined,1497423602642
903d185fccf839df,-0.3147066546850104,-0.5980585562453884,-0.00040520815073420496,-0.18390621487660436,-1.0105915005915498,-1.5404667208874787,1.8987270875675342,-0.4598156603825033,-0.3044455184751593,-0.6335924926681734,-0.15971977402831555,-0.07533307813361338,-0.7303782308377896,-0.6660134065323201,-0.9181271748227092,0.2880899875858665,-0.6777249401337317,-0.69309244300909,-0.8981337473253997,0.6612404156923207,-0.5476747263536966,-0.4935016732369634,-0.8941651201080951,0.020603126868174546,undefined,1497423604679
903d185fccf839df,-0.12898059668082174,-0.5405310279735078,0.06786207575117713,-0.026919965594559423,-0.9197173686310378,-1.557486472675518,1.8369555758724954,-0.8270974238512246,-0.3605183368982536,-0.32288095468521905,-0.20463002961594043,-0.1232949784254279,-0.7913045900178254,-0.6012050239869497,-0.9254956002527546,0.3325433566465362,-0.5400717857535078,-0.6307256130208074,-0.915975615232204,0.6157688063432858,-0.523290892472246,-0.5195149067038697,-0.926653772125142,0.05941745644408305,undefined,1497423605663
903d185fccf839df,-0.19966734390064458,-0.5734039263242902,0.13485308389308415,0.045126289748247,-0.6439269711238473,-1.6214497119710485,1.8271542831744205,-0.9282895239382964,-0.4818378075093922,-0.5010286810907749,-0.12655673027905795,-0.11440049881155698,-0.7608414104278075,-0.39104072881453605,-0.8886534436535929,1.029653114460307,-0.38748908123043424,-0.5077208481741432,-0.8860922360146183,0.9091553879294885,-0.40115135362247406,-0.5178160714881938,-0.7715320536783957,0.08347759932032066,undefined,1497423607183
903d185fccf839df,0.6028350113690609,-0.36149136586250763,0.33646475447270624,0.24413378331683208,-0.19246715607922055,-1.6898454896782453,1.8247953300883775,-0.8185577885391718,-0.7536010997766798,-0.7710768124418176,-0.075705143503593,-0.08375165033465323,-0.7477857620320856,-0.2456847838105564,-0.7876006962989158,1.354970873306662,-0.2247499822037003,-0.45862786787898757,-0.7986460939592916,1.2099794216818047,-0.2940907562281246,-0.5169403173160841,-0.8122301335437313,0.18167939117656845,undefined,1497423608629
903d185fccf839df,0.5709567055100987,-0.3391846790219255,0.3957998870132333,0.25214649757575763,0.028973617212424974,-1.6833911679355786,1.7888222144647061,-0.9408088013456086,-0.668653925099669,-0.7599856012626919,-0.12231481570319176,-0.041070948609342774,-0.7738970588235294,-0.2530915130848639,-0.7770743658420125,1.6297736109117094,-0.19884609752545176,-0.46289627210579637,-0.7836729185608611,1.3202476907208083,-0.2716656403641973,-0.5227040966742567,-0.7806430700992296,0.16381338209793336,undefined,1497423610521
903d185fccf839df,0.42265314457937425,-0.3820368615687638,0.7192717496630722,0.4526601444616479,0.07187525704922354,-1.7072728571755516,1.8070309877885347,-0.8599118275168536,-0.6348523204388821,-1.0028070858264104,-0.1077196785972533,-0.024519715576810742,-0.7521376448306596,-0.25679482591891944,-0.7781270033050431,1.6924124735440034,-0.24482985562381251,-0.40408222420154055,-0.8008710800505232,1.4804685120219077,-0.2139016448254804,-0.5580971820309927,-0.8889618557940685,0.13859055865202757,undefined,1497423611654
903d185fccf839df,-0.1359107666881297,-0.12316301357329326,0.7007695631972509,0.441471295968322,-0.012508603670949886,-1.5952574128074504,1.8119566091521826,-0.679688715901653,-0.5891781408570437,-1.205275324480139,-0.11256973775243807,-0.023383834711382973,-0.7086188168449198,-0.22253897822920646,-0.7812848936074336,1.6075469405137353,-0.30540284247296656,-0.30043093488971306,-0.8141930081493455,1.377837870995363,-0.1854669115552782,-0.5975929521937847,-1.0351045762304607,0.191140279282437,undefined,1497423613119
903d185fccf839df,-0.31054851127413396,-0.311594944882228,1.159499717890908,1.1560973019226042,-0.3541788927240563,-1.6290174097200818,1.8100394798083803,-0.9522502820482317,-0.36168966231637323,-0.536986356509455,-0.15853782059264568,0.08318157875034364,-0.20815229500891266,-0.2660531662825438,-0.9181271674604754,0.5366247649077037,-0.33312063665048247,-0.160878188872887,-0.9033463724990098,0.6792104045167697,-0.312142996499191,-0.522239378367684,-0.4858278288434709,-0.1500078457320161,undefined,1497423614636
903d185fccf839df,-0.34658499504938245,-0.30278971991040715,0.8806886120479904,0.864574884338818,-0.2548910573732406,-1.645051892809312,1.8511775320534565,-0.7040985459825035,-0.3467757737019427,-0.31256755569130135,-0.1741630569859796,0.0360551388565758,-0.43880208333333337,-0.2827181452650538,-0.8433902315235892,0.831633471438664,-0.3270434232929798,-0.16852838532240308,-0.8505344445829713,0.9020259085359834,-0.2698270304584696,-0.440512881529725,-0.4066085073784516,-0.12957364892663314,undefined,1497423617612
