UUID,iqrAccX,iqrAccY,iqrAccZ,iqrAccXYZ,meanAccX,meanAccY,meanAccZ,meanAccXYZ, covarianceAccXY, covarianceAccXZ, covarianceAccYZ,pressureDerivative, pressureIQR, iqrGyroX, iqrGyroY, iqrGyroZ, iqrGyroMagnitude, meanGyroX, meanGyroY, meanGyroZ, meanGyroMagnitude, covarianceGyroXY, covarianceGyroXZ, covarianceGyroYZ, class, timestamp 
903d185fccf839df,-0.48449340448537415,-0.4730242447335635,0.11794586092184423,0.011985143205343326,-1.1186607408491296,-1.313751088363174,1.764681924535293,-0.907915298207079,-0.40007894141820655,-0.6558937669116898,0.11295462708101794,-0.07147250516544489,-1.0415378509358288,-0.6336092023088603,-1.1960222429319802,-0.46357616614861274,-0.9495370218411607,-0.7281379570940734,-1.1539960734059782,-0.5713986648033998,-0.9062537006765576,-0.4359744408127114,-0.7043441456544743,-0.5336607539223303,undefined,1496077707325
903d185fccf839df,-0.1650169941925459,-0.4565878247861647,0.452901918179177,0.24130815737444145,-0.9436845134160138,-1.3175059459073397,1.8808958540426122,-0.11620265317348279,-0.5237614945370577,0.010876291578240898,-0.011825522437977437,-0.049737860052900165,-1.02630626114082,-0.6317575264656707,-1.138127425419012,-0.6110804911493714,-0.9926902647436117,-0.7245861778465295,-1.1316313212904436,-0.6335532725736152,-0.9089886154338013,-0.4428084755465465,-0.6930477229765256,-0.5312998356886317,undefined,1496077707613
903d185fccf839df,-0.36737514276450417,-0.4841775296978699,0.08476917165394236,0.2085668809526241,-1.0208223424676384,-1.3919606374397755,1.779161180395577,-0.9394888793977,-0.4099809333932305,-0.31896023606779916,0.029997844126792614,0.06100739934042301,-0.9653799019607844,-0.6271283627592459,-1.1128642404209013,-0.44337008416381346,-1.0105395969086568,-0.769797658535919,-1.1283948339682128,-0.4590848148552854,-0.9029136988243934,-0.4724581173025223,-0.668230215406024,-0.513162838541488,undefined,1496077708844
903d185fccf839df,-0.21629957249005308,-0.48476466160796067,0.10167652169365701,0.1867710041370463,-0.9269421592755557,-1.422189596472162,1.7771058124145616,-0.9974730632486987,-0.480909451848128,-0.28112038530178035,0.022414535658161882,0.046013078580868914,-0.9610280191622104,-0.6169442103755758,-1.078127355066684,-0.2938450718233546,-1.0071732831731885,-0.7740385221950341,-1.1065438411804038,-0.39693606209456694,-0.8854379307749397,-0.46698262130902335,-0.689969786432827,-0.5078100424319854,undefined,1496077709107
903d185fccf839df,-0.25372196604728814,-0.3380106782536751,0.3032884464102285,0.3063274131316244,-0.8656722232782463,-1.4672915330897391,1.8185231422027774,-0.7854614345108736,-0.48268913143422043,-0.18716714436583584,-0.06203219644283022,-0.04919916410880739,-0.9044535427807487,-0.6104633513997995,-1.0381273081651317,-0.37264881134937683,-0.9944174964971925,-0.7293202360613663,-1.0697367088275174,-0.4550979708478522,-0.8616954996546322,-0.45910080425945926,-0.6949126802039093,-0.498766464159634,undefined,1496077710343
903d185fccf839df,-0.2689681123276614,-0.3902551299984479,0.22800266237609115,0.3022539237175178,-0.8842309163647607,-1.4487355486597455,1.7656301651849244,-1.0737107734684106,-0.47241189177832843,-0.1774170525859429,-0.07174536242229732,-0.07443362467727205,-0.8696384803921569,-0.5891691633831537,-1.0086535843582491,-0.3989166868384222,-0.9576070772235663,-0.7078897509683915,-1.0420681431177587,-0.44313914202408694,-0.8416901824817551,-0.4512403592317406,-0.6818644878035443,-0.49684645231711155,undefined,1496077710616
903d185fccf839df,-0.3549009713224478,-0.43721632984815895,0.44620261405542677,0.40552050672828077,-0.8826985345788356,-1.4025212295836598,1.744821079811755,-1.0863414601716816,-0.39949699842104625,-0.2732307232100941,-0.0737098253741692,-0.1501812687435174,-0.42574643493761144,-0.5799108359703039,-0.9791798605513666,-0.3706281664067589,-0.9484062615066292,-0.6622016768736592,-0.983982854172672,-0.2944391328620903,-0.7772332166835093,-0.3939977686222806,-0.6524831222000198,-0.4915246543493792,undefined,1496077711824
903d185fccf839df,-0.41935065870029975,-0.4269435673810346,0.3501820504547837,0.4056856348590143,-0.867939737252203,-1.3736424677503942,1.7589584353118612,-0.9044170338053058,-0.3372884325225926,-0.3145295478377567,-0.08028046099377482,-0.1491256396223413,-0.1298184046345811,-0.5808366609411242,-0.9918114585720974,-0.37062819467148045,-0.9484088936774931,-0.6619052309838552,-0.983825090736004,-0.2914121350643434,-0.7774914387229437,-0.4025342337243239,-0.6371381375291176,-0.49479094098457743,undefined,1496077712137
903d185fccf839df,-0.3549009713224478,-0.42312785298127625,0.43471841944793277,0.4255803794851215,-0.8755039001765266,-1.3412689311207735,1.755835143838673,-0.8431907188601686,-0.36202602947699375,-0.26842168229529545,-0.07990365800520835,-0.17288582980565742,0.44027824197860965,-0.5910208262755687,-0.9991798840021426,-0.4029578919294934,-0.9552605943854264,-0.6853405891021589,-0.9840702373918271,-0.30753819675948696,-0.7882940603213278,-0.42544819217956115,-0.6551672990451266,-0.4949920179727533,undefined,1496077713327
903d185fccf839df,-0.4810283194817202,-0.37381871005104905,0.37793558429046487,0.4538321056751512,-0.8944225500182011,-1.3473867678872393,1.7230645016278108,-1.0731235950257845,-0.3553005584222687,-0.230695982866352,-0.06295853596530611,-0.19666403133992147,0.5925941399286988,-0.6021308424823827,-1.0107588519220767,-0.37871063311834446,-0.9606165293556073,-0.6876904441499703,-0.9862138554459983,-0.3355500821929625,-0.7949926599383937,-0.4288473324732422,-0.6547762675454227,-0.49355964454894363,undefined,1496077713639
903d185fccf839df,-0.4643961253977214,-0.3749926231353225,0.5316963169370539,0.5095664689210191,-0.9287482071158978,-1.3847594107781227,1.7464665579783532,-0.9960610616729256,-0.3440834412417941,-0.31790638144377015,-0.10942680207654829,-0.20645996536079445,-0.22555982620320855,-0.5910208392263433,-1.0033904264920313,-0.34436029091771353,-0.9636973653063099,-0.6614615028538449,-0.9956459695829938,-0.3072396837018012,-0.7815638060792887,-0.43549005041339844,-0.648772913714152,-0.49885019890431387,undefined,1496077714838
903d185fccf839df,-0.41034153775648763,-0.4102136399345751,0.7428780226211129,0.6051621123175573,-0.9516647402056287,-1.4077932579666348,1.7771037966129168,-0.8495412406356957,-0.3146329356872604,-0.3926141900292161,-0.13465944318224035,-0.16684996937610957,-0.31694936497326204,-0.5947241779619479,-1.0002325214651733,-0.38275180994469415,-0.9553886129675914,-0.6575272466844112,-0.998808829228759,-0.31219367781088814,-0.7827268332223764,-0.43416276131773035,-0.6458583500598694,-0.49738056362263744,undefined,1496077715112
903d185fccf839df,-0.5614172633052825,-0.3068988248972569,0.9629921338035056,0.8628798007722834,-1.0007480880976238,-1.4662059195731312,1.8106285678307377,-0.7382788503711801,-0.28771161498000264,-0.5096607699138512,-0.18860977940795284,-0.09786491274180088,-0.9740836675579323,-0.6002791601638058,-1.0297062526342897,-0.3524427152322168,-0.9764570150564388,-0.6653316346305234,-1.0061178631220222,-0.31305259588923595,-0.7884333878272715,-0.4400807972570395,-0.6513599068311237,-0.49860487432509587,undefined,1496077716360
903d185fccf839df,-0.5558732101124195,-0.3245093332968832,0.8634621930682748,0.8924569175216721,-0.9976315213408234,-1.4622415545683989,1.7817454065351432,-0.9203728563502898,-0.2912769094160703,-0.46112963439883053,-0.1623218343194273,-0.11485113037408111,-0.9740836675579323,-0.5928724891679837,-1.0276009777082284,-0.35850452286882367,-0.9736054859304971,-0.6660386232100625,-1.0037855928846757,-0.3090763979316952,-0.7881430762121108,-0.4337395459593291,-0.6492436364163721,-0.4958409141368366,undefined,1496077716628
903d185fccf839df,-0.5919095213606193,-0.2822441949761586,1.198417996188658,1.2234299721516713,-1.0602097033131763,-1.4889369649720037,1.7783555851566555,-0.9794098268331607,-0.265309637221299,-0.45572185894662753,-0.19226765371338317,0.040138987262904914,-0.9349167223707665,-0.5882433319369461,-1.017074654613559,-0.3706281664067589,-0.961642649094579,-0.6474711449277192,-0.9929884978212108,-0.328181981748916,-0.7780912448271352,-0.42406681276779,-0.666590166211372,-0.5126474955429191,undefined,1496077717906
903d185fccf839df,-0.6390339734999548,-0.31335598987659213,1.1709834042245033,1.114195402629556,-1.07576167849967,-1.4761238198538078,1.7942580229379101,-0.8638342185756789,-0.2582054270074733,-0.4612926740213909,-0.18409910780443806,0.05528413516531138,-0.9218610739750446,-0.587317487539964,-1.0128640973992027,-0.37871054832417983,-0.9648672964220929,-0.6568884026385311,-0.9929129892188964,-0.325877054579212,-0.7817817640764984,-0.4246379857050961,-0.6675435881355718,-0.5154521072863345,undefined,1496077718130
903d185fccf839df,-0.6237879307358108,-0.3168781383213051,1.0548654365265082,0.9691874835836117,-1.099717068612709,-1.471719226745515,1.7796310309325885,-0.9528144706284302,-0.29492552779200437,-0.49310190097220963,-0.19217507555249908,0.009584246459842499,-0.9001016599821747,-0.544729124457447,-1.0402325978156606,-0.39891674336786526,-0.9603266385307617,-0.6476174748369895,-1.0087906285829813,-0.35376212324075135,-0.7851072376451933,-0.4349113777025866,-0.6641210170671153,-0.5119388373440509,undefined,1496077719375
903d185fccf839df,-0.6348760371215368,-0.2552415635185595,1.0816621447476105,0.9752640087739993,-1.1622026777233017,-1.4701260277420523,1.7921015736225028,-0.888466772090285,-0.32191502953551804,-0.4653089907416868,-0.18428799180530764,0.0176453159681677,-0.9001016599821747,-0.537322524690885,-1.038127337614067,-0.40295792019421495,-0.9603266385307617,-0.6439506964053787,-1.0101332150935691,-0.36141416424682044,-0.7839614685176025,-0.43789027972455213,-0.6661276098118915,-0.5101865895479027,undefined,1496077719638
903d185fccf839df,-0.6113137765464594,-0.3086599283476057,1.1658793177322837,1.0995032099800581,-1.21098773517582,-1.55437461043229,1.7941791194063046,-1.0805038094292836,-0.37764505595953846,-0.47592218135639486,-0.1696070522966664,-0.12914322130476097,-0.7434338792335116,-0.5234349688177375,-1.031811520198117,-0.3968960984252473,-0.9567630005751683,-0.6387051250219742,-1.0172124730669612,-0.35083781346629206,-0.781168389811578,-0.4455149216320985,-0.6470155425120155,-0.5088724826201263,undefined,1496077720821
903d185fccf839df,-0.5822074972839285,-0.3303794832780971,1.0791098473645513,1.0847790153421824,-1.1680758086917356,-1.6044672287425858,1.7601809877551147,-1.3997475566020732,-0.49315279006277385,-0.5164921438473217,-0.12368604546782522,-0.13781697391709116,-0.7390819964349377,-0.5493582881638719,-1.0465483784204415,-0.4049785086073898,-0.967710023990058,-0.6351333446661185,-1.0179751253240605,-0.36123176385982686,-0.7823296119906539,-0.44761035144340294,-0.6462350118123692,-0.5084781912878684,undefined,1496077721120
903d185fccf839df,-0.5170647342461492,-0.2769610015370815,1.0765578041184414,1.0847790153421824,-1.1055799130618902,-1.6450938192774172,1.7966642883932982,-1.2128476657185792,-0.5205720774804765,-0.44783867897997265,-0.13511107782278417,-0.09133846329704123,0.03555314171122996,-0.5039924372181196,-1.0581273389781416,-0.4049785086073898,-0.9355863486062949,-0.5965150545809256,-1.0110342889833333,-0.3396123470455823,-0.7579311840359149,-0.45034479985923354,-0.6451453782917557,-0.49855312169494187,undefined,1496077722333
903d185fccf839df,-0.4893445027872439,-0.27285189655023173,1.1684313609783936,1.1617969399245085,-1.052917145153173,-1.6469432356214022,1.812929639052536,-1.1004083111901588,-0.528273068448786,-0.30819484368719574,-0.14205411066488985,-0.10755024107562772,0.03990502450980393,-0.5104733026692831,-1.0633905042065932,-0.40295792019421495,-0.9382741814818389,-0.5865026706048222,-1.0147286053036135,-0.3425842461147408,-0.7533477917647008,-0.45258144964055447,-0.6485604496787013,-0.5008346883315599,undefined,1496077722680
903d185fccf839df,-0.47548436980508635,-0.2816572384340219,1.2181964584144835,1.1724514756566404,-1.0598188475559045,-1.658177156360525,1.8255763749081886,-1.0304984818091263,-0.523857148388415,-0.34613459615918984,-0.1536709976144695,-0.1462752798990834,-0.1863928810160428,-0.4947341227560443,-1.0612852366427659,-0.40295792019421495,-0.930434159118603,-0.5868319836649732,-1.015512248078982,-0.33097381877327087,-0.753179542429687,-0.455818206419214,-0.6334821097722263,-0.5069930715250601,undefined,1496077723834
903d185fccf839df,-0.45885221022649736,-0.2517194443018388,1.1173907501931473,1.0943574898551423,-1.050510292210214,-1.6637906225702237,1.796230369250514,-1.2267019338076293,-0.5084609751089516,-0.3482485476807367,-0.1417349628326962,-0.12658268550941126,-0.3996351381461676,-0.4993633123640183,-1.068653662072811,-0.40295792019421495,-0.9303968603396655,-0.5919173371666224,-1.0266931520067217,-0.3304040761167482,-0.7584175126763936,-0.45648830081251857,-0.6373725567549711,-0.5066137931077246,undefined,1496077724123
903d185fccf839df,-0.3659891467189933,-0.23997911511141873,1.1601373474970114,1.092798807529206,-1.0257526205649137,-1.6756441217159719,1.7746133701140396,-1.3710985072411215,-0.5468484514657274,-0.32467127746978147,-0.16357006258153736,-0.023815132242629256,-0.8565828319964349,-0.49010499790194306,-1.0886537002480547,-0.40295792019421495,-0.9210977853799015,-0.5663005793659286,-1.0505172928338273,-0.3293261837777496,-0.7524574801479527,-0.48328439744857293,-0.6323274450538415,-0.5071572878051929,undefined,1496077725332
903d185fccf839df,-0.3590590802279145,-0.30689879566926453,1.1818297150889445,0.905118367516883,-0.9934658180712936,-1.7016966621407503,1.839106732060278,-0.9871793584179056,-0.5344660871554913,-0.44390503488383715,-0.1624577672476361,-0.03301297238435061,-0.8609347147950089,-0.4882532832064298,-1.0707589369988724,-0.3665869330509661,-0.920194339771489,-0.5445785826521342,-1.0388396155724091,-0.31132540043177437,-0.7367316125964994,-0.4569457582752518,-0.6029328790974738,-0.4893685721902897,undefined,1496077725627
903d185fccf839df,-0.4020255614834223,-0.4078655214861049,1.5518764940487615,1.5235166614562814,-0.929715066934633,-1.7890128526231355,1.8849416258616871,-0.8115358890292252,-0.4968053067629065,-0.46526970047476646,-0.16555112995119184,0.05644566199117648,-0.8696384803921569,-0.4364065538587393,-1.0676010319720144,-0.29990693598940454,-0.8648599963839864,-0.47615745875187815,-1.0280505326622715,-0.2641753604887074,-0.6922802984576556,-0.42929011587107296,-0.5800484087711207,-0.4804500454654696,undefined,1496077726835
903d185fccf839df,-0.371533234417266,-0.4354552263978101,1.5518764940487615,1.5235166614562814,-0.948589320762161,-1.8138052748707036,1.8955344857359928,-0.816019044878151,-0.477471145772024,-0.48242672890866567,-0.11834680521439205,0.044890161556607855,-0.8739903631907309,-0.441961555486759,-1.0623378888302641,-0.2837420732280373,-0.8675909947115089,-0.4801978768069809,-1.0180101094029121,-0.2458512105422494,-0.6877862363797105,-0.4360071321232578,-0.5844651778495232,-0.4775390364416958,undefined,1496077727127
903d185fccf839df,-0.37014722111905024,-0.4289981198744595,1.7924069512000325,1.6290334777916855,-0.9298179260555779,-1.8593861568545151,1.8962103478449543,-0.8659582703248486,-0.5180026744704211,-0.41669504414751757,-0.12111030325491655,0.02621263630174477,-0.9610280191622104,-0.4012248811982061,-1.0539168112127206,-0.263535934713795,-0.8445311954087216,-0.43087057932873807,-1.0070181189222973,-0.23688931429629967,-0.65675577480495,-0.43126572791393325,-0.5725414338610291,-0.47102652633405717,undefined,1496077728336
903d185fccf839df,-0.3687612078208345,-0.4513046751890761,1.7407276942608854,1.6247479234792395,-0.9358967729833071,-1.8740906441759333,1.9327856900330826,-0.6416723124434383,-0.49210561806163095,-0.4781553949699061,-0.11717931616370024,0.019809778934872325,-0.9697317847593583,-0.38733740302970593,-1.0486536533465027,-0.29182449754254053,-0.8423625383812021,-0.42986997421663686,-1.0044223021910403,-0.24040015926571145,-0.6558391871669366,-0.43529778490805243,-0.567628813923219,-0.47353838269148535,undefined,1496077728636
903d185fccf839df,-0.3535150270350515,-0.3667745008456001,1.7943206024291907,1.658849088646333,-1.0026200888336343,-1.8585126914352077,1.92572203216836,-0.668379835039905,-0.507542412750983,-0.5273730107434954,-0.1481657105562159,-0.01554048740531372,-0.9392686051693405,-0.3845599022156961,-1.0433904660313496,-0.2978862769144259,-0.8198961403372707,-0.40788199447742524,-1.001819488404224,-0.20421381336891295,-0.6385999768953374,-0.437470327197279,-0.5560207959712701,-0.4769979873592809,undefined,1496077729846
903d185fccf839df,-0.4200436653494076,-0.31922618369979455,1.8798145594477673,1.7906354764668353,-1.0024349451866554,-1.85211194156258,1.9539503708302242,-0.4666835155342821,-0.5062277467164981,-0.5230774925827293,-0.1599497624975811,-0.027995414839545096,-0.9001016599821747,-0.3678948455285388,-1.0444431182188478,-0.3120305371302575,-0.8051557532673874,-0.39335422124962816,-1.0049610564083302,-0.19144850132658972,-0.6298060631428011,-0.4393352162627512,-0.542181045045036,-0.4767588678689031,undefined,1496077730127
903d185fccf839df,-0.4380619762478513,-0.2828312538162685,1.404495869517447,1.4601609199168555,-1.0289411848923817,-1.8339159242399792,1.9018880998080967,-0.7806004447713263,-0.5467828115340532,-0.61136447456112,-0.1795027359995051,-0.024512541839074954,-0.8174158868092692,-0.36141404483124795,-1.0454957556818785,-0.21706200550467192,-0.7630319041305722,-0.3622974657657511,-1.0098938082476654,-0.1414189516273486,-0.6087899766299386,-0.4455552129451798,-0.5334821826150312,-0.45096723376401304,undefined,1496077731375
903d185fccf839df,-0.41449961215654463,-0.28694035880311825,1.4325683452246547,1.5094654691808724,-1.0013343749853783,-1.839193980393721,1.8855964521617443,-0.8827532428908802,-0.5583720789141186,-0.6192838915325266,-0.17950650087896555,0.0018928209921938253,-0.8174158868092692,-0.36789491028241156,-1.0486536533465027,-0.23120629398522508,-0.7699354999579437,-0.3543306227469354,-1.0060455622777271,-0.1381082861391055,-0.6029821983147001,-0.44790023945330903,-0.5374821141877848,-0.4519257662801575,undefined,1496077731686
903d185fccf839df,-0.34935698714040425,-0.2523064739139564,1.5378402561951579,1.6122072602199289,-1.0112189277167938,-1.8212029362745084,1.8789745997076313,-0.907132171593154,-0.5762156474022917,-0.4865151509064943,-0.18891018518130226,0.04295539265136734,-0.8783422459893049,-0.4197415878270039,-1.0054956793313912,-0.16654678641031298,-0.7182105443800366,-0.3315130268821489,-0.9867063773938489,-0.06408795816530366,-0.5749146110177166,-0.44209040723018284,-0.5574495415913968,-0.4511044000718594,undefined,1496077732845
903d185fccf839df,-0.36044509352613024,-0.27109093923984456,1.5576184642840338,1.5510694697838459,-0.9918098177152842,-1.8278505848582134,1.934581845798753,-0.5454651168681172,-0.5663158548377345,-0.5443273486814583,-0.20267968186709892,0.03684205511215015,-0.8174158868092692,-0.4197415878270039,-0.9991798840021426,-0.16856737482348785,-0.7202837398787431,-0.31759954939591534,-0.9834598572327097,-0.06802996041494999,-0.5679442800176087,-0.44502203382989536,-0.5581616653073989,-0.44874224579134103,undefined,1496077733125
903d185fccf839df,-0.20936954050438406,-0.21180232213161126,1.4325683452246547,1.4887259842913092,-0.951870455424731,-1.8084689851257243,1.8795400069285542,-0.8581121486533371,-0.5673764949467016,-0.5347280768962701,-0.2505191059771922,-0.0006844489612893929,-0.7042669340463459,-0.39011492974526485,-0.9770746150742405,-0.174629224857177,-0.731440035058472,-0.2564423117718213,-0.9578095482101385,-0.0017242549425063455,-0.5191243527273393,-0.4371571524749775,-0.5880373200766356,-0.45909101684882164,undefined,1496077734327
903d185fccf839df,-0.22045764689011008,-0.21180232213161126,1.4957317967712958,1.5940414902631272,-0.9448247518670971,-1.80522435509322,1.8614916458546378,-0.9682839059408948,-0.5744970866515455,-0.5200194675279413,-0.25977941456130776,-0.027196195246296045,-0.6999150512477719,-0.3549332441339571,-0.986548315430347,-0.1806910183614231,-0.728868006106115,-0.2556190295256203,-0.9533945606020088,0.00822314144852311,-0.516340321519491,-0.43816458108670536,-0.5911827477838759,-0.465109072092553,undefined,1496077734610
903d185fccf839df,-0.2315457532758361,-0.22295560709591764,1.4957317967712958,1.5513943083168167,-0.9668361418089717,-1.8012762948921253,1.8488817288187598,-1.0604779800539224,-0.5652912009157323,-0.5083147176758105,-0.2495737696294852,-0.04745078258624045,-0.2647267713903743,-0.3151223041608026,-0.9539167086833079,-0.22110323886046468,-0.727014151475355,-0.24337744910931505,-0.9462508168926674,0.023559994243858552,-0.5047975918777774,-0.44551902549364897,-0.5968621083891393,-0.4745513755461055,undefined,1496077735824
903d185fccf839df,-0.2953023649937607,-0.22295560709591764,1.5008358832635154,1.4481351463105177,-0.9696338509873268,-1.8006963141370607,1.927384064814819,-0.5436472817574997,-0.5690372709970656,-0.5682136725742257,-0.2679192180014149,-0.04462627846987452,-0.14287405303030304,-0.3151223818654499,-0.9476009059918256,-0.20291771702411873,-0.6910459439304684,-0.22930564837995673,-0.9460968872430094,0.032121530719732366,-0.49671422625406525,-0.4435783851685172,-0.5758407539196392,-0.4897698158885498,undefined,1496077736114
903d185fccf839df,-0.20382548731152106,-0.24584923586464025,1.6941532862248059,1.6358701206905413,-0.9400316141944277,-1.7988073007648793,1.9195051668288439,-0.5824536709905578,-0.5885140536961934,-0.40428434283723547,-0.31328273717264715,-0.08445335177440354,-0.13852217023172905,-0.24846231052611534,-0.9581272290864952,-0.1645261697324166,-0.6539870118873563,-0.20825494370150244,-0.9308858203237084,0.06450446029512756,-0.47610142640618625,-0.4556861012324408,-0.5844055904244634,-0.4875359366246135,undefined,1496077737325
903d185fccf839df,-0.2953023649937607,-0.174820304179983,1.6909633592356434,1.5562767116409433,-0.9929206689143758,-1.7737446867517306,1.9006389389727774,-0.6813900694975308,-0.5718614312929248,-0.3324957914696213,-0.33770563478855087,-0.09572532623136315,-0.13852217023172905,-0.24290730889809564,-0.9549693387841047,-0.14634070442551372,-0.656030463728291,-0.21174439550164542,-0.9297033593039011,0.04970655412701,-0.47927224685923936,-0.4541747884571085,-0.5840909809952347,-0.48859460230489166,undefined,1496077737620
903d185fccf839df,-0.22322967348654157,-0.2822441949761586,1.5493247049396013,1.4900843028834792,-0.9829949719744365,-1.7849809371590875,1.9265083434039905,-0.5441598782088963,-0.56097135138272,-0.32666180608078577,-0.2713661938308178,-0.16396176697380566,-0.7042669340463459,-0.20957724732687927,-0.9549693019729357,-0.12209341734964324,-0.6451619681285211,-0.21534784114616465,-0.9220418510636182,0.02705544026971851,-0.4851417329528313,-0.44010171425680866,-0.5631069073889199,-0.4803420496085097,undefined,1496077738834
903d185fccf839df,-0.21768562029367858,-0.3004416599179216,1.6456644645487202,1.515706117974528,-0.9696647100529564,-1.786446028710024,1.8877344865677756,-0.7960846487729584,-0.551511436265642,-0.2778023305147262,-0.30476149776216543,-0.17535237858091954,-0.678155637254902,-0.20031891991402948,-0.9570746063479321,-0.12815523911861088,-0.61776358732022,-0.2178113560650335,-0.923875015537776,0.021542797365364984,-0.48659221002408054,-0.44008706257643737,-0.5700779032047324,-0.48110531345674834,undefined,1496077739147
903d185fccf839df,-0.21075551929719008,-0.25289338661410454,1.2679613017136244,1.2095496885242942,-0.9983206606457766,-1.7358968802904213,1.8649550996350641,-0.8688524828878887,-0.5411772577731976,-0.270115768899807,-0.2908762188598705,0.14434806473947104,-0.7434338792335116,-0.23364898148524585,-0.9644430317779774,-0.11805215572912893,-0.6335733473487432,-0.2728193054780401,-0.9362313837967875,-0.025499453149944902,-0.5260855296991248,-0.44461919631055064,-0.5527418794203407,-0.48827686258803976,undefined,1496077740371
903d185fccf839df,-0.3077765191831122,-0.22941278668924905,1.308156109908328,1.217387259612923,-0.9865743942717528,-1.7265659480117688,1.8945851272093774,-0.6609035794370827,-0.5559068714430871,-0.2959883368367813,-0.27540406576809606,0.15239978027788045,-0.7608414104278075,-0.23920398311326554,-0.9654956618787742,-0.13421703262285695,-0.6411695411406629,-0.2742442177445499,-0.936917071299404,-0.031027495442106527,-0.5274546174416425,-0.44533273632161546,-0.5556863923620943,-0.48779390001617856,undefined,1496077740613
903d185fccf839df,-0.42835981414952157,-0.17599439263221048,1.0631599582817892,1.0464646542253422,-1.0405023050467566,-1.634123100197413,1.8499625790898402,-0.8183096035331238,-0.4628995124421755,-0.3293699169904927,-0.23286874437469246,0.14458935553882488,0.13999832887700536,-0.31419650509153146,-1.0023377890290006,-0.20695895037991152,-0.6426332577071375,-0.3574780956549392,-0.9812348718694083,-0.15630924740462146,-0.6022390786025813,-0.44212059365930906,-0.5317249156583534,-0.4781344245355303,undefined,1496077741885
903d185fccf839df,-0.4117275855601131,-0.12198889589307348,1.0631599582817892,1.0464646542253422,-1.0661342623626975,-1.633671227764685,1.8533760650331743,-0.8012882018287847,-0.4816077128093345,-0.29256986285314796,-0.23297416711263816,0.10533765670270835,0.10518326648841357,-0.30308647593394294,-1.0065483315188894,-0.20291774528884027,-0.6467909626965982,-0.36978933793124924,-0.9827111989582701,-0.1669649713842054,-0.6112348516961397,-0.4395662535689262,-0.5271422924347364,-0.4754224352612992,undefined,1496077742163
903d185fccf839df,-0.4075695456654658,-0.25876359505130314,0.8538919038268884,0.7696506942613257,-1.100200493690818,-1.5862362713543978,1.8375341064464525,-0.8578831084185552,-0.46069267600558983,-0.14788215545887443,-0.14752562028787072,0.18616772142184634,0.16610962566844922,-0.29660570113820117,-1.018127306801057,-0.2392886335055637,-0.6426955761552314,-0.38970644538139704,-0.9817946170453955,-0.2366891340073927,-0.6327802319459058,-0.4305268199122049,-0.5323932606172378,-0.47417818467945383,undefined,1496077743351
903d185fccf839df,-0.41449961215654463,-0.24702329508887536,0.8538919038268884,0.7696506942613257,-1.0833216657729314,-1.5936269474248268,1.840952855139279,-0.8393999486759144,-0.46142522310955364,-0.13186431772565305,-0.1607926312021171,0.18988866826886489,0.16610962566844922,-0.31327070602226026,-1.019179936901854,-0.2332268117365961,-0.6432041593035493,-0.38691994998617124,-0.9800104303024281,-0.23685851635534708,-0.6311234669100091,-0.43196366495726934,-0.532397078437968,-0.4736506721409217,undefined,1496077743624
903d185fccf839df,-0.45469403231021116,-0.2840052399705228,0.8188011821244041,0.7502907484952818,-1.0435263060056368,-1.5927441657354362,1.8229728715742224,-0.9537925970962589,-0.4407010064890409,-0.3420165995783044,-0.10664220967100915,0.23778607118117792,-0.49102467691622104,-0.3058640026495019,-1.017074654613559,-0.2392886335055637,-0.6679780272627309,-0.4154688596187743,-0.982298387306175,-0.233778828275763,-0.6446559495870505,-0.4284937322962863,-0.5551405029384218,-0.47317921754449466,undefined,1496077744859
903d185fccf839df,-0.43390383283697487,-0.2840052399705228,0.857719968696053,0.788126702832119,-1.0372623168392956,-1.5958909678739133,1.8169663952256463,-0.9958387680925956,-0.43828938973252607,-0.38209362537872515,-0.09843657726543398,0.19584689368129268,-0.1298184046345811,-0.3114190042775216,-1.018127306801057,-0.251412333572942,-0.6622389593311098,-0.4136576378045535,-0.9798425069147926,-0.25590639504172996,-0.6459692322606394,-0.4305537107372344,-0.5448575499572784,-0.48477117688397703,undefined,1496077745142
903d185fccf839df,-0.48241433277993595,-0.27226494000809504,0.8526161363407829,0.7593989316893514,-1.042292022977181,-1.5764464793525677,1.8260155641331177,-0.9086837806907759,-0.38797326111283514,-0.4350630866873216,-0.07657039163194279,0.15611169514688403,-0.0601882798573975,-0.3058640026495019,-0.9991799134510778,-0.31203055126261825,-0.6598906159031881,-0.41082047947447853,-0.955430633772183,-0.2792042418307405,-0.6405116963378996,-0.43014666894288767,-0.5508803126682628,-0.48666053055919023,undefined,1496077746350
903d185fccf839df,-0.44637798702632636,-0.2652207600306384,0.8328376741149573,0.7174771636506085,-0.9810818411675846,-1.5772756886355364,1.7874152701354165,-1.1387809055503235,-0.4393772427007078,-0.4336318229198423,-0.04881544383901338,0.11564639818555808,-0.1124108734402852,-0.31975150671955116,-1.011811496747341,-0.2797008822693268,-0.6830515555735021,-0.42061121005645324,-0.9598106374421534,-0.2626817107419252,-0.64419812758258,-0.4302793099417974,-0.5504746486539787,-0.48010132214271084,undefined,1496077746623
903d185fccf839df,-0.43667592844422587,-0.32627031983526267,0.8685662795604943,0.8040796873089706,-0.9388384820682393,-1.5935617288046475,1.802852227989758,-1.0470757952960794,-0.4296281130312994,-0.5025447680216003,-0.10367546046606183,0.17465598421224313,-0.7695451760249554,-0.41326074827738934,-1.008653591720483,-0.3019275385349402,-0.7261170373434478,-0.47193338506437105,-0.9742100740428433,-0.258970685995174,-0.6731054485450475,-0.45890027972477115,-0.57197866494723,-0.49318726790399187,undefined,1496077747848
903d185fccf839df,-0.46855423430318816,-0.37205760660070025,0.9145033121274198,0.9472362447622642,-0.9280899290171318,-1.6166724393049277,1.8335183949861826,-0.8933832451658195,-0.4268687009400934,-0.5529081220067533,-0.10547998072293714,0.17515160213244024,-0.8087121212121212,-0.4002990821289349,-1.0086536138071844,-0.33425723579295313,-0.7200116304406512,-0.4753848394848197,-0.9709075792356469,-0.2886742870456638,-0.679655094182807,-0.45715630199252155,-0.5646287923840293,-0.4922310840201327,undefined,1496077748162
903d185fccf839df,-0.33272479305640545,-0.29398449493858636,1.135893190795918,1.1280004478205063,-0.881238579661078,-1.6357838485656802,1.8896253126393323,-0.5449520825924958,-0.4499154133096118,-0.6353749485819836,-0.08265156202873876,-0.03356885690432193,-0.8087121212121212,-0.4632557629295666,-1.0107588666465441,-0.32819541402398555,-0.7219783767817521,-0.4888613437410431,-0.9741401056710428,-0.27553941373963464,-0.6860980849978089,-0.45333515182063755,-0.5563230850129991,-0.49677710942421716,undefined,1496077749323
903d185fccf839df,-0.35074296593321025,-0.2834182249724014,1.2009702935717173,1.1843221787282519,-0.9026019730161351,-1.6538005150089663,1.8555824738054993,-0.7948379887480149,-0.4761284839721565,-0.6423981505869614,-0.12607445103802695,-0.02831563184978931,-0.7738970588235294,-0.472514103293191,-1.0097062365457474,-0.3443602767853528,-0.7290219745638582,-0.49792378514125446,-0.975609435949028,-0.2938481661426208,-0.693853069948058,-0.4512579341473844,-0.5721767175407764,-0.4919844253794965,undefined,1496077749618
903d185fccf839df,-0.33272479305640545,-0.2493713550813609,1.383441639805516,1.3243007533268663,-0.8680111754421732,-1.7070562411239387,1.834110111240721,-1.002114915504289,-0.5040016194661656,-0.6562065192988807,-0.16729978935788928,-0.04742307012409119,-0.6999150512477719,-0.5234349947192867,-1.0023378111157022,-0.3605251112819985,-0.71599904215173,-0.5113052944948671,-0.9747978055753633,-0.2757241947080452,-0.6988861845166913,-0.4454923721486691,-0.5676351992661407,-0.48134596185384754,undefined,1496077750849
903d185fccf839df,-0.3036184447830552,-0.24584926509263258,1.3732332126841276,1.3422554732764578,-0.8062455643440701,-1.7143094919532138,1.87066704847093,-0.7572113192018329,-0.5073039618792227,-0.7674613830622373,-0.1745160606634232,-0.04187836746879806,-0.6520443404634582,-0.5123249526109236,-0.9854956779673165,-0.3221335922550179,-0.7188531380854892,-0.512882197797201,-0.9695152131983115,-0.259371045294069,-0.6952915706503879,-0.4346691038068141,-0.5589127349013333,-0.4718861172197934,undefined,1496077751142
903d185fccf839df,-0.3244086787617012,-0.3344885298089621,1.4312925777385492,1.3998529888401205,-0.7877210223713699,-1.7132333835387594,1.8639347411287785,-0.7997468439012843,-0.47286072249225314,-0.7393857150063552,-0.2307296313222647,-0.1171164502985292,-0.8783422459893049,-0.5197316430329075,-0.9697061896441953,-0.21908259391784676,-0.7108072737325006,-0.5208173752505199,-0.9478181023088288,-0.09362217927759235,-0.65784265940597,-0.4445062011295072,-0.5574612707361819,-0.4683935306776841,undefined,1496077752324
903d185fccf839df,-0.2980743915901922,-0.33977178170402395,1.4242743317432724,1.3998529888401205,-0.8287095253717455,-1.7178732279556308,1.871874126689461,-0.7672807745021363,-0.5129542929735994,-0.6692922926589241,-0.22416160141809507,-0.12253325002737002,-0.9740836675579323,-0.5280641454749371,-0.9697061896441953,-0.14027888265654612,-0.6911569399997006,-0.5217293192286511,-0.9495812986864539,0.015691386870705995,-0.6343310685407731,-0.4420268023921442,-0.5591883406451732,-0.5024806315555266,undefined,1496077752621
903d185fccf839df,-0.2883722639972722,-0.33977178170402395,1.3745094884441318,1.3656851085035189,-0.8194112567053493,-1.7204959514028264,1.8657834877261128,-0.8189685030516624,-0.528671233193213,-0.6315634216117342,-0.21646897178600574,-0.04067010640085587,-0.8000083556149733,-0.47899495579358004,-0.9539166939588403,-0.09784607374432967,-0.5998739370637145,-0.48697412410565727,-0.9492944292264129,0.059823331762084556,-0.6076025853032548,-0.44251804584460563,-0.5791481736991159,-0.5162651771009059,undefined,1496077753826
903d185fccf839df,-0.3188647290850674,-0.293984465710594,1.4510707858274252,1.3721730120288536,-0.8205735400445853,-1.713429039761719,1.893525313270963,-0.6247310373764663,-0.520240181965935,-0.6718930539965945,-0.21100038776194188,-0.025786319012781948,-0.8130640040106952,-0.4947341227560443,-0.9570745916234645,-0.07764002002425195,-0.5998739370637145,-0.4918884887093668,-0.9470134688867332,0.07794730191774074,-0.6086335578259842,-0.4397461670135812,-0.5630230120202963,-0.5244570241287345,undefined,1496077754127
903d185fccf839df,-0.35628708813689275,-0.3068989125812339,1.3962016018991155,1.3656851085035189,-0.8524180549548712,-1.723922262772957,1.8957133128952819,-0.6500699091181734,-0.4890626105009471,-0.5478076319999104,-0.2047430676566254,0.0454334897460906,-0.7651932932263815,-0.46325577588034117,-0.9549693166974034,0.08804981268049182,-0.5907237156205797,-0.48240807151493775,-0.9489865694071468,0.2111130596180808,-0.5736406102962777,-0.4429289182817056,-0.5942841486969768,-0.5462576550079508,undefined,1496077755334
903d185fccf839df,-0.3257947955761462,-0.28811440341335715,1.371957445198022,1.327627324006708,-0.8780397274800095,-1.7311918184928505,1.9033292321061743,-0.6310989778448619,-0.4754792292554085,-0.4985340579129381,-0.18548891754136712,0.024477323822951806,-0.7042669340463459,-0.4558490984091319,-0.9518114190327791,0.19716266105135213,-0.5746239554678974,-0.4843902830465247,-0.9419267871285895,0.3336076923220892,-0.5430878429451907,-0.4474520859876949,-0.654409601771186,-0.5531155604370281,undefined,1496077755632
903d185fccf839df,-0.3923233993850926,-0.3708835766044575,0.7843488524388715,0.6973173696843636,-0.929118498752987,-1.7240829805865938,1.898198478215949,-0.686431106603202,-0.43792374029613634,-0.4839651531193084,-0.17007427808888048,-0.028236442283007385,-0.6172292780748664,-0.4530715846443475,-0.9233903179644596,0.3305226834391968,-0.543177844694307,-0.5165743024606841,-0.9204045967190039,0.5809683220713563,-0.49583959356255214,-0.4677272721573572,-0.7448153554795013,-0.5078144878139682,undefined,1496077756916
903d185fccf839df,-0.4172716732583858,-0.38262387656688523,0.7754164469405379,0.6875599423465321,-0.9181642320731916,-1.7398263085747137,1.917043666596784,-0.5939240431800243,-0.41520701437605684,-0.519142408224581,-0.15222158655118034,-0.017899929033776508,-0.6172292780748664,-0.4530715587427984,-0.9233903179644596,0.32244024499233276,-0.5633451340395704,-0.5150480630067492,-0.9195160015725052,0.5959510096117538,-0.49264595686753737,-0.46862131990336164,-0.746376183103329,-0.5102461882342453,undefined,1496077757159
903d185fccf839df,-0.4034115057708186,-0.409626566480469,0.36772741130602576,0.29966807306397697,-0.9379950572276883,-1.7468652690824513,1.894861249764169,-0.7777693831191987,-0.40582984787171444,-0.47923465181990316,-0.12312893960747885,0.07811810514989911,-0.8391753008021391,-0.42714826529821315,-0.9391798283742822,0.587139899207898,-0.5514239193035015,-0.5472637478978187,-0.9292415688256619,0.7791309173138937,-0.4715939664101018,-0.4661105187075002,-0.746608643297091,-0.5022441948300416,undefined,1496077758344
903d185fccf839df,-0.3923233993850926,-0.4143226864654401,0.43025221669876595,0.35409312203536525,-0.9409573382948506,-1.7506269905882714,1.9230159518340069,-0.6035377202031116,-0.392802388042549,-0.5354965880205574,-0.1119473287710466,0.058319948626562486,-0.843527183600713,-0.42251907569023917,-0.9402324511128451,0.6740260771807842,-0.5194573586685682,-0.5466114544831174,-0.9226575699558692,0.8549374656325806,-0.4516545020870216,-0.46941730784136765,-0.771085103576204,-0.48999757841286806,undefined,1496077758632
903d185fccf839df,-0.43944795504065737,-0.43721635907615125,0.29307976515189055,0.3365315036986059,-1.009922933534896,-1.7633632702419177,1.9203703643119698,-0.6573055821074633,-0.3942419400879238,-0.5555345743476383,-0.07445477206129981,0.03147966858062489,-0.8304715352049912,-0.47343996711633485,-0.9570745621745294,0.8215305011080681,-0.5363848743543561,-0.5677761523636947,-0.9378896269774789,0.8996391509188135,-0.4583217229607758,-0.4641565248681689,-0.7699977781055932,-0.45699068146197686,undefined,1496077759837
903d185fccf839df,-0.46855423430318816,-0.43252023909118015,0.29307976515189055,0.299135459884733,-1.0202497727933704,-1.7692981717382148,1.9101062324894247,-0.7301585253862949,-0.4000011440480718,-0.6299850029842116,-0.07594212015931404,0.03287502364825681,-0.8087121212121212,-0.4836240935984558,-0.9549692946107019,0.9710554003896409,-0.5411895452937296,-0.5742484204365693,-0.9435220598004918,0.926524836802653,-0.45729761388387963,-0.46621444949604623,-0.7613859220867745,-0.45645056185866695,undefined,1496077760130
903d185fccf839df,-0.42697383535671557,-0.4272370748800953,0.3957998870132333,0.3315954567028314,-1.0049343691849035,-1.775195805009269,1.9306976135126863,-0.60162970246126,-0.4129598505516595,-0.5774720919552433,-0.04534916055533442,-0.07387976394682662,-0.7738970588235294,-0.4901049331480703,-0.9560219247114987,1.0357148231703883,-0.5697802128522235,-0.588541874465933,-0.9417798535985803,0.9070766002982296,-0.46861067774770754,-0.46888194154077534,-0.7440810566732148,-0.45330139587861457,undefined,1496077761338
903d185fccf839df,-0.45192204021918936,-0.4589359140066426,0.2503334219849759,0.3050876592797821,-1.0448840164583093,-1.7722283543481017,1.8784512572956258,-0.951098333693956,-0.4080393115427393,-0.5393985652119827,-0.04988142564367741,-0.07250229804672843,-0.7651932932263815,-0.4919565830897108,-0.9486535360926224,1.0559209334199091,-0.5675093221428622,-0.589485482946521,-0.9386522790694178,0.8872741999658725,-0.47116263673306497,-0.4681968220020395,-0.7480663611351241,-0.45859735879753055,undefined,1496077761619
903d185fccf839df,-0.4408338993280536,-0.47713334972041327,0.2286408002560933,0.3050876592797821,-1.053842858032673,-1.7903544937176792,1.8797661637412968,-0.9836809620712592,-0.3934022900691808,-0.5521178586062864,-0.01686617950525586,-0.02471195226848199,-0.7216744652406417,-0.5095474776984629,-0.9328640477695013,1.0720857820489156,-0.5678863198645148,-0.6144752790684664,-0.9488606267073766,0.8887986460919799,-0.4843812702279395,-0.4705051220796648,-0.7201933470076325,-0.4342511392539568,undefined,1496077762840
903d185fccf839df,-0.34381296845295095,-0.47713334972041327,0.40919798698683496,0.3475560265786333,-1.0298360412529157,-1.7893855301088206,1.9165755579139292,-0.7323319508509724,-0.3987462999073208,-0.5857126002409456,-0.029525117872549102,-0.043501044868655366,-0.7173225824420678,-0.49843748739319804,-0.9402324805617803,1.165033753526048,-0.5582714526798146,-0.6063247807605195,-0.9494063777967138,0.914498651420671,-0.4757598091412735,-0.4725963733782737,-0.7107672535905043,-0.4231371220015048,undefined,1496077763112
903d185fccf839df,-0.38400731959579804,-0.5581414779171494,0.348586832823253,0.3443735664111389,-1.0871685149249175,-1.793776146041279,1.8765919820567407,-1.0131612051551022,-0.42466783397626584,-0.5282801835330748,-0.041032720828597595,-0.01611437446459359,-0.7477857620320856,-0.5308416462889469,-0.9223377173125978,1.2579817815326233,-0.5787804636355515,-0.6244559991954394,-0.9269606079293295,0.945049166432214,-0.4698352011727162,-0.48333828146094726,-0.7083210568995094,-0.45149727785460714,undefined,1496077764362
903d185fccf839df,-0.5142927076497177,-0.5698818071075695,0.4002660897624002,0.34667228009950235,-1.1156907520904027,-1.7857565753847466,1.8555009373278646,-1.1466910157462522,-0.40778342704976783,-0.5363264293896554,-0.04252696295293877,-0.017080565491810425,-0.7477857620320856,-0.5308416462889469,-0.9223376952258965,1.2579817815326233,-0.5694609803203703,-0.6226574429474466,-0.9308158509364758,0.956828976996689,-0.46807813136955684,-0.48649032360599864,-0.702955872393686,-0.44598103693909763,undefined,1496077764677
903d185fccf839df,-0.25787997143652563,-0.44895660058259435,0.6401581548967196,0.6859529481607544,-1.0462828660701904,-1.7933615412203963,1.8450001242411131,-1.174910966281193,-0.4731670538315751,-0.32637922459374175,-0.09782174454096852,-0.010743795066299766,-0.9958430815508021,-0.5363966090646429,-0.9391798283742822,1.1246215895564493,-0.5496991223649589,-0.617857071501567,-0.9413880318285797,0.9435709153193507,-0.4743520889620147,-0.4744895752343131,-0.7207461843425108,-0.445603697187878,undefined,1496077765842
903d185fccf839df,-0.18303525333287501,-0.45189167557320126,0.689285368589757,0.816346165391964,-0.9740258446090098,-1.7999579464171793,1.884962655385461,-0.9024738802627871,-0.4889404097486011,-0.2959996078805377,-0.08949937273196835,0.003350478355829264,-1.0001949643493762,-0.5363966090646429,-0.9360219233474241,0.8861898956240941,-0.5970224328606912,-0.6165334866882419,-0.9361474208428551,0.8594492076982021,-0.491307130319599,-0.4699297967196102,-0.7193728118554426,-0.44690135311020784,undefined,1496077766122
903d185fccf839df,-0.4172716387529761,-0.3943642057573053,1.0765580582553909,0.9102449557056255,-1.0282623237345005,-1.7901681547487764,1.8684185518442074,-0.9896263731878535,-0.5183118273902939,-0.22866737089854253,-0.09881048355402244,-0.010620662776960464,-0.9523242535650625,-0.5447291762605452,-0.9307587581189725,0.7528297601773634,-0.6207845181694962,-0.6385657983509219,-0.9388761777025824,0.6688780457241258,-0.5408441447885037,-0.4845797116174914,-0.7467757438969184,-0.4116455146415513,undefined,1496077767326
903d185fccf839df,-0.5142927076497177,-0.3855590100134768,0.9961686960029328,0.9157078112841542,-1.0553651371133035,-1.772512522062721,1.8552090328097262,-1.0561882324410063,-0.5063810370944897,-0.14221554801909173,-0.10188860803691671,0.0005912735905486844,-0.9523242535650625,-0.5354708294215336,-0.931811395582003,0.710397064324033,-0.6201123226532944,-0.633030805698688,-0.9362033959966282,0.6614867913175668,-0.5405412021240427,-0.48519691426579115,-0.7352618423731156,-0.41106767730735516,undefined,1496077767612
903d185fccf839df,-0.3271807743689522,-0.391429101538706,1.3298484775002613,1.2387401938858245,-0.9883641072328829,-1.7329107977006726,1.8537021611864268,-0.9841389446676179,-0.5281766474928598,0.08630797974703079,-0.10634424949331342,-0.036101649458243415,-0.8174158868092692,-0.5530616722271875,-0.9412851033003433,0.6901909823392337,-0.6733436821568177,-0.6288383965745412,-0.9355386987492466,0.6721117183524091,-0.5362020742956642,-0.4791449322692079,-0.7619567236173413,-0.4019035221720228,undefined,1496077768839
903d185fccf839df,-0.4172716387529761,-0.4002343265105268,1.3087942477883303,1.13867072343154,-1.0143560655155792,-1.7269922010370067,1.8240484690472671,-1.1833430490574697,-0.5184444450019654,0.011197876305124461,-0.09713107757231687,-0.035493008866838247,-0.8217677696078431,-0.5604683432230095,-0.9412850885758758,0.6760467221234021,-0.6780895996136826,-0.6272741593810287,-0.9315924973169277,0.6826904501451486,-0.5334872770507727,-0.48069280081174076,-0.7620812455921764,-0.40687253603853846,undefined,1496077769121
903d185fccf839df,-0.33272479305640545,-0.4190188649063959,1.3285727100141558,1.142806507761762,-0.9404841863885174,-1.6880100521233214,1.82814307670649,-1.0549222590179859,-0.5601884276725599,-0.013872031946153138,-0.15652424813930985,-0.04566217132229379,-0.8130640040106952,-0.5900950272062976,-0.9454956310657644,0.44165620501739655,-0.766262686234055,-0.5988455752408995,-0.9168782043919481,0.5572701112043309,-0.5473919872790093,-0.4754491534578992,-0.7834256513444827,-0.40312915871968436,undefined,1496077770331
903d185fccf839df,-0.34935698714040425,-0.3468159616814806,1.3298484775002613,1.188659541482398,-0.9036716770179244,-1.6521933416366203,1.8564844953460078,-0.7938591000202735,-0.5870347397625997,-0.0408462881182141,-0.12606064515291487,-0.05247692849462455,-0.8174158868092692,-0.5900950272062976,-0.942337740763374,0.3972028359567268,-0.7815392484589923,-0.5979082994880588,-0.9272124942097268,0.4542237154624646,-0.5729537461812086,-0.4696205955484239,-0.7508986883486646,-0.4242312804007571,undefined,1496077770605
903d185fccf839df,-0.2772841576115462,-0.23528293667046293,1.3202781882588748,1.2359203939200587,-0.821941527169946,-1.58253511442545,1.8396379612638698,-0.7075075657494233,-0.664186450161968,-0.08360709106192675,-0.17071826009007487,-0.03635287045433793,-0.8391753008021391,-0.581762524764268,-0.9349693153333286,0.255760262063132,-0.8167127037491204,-0.5537866807603257,-0.9421926660764786,0.23117723079017552,-0.6066516014818232,-0.46783495665668684,-0.6601253120729504,-0.44553331141781194,undefined,1496077771835
903d185fccf839df,-0.2925303038919195,-0.24584920663664792,1.3585593452244205,1.369669040758633,-0.833080937960841,-1.5605680599938005,1.8055898628231097,-0.897741068417155,-0.6479847102199683,-0.07452230147939605,-0.14760888490641685,-0.052601345765700226,-0.8391753008021391,-0.5521358278302054,-0.9254956149772221,0.21736868650670832,-0.8180927607873352,-0.539923867393788,-0.9375747707265939,0.22535661854610242,-0.6025259359993739,-0.46873348070281695,-0.6475621792494688,-0.44499020621587954,undefined,1496077772115
903d185fccf839df,-0.44221998163708887,-0.232347861679856,1.3770615316902417,1.4624152283900147,-0.8106375498716447,-1.5583855628869867,1.7982527064456892,-0.9383110697255789,-0.6391379377697408,-0.16438370755335394,-0.12293219779264226,-0.059138008988251854,-0.8087121212121212,-0.5243608067393324,-0.9128640169564913,-0.05743393803945269,-0.8537840324110524,-0.5187465042847191,-0.9396738144177913,0.0414837829393865,-0.6343645818240043,-0.4642006817893266,-0.602634557851547,-0.4843377335571684,undefined,1496077773443
903d185fccf839df,-0.4574661279174621,-0.232347861679856,1.4370345479738214,1.4559600878214978,-0.8322169427824885,-1.5550710556879135,1.7714444627017158,-1.1121899405036701,-0.6270133972319031,-0.18674179363837776,-0.10610569899504149,-0.06942746061660436,-0.7869527072192514,-0.5289899833965318,-0.9128640169564913,-0.04733093944413536,-0.8537840324110524,-0.5172455963618807,-0.9380365605258394,0.03204453613659694,-0.6348208786247304,-0.4641093309583425,-0.6006289282811615,-0.48574318797125504,undefined,1496077773666
903d185fccf839df,-0.45053606142638336,-0.3245093332968832,1.5352879588120987,1.5581416937641555,-0.8172409686626781,-1.5369868415469605,1.7954624781618695,-0.9224083801390198,-0.6130278232367741,-0.4347886825588172,-0.06048505900664017,-0.0048176435869094454,-0.9392686051693405,-0.5123249785124727,-0.9033903239626186,-0.1382582377139282,-0.8585597950144184,-0.5205133948897017,-0.9309278006139647,0.018632489466303588,-0.6393033457939659,-0.46307618088096025,-0.5980388050480258,-0.47320978354791154,undefined,1496077774829
903d185fccf839df,-0.4436059949353046,-0.3462288882273745,1.5352879588120987,1.5823451738495133,-0.7876387306454601,-1.536858733282611,1.8051638299481507,-0.8478568726259925,-0.6701312464410442,-0.4772259121139511,-0.07107844648942034,-0.029546161281741104,-0.9392686051693405,-0.5049183010412635,-0.9023376938618218,-0.1685674030882094,-0.8706006788200241,-0.5160486693479903,-0.9321172588422576,-0.011332885291396148,-0.6428922560890454,-0.46627211080951303,-0.586884305091585,-0.47960891581991155,undefined,1496077775119
903d185fccf839df,-0.4117276890763423,-0.32040022831003345,1.5352879588120987,1.6598072650771338,-0.7702867573989537,-1.5269338440153541,1.830246918429885,-0.6599771106216921,-0.6850398524532938,-0.37631959335838455,-0.06417622817579001,0.03587025194051027,-0.9914911987522282,-0.4901049201972958,-0.8897060737543897,-0.15846440449289206,-0.8943455722912573,-0.5310577465333459,-0.9248475724147948,0.014875269477449566,-0.6426521706349074,-0.4688443041795001,-0.5921616674745886,-0.48549964553172925,undefined,1496077776328
903d185fccf839df,-0.4117276890763423,-0.3004417183739063,1.4695729722932465,1.6329451271141433,-0.7713358978927201,-1.5224943142083665,1.8308754435527401,-0.6450535828250649,-0.6932043036843573,-0.3812337658786487,-0.047997881934945016,0.04406519440120572,-0.9914911987522282,-0.5123249785124727,-0.8949692389828414,-0.17058799150138423,-0.9071360546283174,-0.5359594446849607,-0.9246866457218117,-0.008561163980230543,-0.6505078864767196,-0.46259883387393363,-0.5828462834228797,-0.4877862080100083,undefined,1496077776617
903d185fccf839df,-0.34658499504938245,-0.2751999565427173,1.6144018077154005,1.680332462063276,-0.7937381438459324,-1.5077735221702917,1.8426990524955538,-0.5241630628943504,-0.694382856360766,-0.5542986165355435,-0.02796990411417122,0.06251088841806454,-0.7434338792335116,-0.5336191341521822,-0.8844429232504056,-0.231206237455782,-0.9191941290941231,-0.5431663349718626,-0.9248965498523662,-0.056219352919195914,-0.6617953867597974,-0.4591991768737028,-0.614495719870194,-0.4910156291791025,undefined,1496077777847
903d185fccf839df,-0.37430526101369754,-0.2875272715032664,1.5352879588120987,1.6329451271141433,-0.8424717781866582,-1.497760122652667,1.8189887182792772,-0.6894370411931559,-0.6227880355298081,-0.6416673657414377,0.0075744633836512835,0.07269766381817779,-0.7086188168449198,-0.5475066382222314,-0.9097061192918672,-0.2150413888267755,-0.9191941290941231,-0.545376532270979,-0.9342372926357637,-0.03610898327404434,-0.6622315756802872,-0.45883118666615436,-0.611732623350937,-0.49068148670095213,undefined,1496077778112
903d185fccf839df,-0.36044509352613024,-0.31746515331942654,1.8160134782950228,1.7988056196042241,-0.8523871879791812,-1.5249027477689299,1.8391382938919292,-0.6175732582259864,-0.6328671654582,-0.739965759367033,0.09966112226496282,-0.03867217204396863,-0.691211285650624,-0.5234349947192867,-0.941285081213642,-0.2514123194405813,-0.9435167828546949,-0.5437109688589583,-0.9521841131767322,-0.028794723962188552,-0.6664764949289603,-0.4609254620390045,-0.6143855717979007,-0.511507240560939,undefined,1496077779332
903d185fccf839df,-0.36044509352613024,-0.3368366482574323,1.826859280885565,1.8868893733663745,-0.8601734599791305,-1.5372966280321148,1.8647526068634068,-0.48222895886426664,-0.6416487994192897,-0.7807520177784599,0.07906280561093419,-0.06260051808947391,-0.691211285650624,-0.49380829778522406,-0.9476008839051242,-0.2514123194405813,-0.9317331560198463,-0.5346801915514906,-0.9583063229629755,-0.03010359259247435,-0.6631413177623537,-0.46282515821699644,-0.6141474372104223,-0.5139824685128687,undefined,1496077779609
903d185fccf839df,-0.31747868128144197,-0.293984553394571,1.9193712297624688,1.9905067338968063,-0.8276295142553395,-1.5281101083285562,1.8403453747292644,-0.6121212345073983,-0.6254695838904716,-0.785569036869705,0.1139580200509336,-0.09094011884663707,-0.4083389037433155,-0.49658578564845934,-0.9507587815697485,-0.1988765119330475,-0.9413446090048511,-0.5401328559636017,-0.9611960059529161,-0.006266799957059856,-0.660555951552427,-0.46395501582641396,-0.6166912030703113,-0.5291357692744059,undefined,1496077780836
903d185fccf839df,-0.24679186505079964,-0.29457156839269244,1.982534173035211,1.9379822078309838,-0.822270664139787,-1.5184600705873803,1.8486134851991414,-0.5370467024437178,-0.6194307570075804,-0.7150416708054534,0.10793606827316478,-0.10241368644985471,-0.3604681929590018,-0.472514103293191,-0.9654956618787742,-0.1887734568082871,-0.9261906544415487,-0.5325649883023383,-0.9657159459077078,0.003418822349815108,-0.6559641292038867,-0.46554699390538795,-0.6101356242017977,-0.5376789470436213,undefined,1496077781113
903d185fccf839df,-0.12205056469515271,-0.2423271166479196,1.706275618712302,1.7428599347891036,-0.832720928986,-1.5050087151240115,1.853163056190228,-0.5097876207150404,-0.5205165811109722,-0.7541533760692596,0.12678061035037524,-0.10946299897951085,-0.22555982620320855,-0.5502841519870159,-0.9760219996979114,-0.17664981327035187,-0.9600273221627581,-0.5796504240952776,-0.9815147446470307,0.0190328475266659,-0.6798613723556115,-0.4770011719290411,-0.6128910169280664,-0.5368793361651429,undefined,1496077782382
903d185fccf839df,-0.12205056469515271,-0.261111596587804,1.6431124213026103,1.7154775852066815,-0.8211083767995089,-1.5126975337273452,1.8717084469762073,-0.403112460452679,-0.5146165170673256,-0.7742588422020862,0.11666010052148397,-0.131979926331703,-0.3909313725490196,-0.5401000125541203,-0.9654956545165404,-0.17664981327035187,-0.9533476849703735,-0.581157664590837,-0.9786040713406843,0.02012613676294533,-0.6791468700575812,-0.4769685127059322,-0.6145251049691468,-0.5376413411604166,undefined,1496077782673
903d185fccf839df,-0.15115687846309325,-0.27226488155211037,1.5659127319023654,1.6064895659126113,-0.7533667769083644,-1.500054423950471,1.8411711377306974,-0.5619761655905094,-0.4870097330223873,-0.6593139919971103,0.12686878442789934,-0.13140615539771022,-0.7042669340463459,-0.5373224728877868,-0.978127259899505,-0.18473225171721586,-0.9453395961549569,-0.6036902786545408,-0.9785900776822285,-0.0024941806342474063,-0.6930948111577969,-0.4896854666070865,-0.6148456255139437,-0.5313630423208365,undefined,1496077783836
903d185fccf839df,-0.16501701144525077,-0.22882583014711236,1.5639985723993084,1.5671931827109946,-0.7582421981968311,-1.4818700545921215,1.8279800351768747,-0.6113461969387329,-0.530765204462287,-0.6881675618437088,0.12813819321235645,-0.13060944657369475,-0.7042669340463459,-0.5373224728877868,-0.9833904177657229,-0.18675284013039073,-0.9529651837580781,-0.6004668103172116,-0.9833479089376767,-0.006297597453756416,-0.694230069847673,-0.49314812765022786,-0.6147526024012139,-0.5304669771970434,undefined,1496077784118
903d185fccf839df,-0.10403242632375767,-0.14723062849627014,1.4797811452776857,1.5178219105489066,-0.6552823723821619,-1.462073849203369,1.8440086993342977,-0.4356158559745739,-0.5474459985922635,-0.6297662471922635,0.10778295149055593,-0.11980458288233532,-0.4779690285204991,-0.5289899445442082,-0.9654956471543067,-0.27565960651645177,-0.9406661045594155,-0.5767689346334777,-0.9776385112990104,0.07817827400878748,-0.669115402233256,-0.4974710235416955,-0.6182971360670931,-0.5254409116317039,undefined,1496077785333
903d185fccf839df,-0.04859175637348864,-0.14312152350942045,1.5282699669537714,1.5649927432872557,-0.6191384330570012,-1.4659450446140176,1.8242272993491213,-0.5507566229539094,-0.5590428161249341,-0.5568686205392931,0.08159295321106903,-0.11378698868844037,-0.36917195855614976,-0.5206574680037277,-0.9739167174096164,-0.25545355279637405,-0.9406661045594155,-0.5752996914788561,-0.9806541368541459,0.0787634153396158,-0.668363997517507,-0.4975796682757948,-0.6217646206188135,-0.526100158625677,undefined,1496077785712
903d185fccf839df,-0.13036657547362776,-0.20064911023728577,1.562722804913203,1.564579766326936,-0.6543463785748654,-1.4781269657062013,1.8138158917237204,-0.6772267185768864,-0.5244989514946343,-0.4853754823169961,0.10061649180276394,-0.04655830154249572,-0.5737104500891266,-0.5771333610578432,-1.0076009395329848,-0.3039480986833935,-0.973844105665506,-0.608452651713053,-0.9917370853562072,0.062117694129391304,-0.690011379088677,-0.495478921948153,-0.648515927894088,-0.5270290878756276,undefined,1496077786833
903d185fccf839df,-0.285600202895431,-0.20828018830089445,1.4019440804082868,1.561771861769448,-0.6634286502781506,-1.4647408274858114,1.8308044357166564,-0.549948868342463,-0.5324405208776859,-0.44569374656763733,0.11543419053310787,-0.048759168846563235,-0.5911179812834225,-0.6012050693146607,-1.0023378037534683,-0.32011300384184305,-0.9916957325585346,-0.619756955939121,-0.9880917468588732,0.04736598266488417,-0.696496729932796,-0.5060860673426208,-0.6621017208710004,-0.530949448301233,undefined,1496077787111
903d185fccf839df,-0.4061834978618403,-0.22823881514899097,1.3796135749363514,1.4245927987818225,-0.6541509542421531,-1.4914502138910062,1.8265020709650008,-0.629112739043893,-0.5394696361795653,-0.2335272158892041,0.07645944451554175,-0.03524405517980923,-0.7347301136363636,-0.5984275425991017,-1.0107588666465441,-0.24130926431582086,-0.9901173659899367,-0.614753931103918,-0.9924577567174614,0.03338419430735448,-0.6980279113129394,-0.5036858909973607,-0.6524965137575292,-0.5235854520111158,undefined,1496077788346
903d185fccf839df,-0.4436059949353046,-0.22823881514899097,1.2871016260594477,1.289023498323556,-0.6992640219450045,-1.495812878414655,1.8499757228695493,-0.5104418930731621,-0.5820000653884059,-0.2013325930551271,0.11156858259268493,-0.02352082750488304,-0.7564895276292335,-0.5965758926574611,-1.0160220392372297,-0.22312382727363952,-0.9878985880663009,-0.6205295756823327,-0.9932553932613929,0.01683086525066177,-0.7043970162962578,-0.5000565129035565,-0.644331507841756,-0.5209145761248997,undefined,1496077788604
903d185fccf839df,-0.5517150321961333,-0.20123612523540715,1.3164503775266596,1.310542654356007,-0.7475759441555304,-1.4911683769155748,1.840742474004753,-0.5676007328629947,-0.600701483610655,-0.210812378299134,0.08768719432447682,-0.01302312947782187,-0.669451871657754,-0.6280542395331643,-1.0181272847143557,-0.17664981327035187,-0.9898105516107311,-0.6116317896052037,-1.0076128490518759,0.01604554562334832,-0.7052743643499401,-0.4908965168290266,-0.6501209876478372,-0.5317363645776224,undefined,1496077789850
903d185fccf839df,-0.5059765933550134,-0.19595299025231466,1.4408626128429862,1.514998013768573,-0.6872811906086768,-1.490639639663407,1.8144864889881454,-0.7087165238253111,-0.6816962840682808,-0.19620688928949095,0.11345563047965934,-0.05087603269797179,-0.669451871657754,-0.6345350790827788,-1.016022024512762,-0.16250558131924175,-0.9864429241238107,-0.6125690650258444,-1.006381410349815,0.03748018270771454,-0.7005166374873161,-0.49078347788993476,-0.6568846914572001,-0.5300967746861677,undefined,1496077790112
903d185fccf839df,-0.5350828726175443,-0.15603585346809096,1.338780882998595,1.4589786743116677,-0.7314788335096865,-1.4744071699436438,1.8305782736663045,-0.5806293589937417,-0.6889710525732393,-0.3040782948344112,0.16229599570956021,-0.13152893727436993,-0.22991170900178254,-0.6224991990528209,-1.0149693944119653,-0.20897953879308637,-0.9917908708240472,-0.6265205400634088,-1.0060805472252012,0.06424268117606904,-0.7014758212095467,-0.49283250089557873,-0.6583708539406073,-0.535136634830511,undefined,1496077791459
903d185fccf839df,-0.525380779530034,-0.15603585346809096,1.4083241885235611,1.4586129834284007,-0.7334845440180799,-1.476992625512615,1.8216895295790065,-0.641275355608609,-0.6890595352962281,-0.2819158184100767,0.1532211018785594,-0.14556262053894106,-0.29518995098039214,-0.6252767128176053,-1.0107588813710118,-0.19685589525515113,-0.9899475644794433,-0.6248929735327826,-1.0011407989542471,0.05923818639256362,-0.699588403266041,-0.49527356287877267,-0.6570472247846101,-0.5412641088441257,undefined,1496077791668
903d185fccf839df,-0.5572591889052255,-0.15603585346809096,1.430654439858547,1.402947503787839,-0.8434592144727918,-1.4782201347783985,1.8230912148251301,-0.6508204457471888,-0.6593218571162703,-0.4513331318579961,0.10370308049570134,-0.06622573269674731,-0.22991170900178254,-0.6132408975415202,-0.9960220084242198,-0.19079413001562656,-0.9753032852515493,-0.6136013344632294,-0.9941160008891169,0.08107318300468419,-0.6869218777239916,-0.49688508658889363,-0.6785277706556987,-0.5237226512264365,undefined,1496077792828
903d185fccf839df,-0.5503291224141468,-0.16953719842488288,1.4281026507493866,1.5358253203188101,-0.8550203384801701,-1.4811293540518489,1.8036543180461697,-0.7798230666902787,-0.6697703609745692,-0.4674321518860861,0.09968174393847622,-0.09024387530261238,-0.2168560606060606,-0.6178700741987198,-0.994969341512254,-0.19079413001562656,-0.985295464349654,-0.6184460365591442,-0.9995525226589104,0.09174430568549839,-0.6893641367786218,-0.49401192835256247,-0.677754377397139,-0.522759636920258,undefined,1496077793117
903d185fccf839df,-0.5406270638320462,-0.20475809831216613,1.027431098699303,1.1684119119279974,-0.9372133442767709,-1.4703869022082732,1.828661145893785,-0.6308350549453215,-0.644438733876512,-0.7044881848042498,0.11119035297766376,-0.10979393523893287,-0.8870460115864528,-0.676197578342152,-0.9697062043686628,-0.18675284013039073,-1.000395044100719,-0.6459500101250943,-0.9794506850040997,0.06502800618830647,-0.7015648977232815,-0.49358045567031245,-0.6710545684610425,-0.5192690708084984,undefined,1496077794337
903d185fccf839df,-0.5392410505338304,-0.19536585834222392,1.2890157855625048,1.2437857522591655,-0.9133505274355989,-1.4865611394965463,1.8008614678152997,-0.8309781622584258,-0.7065525576750494,-0.6748928308418123,0.10259094488611656,-0.0926686452657553,-0.9044535427807487,-0.6706425508125832,-0.9739167394963177,-0.1928147184288014,-0.9903550919234246,-0.6412446334434087,-0.9761831744531497,0.05949996401730576,-0.7007612653862523,-0.49506419692372,-0.6597057802602984,-0.5159205426841399,undefined,1496077794617
903d185fccf839df,-0.36737519452261874,-0.181864513385432,0.9840461093784871,1.0052214645281519,-0.8440557846429558,-1.49377246522042,1.790889245748502,-0.8568169557454918,-0.8091256715445106,-0.600650190366338,0.0726180689749432,0.04532964648646254,-0.9392686051693405,-0.6882333936182371,-0.965495669241008,-0.1604849929060669,-0.9899270472267652,-0.6623586671323135,-0.970354830638088,0.08496899146615722,-0.701740123309015,-0.4874475831286389,-0.6960851905330738,-0.5003124637721267,undefined,1496077795833
903d185fccf839df,-0.3341108753654407,-0.16014495845494067,0.8213534795074634,1.1015189013416757,-0.828627240997751,-1.486740492365553,1.8329477349672236,-0.5701300781874903,-0.8180495285265085,-0.6457276658693158,0.08077580929608034,0.0050732774569991704,-0.9392686051693405,-0.6836042428625867,-0.9749693622348807,-0.16250558131924175,-0.9799442214492117,-0.6571593203011981,-0.9727057590865344,0.07540655639975709,-0.7022675107725149,-0.4872886354691591,-0.6934828903875271,-0.49604181221968313,undefined,1496077796108
903d185fccf839df,-0.3105485457795437,-0.11142271361086552,0.9393858608454648,1.0674762419675081,-0.7973690079999238,-1.5131563941608681,1.8089297090318526,-0.776191116505749,-0.8055117279367754,-0.6464505047919865,0.11040517832929873,0.037105446559731504,-0.9305648395721926,-0.6789750662053873,-0.9854956779673165,-0.15846437622817053,-0.94109109371725,-0.6588502164125517,-0.9743220224602176,0.0921754634369138,-0.701851515471326,-0.4777908586611633,-0.6844497243832853,-0.49538520854617474,undefined,1496077797329
903d185fccf839df,-0.3105485457795437,-0.1255111320217635,0.8455976362085569,1.0187017433139642,-0.8015347140501778,-1.508560805014149,1.8182471116074854,-0.7192682596792019,-0.7782091893582088,-0.7980651667109433,0.13039096852816728,0.030750571045722413,-0.9088054255793226,-0.6845300807841815,-0.9876009308066763,-0.14836132110341013,-0.92824604188527,-0.6585272360912213,-0.981787619757388,0.09339194154260765,-0.7040593419145963,-0.4759101097950298,-0.6831239530106423,-0.49230346869529623,undefined,1496077797616
903d185fccf839df,-0.2772842266223656,-0.1442956119616479,0.7256516036413971,0.7889417232667388,-0.8136718350271726,-1.52506113462049,1.8181129921546004,-0.7581723794108447,-0.7354779727649376,-0.7262553043613681,0.06824461838051937,0.0860418914657993,-0.8609347147950089,-0.6687908879201682,-0.9370745755349222,-0.15442314287237774,-0.9288720921392498,-0.654911125096404,-0.9684656923130912,0.10798966936039038,-0.6947543375789628,-0.46232629465799924,-0.6825644839555283,-0.5182705501148606,undefined,1496077798835
903d185fccf839df,-0.03195959679489962,-0.18069048338918922,0.7645703902130461,0.9356648367284324,-0.7419496689077568,-1.5400171794748152,1.8028574881204464,-0.8586690632050158,-0.7839188316503555,-0.6048994285997819,0.043857735062862176,0.06994475184500197,-0.852230949197861,-0.6558292088209391,-0.9349692932466273,-0.13623767756547486,-0.9256693473446136,-0.6484008588410184,-0.9631831001317853,0.10808206027538991,-0.6884742416035867,-0.466607315967015,-0.6909129459580572,-0.5057939775057991,undefined,1496077799107
903d185fccf839df,-0.022257538212799084,-0.12316301357329326,0.6644025657347624,0.8000436576270331,-0.6993257395801347,-1.5244275821693483,1.817692224124178,-0.7213535241616753,-0.7580737421385453,-0.500832103313267,0.03918270860682311,0.017509258103714932,-0.8348234180035651,-0.6437933805940795,-0.9286534979173788,-0.09178428024008359,-0.9272479324551792,-0.6650628341268533,-0.9430182910628605,0.07882501279661137,-0.6891769861840783,-0.48560615961553066,-0.6888388561491681,-0.525183923334582,undefined,1496077800407
903d185fccf839df,-0.02087152491458333,-0.1172928635920794,0.7065115334325233,0.8029968074902282,-0.7175828523135442,-1.5076197916181104,1.8043143987155452,-0.7872841471746954,-0.7703306267293207,-0.4979703847241895,0.10260208488788441,0.0447168338083775,-0.8304715352049912,-0.6465708684573148,-0.9286534979173788,-0.08370187005794111,-0.9197446710826949,-0.6688309356536581,-0.940975222213466,0.06744556178681561,-0.6926857007556495,-0.48460949004896625,-0.6834987934197795,-0.5231570795408155,undefined,1496077800650
903d185fccf839df,0.016550868642651716,-0.14957863003277103,0.8908967850324296,0.9007242152673632,-0.6273772897863049,-1.5319440372091868,1.8431250785616204,-0.5407713974098133,-0.6814143934872743,-0.25217493217239373,0.05471463587205886,0.00949725189629053,-0.9392686051693405,-0.6252766998668308,-0.9381271982734853,-0.05339273294838145,-0.920613272000338,-0.6570326622083201,-0.9423885779616183,0.08924976118494833,-0.6848341607161572,-0.4760076362975185,-0.668412180355853,-0.5311630946314901,undefined,1496077801835
903d185fccf839df,-0.008397370725231825,-0.12374997011542997,1.1084583446948137,1.0863333697112723,-0.6472183996035709,-1.5342546425857864,1.7989364464423019,-0.8297700224611155,-0.6893032218894447,-0.12816600489043034,0.05940310886468066,-0.02453390780873266,-0.9392686051693405,-0.6271283757100204,-0.9381271982734853,-0.05339273294838145,-0.920613272000338,-0.6546451419270335,-0.9425425077397346,0.08972711314186846,-0.6838172637433866,-0.476678849217846,-0.6662781764854657,-0.5315664597204831,undefined,1496077802115
903d185fccf839df,-0.047205777580682624,-0.17012421342300427,1.1110103879409234,1.1137234291825913,-0.6356264189952049,-1.5189096148124315,1.7676917216363532,-0.9897861799086287,-0.6523328651759421,-0.0251898880992633,0.04046531075439216,-0.01924259792960865,-0.8783422459893049,-0.6160183465524319,-0.9707588050205245,-0.14836134936813167,-0.9309091558773157,-0.6573683067836887,-0.95790750456561,0.08843364402055119,-0.6883243844812355,-0.4869032209398863,-0.6748394087299923,-0.5285884691963562,undefined,1496077803346
903d185fccf839df,0.04149917702135473,-0.1536877934756054,1.212454234042262,1.0828941870544986,-0.5913053514346985,-1.5168901638229733,1.8076700368390926,-0.7138996123554631,-0.6772642648078195,-0.08051644440541442,0.02493730048457305,-0.007215966156209645,-0.8783422459893049,-0.609537519953592,-0.9612851267511194,-0.16048493637662384,-0.9188097852502913,-0.6589515427805501,-0.9524919728430719,0.07873262287782301,-0.6901690806780159,-0.4865114418924548,-0.6702582971188634,-0.5230209304950214,undefined,1496077803619
903d185fccf839df,-0.13452471888450424,-0.1266851035620216,1.2284048855358722,1.0267260924962465,-0.611856170774688,-1.4875440775340874,1.799230989667839,-0.7423807711436471,-0.5727901234061005,-0.03452385973650166,0.045714887414110804,-0.09976634521509703,-0.673803754456328,-0.5993533546191474,-0.9686535448189308,-0.16048493637662384,-0.9226709662151384,-0.6503957359000768,-0.9562982380517402,0.0627028401316409,-0.6903791942464468,-0.4954145863387871,-0.6636257342354229,-0.5130602899806335,undefined,1496077804848
903d185fccf839df,-0.15808694495417203,-0.10848763862025858,1.2788073584411161,1.1887810930676403,-0.6326744202842108,-1.4581886758630498,1.7748605742584265,-0.8458706593453593,-0.5434517685778796,-0.001080460992728747,0.0559720938194643,-0.07735555050777594,-0.669451871657754,-0.5975016852513451,-0.9665482698928697,-0.16856737482348785,-0.9115566431902535,-0.6562473757749371,-0.9546469908071856,0.0571901967964934,-0.6941204753063942,-0.4967434971284098,-0.6546049406238755,-0.5122184969198271,undefined,1496077805140
903d185fccf839df,-0.28005621871338743,-0.12433698511355136,1.1939520475764407,0.9973562620286393,-0.7206891275998021,-1.4098569612398955,1.756449302925332,-0.9076094994481633,-0.5112153347097583,0.04644976222008143,0.08067715965666751,0.01231192034395006,-0.6476924576648841,-0.6150925215816117,-0.9781272451750374,-0.14432008774761734,-0.881231391951517,-0.6762214800669913,-0.9673112184939713,0.04594933127068413,-0.7087310727890774,-0.4976941124362484,-0.6583981613867622,-0.4983009447668039,undefined,1496077806331
903d185fccf839df,-0.16085893704519377,-0.12374997011542997,1.1939520475764407,0.9973562620286393,-0.6898320362763422,-1.423252415016399,1.7585294790363584,-0.9101630735160795,-0.5074294587995929,0.02102790615045411,0.07549767721266944,0.04684500944791345,-0.6476924576648841,-0.629905870048643,-0.9823377729404584,-0.1362376210360318,-0.884985058857988,-0.678184693083136,-0.9669403876581999,0.04881344236601513,-0.7105120111836779,-0.4949033181631997,-0.6485395618524719,-0.5019104536323808,undefined,1496077806611
903d185fccf839df,-0.33272479305640545,-0.09146420367473834,1.3228304856419342,1.2405848583012773,-0.7857050184739343,-1.4474765027516534,1.7693853171619853,-0.9163417412014693,-0.4364945591938188,-0.06819887796669864,0.06522793881279035,0.09327614987306825,0.08777573529411767,-0.5965758473297502,-0.992864096035128,-0.16856737482348785,-0.8568005021833176,-0.6753855321604388,-0.9910723881638794,0.05032249042362044,-0.7162247470458871,-0.49797664830478494,-0.6417632584607286,-0.5112771705893059,undefined,1496077807837
903d185fccf839df,-0.33272479305640545,-0.1120097286089869,1.3228304856419342,1.2407484770096324,-0.7883998714220973,-1.4423009330238312,1.7746659708971604,-0.8677254170031747,-0.455653174998813,-0.06622918229281666,0.04329169563556438,0.08021237296062483,0.1487020944741533,-0.590095014255523,-1.0012851662904376,-0.14836126457396706,-0.8450375520177161,-0.6753918647165496,-0.9917230916243468,0.04792033323017053,-0.7174435886957337,-0.492850821023053,-0.6336137434292964,-0.5105844838403625,undefined,1496077808137
903d185fccf839df,-0.3147066546850104,-0.20006197832719502,1.484247093889903,1.3098654463145991,-0.7820433120486876,-1.4649294927506196,1.7761334059437228,-0.9069636063309349,-0.4587653684730444,-0.0691880834008051,0.04519395388960692,0.08077447749986257,0.1487020944741533,-0.5845400126275033,-0.9960220047431029,-0.14836126457396706,-0.85962475167607,-0.679970582679714,-0.99529846200068,0.04237689383879366,-0.7211290673733368,-0.49190077556831197,-0.6393882276537278,-0.5101882687891667,undefined,1496077809400
903d185fccf839df,-0.2800561842079777,-0.1624930769034109,1.3687670099349607,1.241705748226601,-0.7784741744221424,-1.4545084761863942,1.7914704328377284,-0.7763351343410597,-0.4650857504175068,-0.05877383295544965,0.026657646302175802,0.09288822667960048,0.1487020944741533,-0.5882433384123334,-0.9960220047431029,-0.14836126457396706,-0.8679727554650531,-0.6818577998180635,-0.9965858753977347,0.04168396399564536,-0.722666943989415,-0.4931573244590957,-0.6368542120551111,-0.5111742098039982,undefined,1496077809613
903d185fccf839df,-0.3410409073511097,-0.22119463517153432,1.2252144502728108,1.3388603406488213,-0.8710043038999243,-1.490450966541309,1.7764752725375836,-0.9989414673425712,-0.5178068239989281,-0.2428299791632215,0.044841243272904,0.16098121875889881,-0.691211285650624,-0.6030566804039774,-0.9739167100473826,-0.20291780181828334,-0.9095160960803493,-0.6635555926900607,-0.9904916534911725,0.005559212890305291,-0.7219376077842131,-0.49360497669356074,-0.605187035163107,-0.5303713151753725,undefined,1496077810839
903d185fccf839df,-0.32856678766716796,-0.1413604785150563,1.1818297150889445,1.2126038679788118,-0.8887265596111312,-1.5053208302082572,1.791507245896132,-0.9357838102066192,-0.47818820953941926,-0.26725588098142666,0.051440983917784636,0.12337149901388625,-0.7303782308377896,-0.6058341812179873,-0.9728640762654689,-0.20291780181828334,-0.912238155247232,-0.6639672341232146,-0.9916671176695178,0.003757594651928991,-0.7235162128775379,-0.4923721210198136,-0.6034504591224591,-0.5301941068972889,undefined,1496077811108
903d185fccf839df,-0.37569123980650354,-0.09909528173834703,1.294119617917775,1.2688783584366614,-0.9110053796445188,-1.5561192086344422,1.8288031542333,-0.8023984761548154,-0.5036027248470428,-0.36446890795583087,0.023163665857503908,0.022945074437463995,-0.7695451760249554,-0.6030566804039774,-0.95812719963756,-0.2817214565501409,-0.9055826248349157,-0.6718960804488825,-0.9731675495341885,-0.013935220094753589,-0.7250853668118802,-0.5045971989974565,-0.5998592874444973,-0.5257642243923609,undefined,1496077812325
903d185fccf839df,-0.33272479305640545,-0.059178261866092687,1.328572201740257,1.1916320998255043,-0.8877391313710933,-1.5660883521280786,1.8619360810687116,-0.5895546190537333,-0.5345750296007422,-0.4190654525498038,0.014242692552629048,-0.03635544731577227,-0.7695451760249554,-0.603982511850185,-0.9591798371005906,-0.2817214565501409,-0.9002500289589193,-0.6728333556480565,-0.9687805491450973,-0.011040312620098098,-0.7233353929631963,-0.5052060996678767,-0.6010842440965479,-0.5207582662130801,undefined,1496077812613
903d185fccf839df,-0.3590590802279145,-0.17247233187147448,1.3234686235219362,1.1916320998255043,-0.9693972821680183,-1.6164069079449572,1.8835662381264393,-0.5515839859269317,-0.5910117688000457,-0.5744715143604527,-0.018849432984359173,0.04407525342239354,-0.7695451760249554,-0.6299058765240303,-0.9654956397920729,-0.30192751027021864,-0.8896091124176364,-0.7015152576183314,-0.9845583568217328,-0.02911808813945535,-0.7431100926558419,-0.5145294499346736,-0.5990780847060456,-0.5159210195107253,undefined,1496077813852
903d185fccf839df,-0.36321708561715205,-0.13372922508349355,1.396201856036065,1.3458428794154784,-0.9954612405160322,-1.6137515743396065,1.8551064799023405,-0.734008136947673,-0.5793100165364792,-0.5206076292140434,-0.03273128724284993,0.02543434331517737,-0.7738970588235294,-0.6382383789660598,-0.9654956397920729,-0.27565960651645177,-0.8896091124176364,-0.7067716012581333,-0.9875320014504376,-0.011702446999358566,-0.7430925074021795,-0.5119518362766166,-0.5970970502800685,-0.5231119590188228,undefined,1496077814121
903d185fccf839df,-0.3077765536885219,-0.1466435550421641,1.5269939453307164,1.3327298397984932,-1.0059937961399077,-1.6308179104245468,1.8980906562739395,-0.47433028012814826,-0.5393816063474625,-0.5416305768888601,-0.07590446243312153,-0.016194355436068373,-0.9697317847593583,-0.6280542006808406,-0.9602324856069718,-0.25747411294482736,-0.869981080018624,-0.7014202634908538,-0.9963409869864658,0.02662428407993097,-0.7405146825930311,-0.4963962801124909,-0.5755874668027614,-0.5220864463379602,undefined,1496077815333
903d185fccf839df,-0.3077765536885219,-0.1712983018752317,1.4976451938635047,1.3327298397984932,-0.9903595372495938,-1.6381387093574002,1.8981774382169572,-0.48661082788891435,-0.5321311329526661,-0.5579830888145383,-0.07228887126199818,-0.0012278803402829446,-0.9566761363636364,-0.6345350337550679,-0.9633903943149468,-0.24130923605109933,-0.876840856964607,-0.6936497416928172,-0.9926816548306758,0.05931518407203042,-0.7301164642416584,-0.5010760335384324,-0.5668273816001856,-0.5290451098260367,undefined,1496077815612
903d185fccf839df,-0.3147066546850104,-0.1466435550421641,1.48616125339296,1.322140099152549,-0.9315562071706405,-1.6288939600057462,1.8851888247684656,-0.519156886657614,-0.5637075678781123,-0.5592089584952704,-0.12394607530533591,-0.0696152699903297,-0.5737104500891266,-0.6761975459652156,-0.9423377518067246,-0.2493916462332418,-0.8975592908033412,-0.7075315538128738,-0.989610054598898,0.06521278964724438,-0.7315618644757775,-0.5023426275391395,-0.5976714400042705,-0.5175923442663537,undefined,1496077816850
903d185fccf839df,-0.3410409073511097,-0.13372922508349355,1.2717896207197386,1.2073617812553528,-0.9102442446833962,-1.616143705213072,1.900912432771627,-0.38790315947875015,-0.548596714503606,-0.6309627015430467,-0.1074793627307594,-0.05765435751623888,-0.5737104500891266,-0.6641617112629686,-0.9349693226955624,-0.24737105782006696,-0.89028740557656,-0.7086398189287341,-0.9919889702969683,0.0651511957039116,-0.7327922541788553,-0.5043952487799496,-0.5949498958630407,-0.516136392212494,undefined,1496077817115
903d185fccf839df,-0.3424269206493255,-0.12962012009664384,1.4363966642307686,1.4424892850135518,-0.9046179677451825,-1.6032769883408118,1.8471407910694129,-0.7046465202595978,-0.5957710081353139,-0.6312672002427543,-0.07756526566775558,-0.04949840398004259,-0.669451871657754,-0.6891592250644446,-0.9570745879423477,-0.23928864763792448,-0.8664411832792042,-0.6926174721004057,-0.9973135430682664,0.05722099563942083,-0.728926149332657,-0.503599086171166,-0.5964698749105659,-0.514392845291433,undefined,1496077818407
903d185fccf839df,-0.40063951367979683,-0.11083564015675945,1.536564234572103,1.398059131469961,-0.8946202701197639,-1.589550781525324,1.8716768783356648,-0.5208863993449354,-0.5954128739980539,-0.6527317425224618,-0.05340054138632216,-0.025986028427669252,-0.7042669340463459,-0.6891592250644446,-0.9433903855886383,-0.23524741428213172,-0.8515283987481801,-0.692680801548253,-0.9930384915125097,0.06333417871045588,-0.7265572874779753,-0.5045356520916199,-0.5971734234155287,-0.5112201486121233,undefined,1496077818607
903d185fccf839df,-0.43528988064060037,-0.13725137352820657,1.782198524078644,1.5628283318644125,-0.8528706216935399,-1.5914397939407139,1.902251000639579,-0.2999939214749271,-0.6416224959995903,-0.5666191772725022,-0.1059636868175912,-0.0347249256816265,-0.7521376448306596,-0.6382383854414471,-0.9360219454341254,-0.16250555305452022,-0.8529746302651651,-0.6704141711134628,-0.9938291313923737,0.10112196273173356,-0.7085550298249952,-0.5054471569843872,-0.5932388793492392,-0.522347923631694,undefined,1496077819832
903d185fccf839df,-0.4117276200655228,-0.12081495358080771,1.8058047970366848,1.690462287358691,-0.859967752918153,-1.5924995971021285,1.8754243508901651,-0.46885343603873303,-0.643612740056867,-0.5426366400641515,-0.11955078276974712,-0.045557515519100214,-0.7738970588235294,-0.6391642104122673,-0.9423377186766726,-0.16856737482348785,-0.8592086463525378,-0.6758161724966014,-0.9972575687219454,0.09701057824183146,-0.7127737798569902,-0.5062387344549483,-0.5914529690899293,-0.5248860843268631,undefined,1496077820114
903d185fccf839df,-0.36321712012256174,-0.10613952017178835,1.696066937453964,1.5681102012507717,-0.8419163519729523,-1.6022241709621752,1.85468569563533,-0.6158312307430527,-0.6137562086843475,-0.5066895549246715,-0.07874347047892646,0.026153897237765462,-0.9436204879679144,-0.6447192314664488,-0.9433903855886383,-0.24535046940689212,-0.8996918525789509,-0.6626119846800892,-0.9878048773070764,0.09055862942482729,-0.706163009836572,-0.5118360200596302,-0.577125659429102,-0.5427338273795781,undefined,1496077821345
903d185fccf839df,-0.356287053631483,-0.10613952017178835,1.696066937453964,1.5681102012507717,-0.8813208570732592,-1.6026760432789284,1.8565239308752226,-0.6246904199729744,-0.5843981007335398,-0.4719242687403919,-0.07680146251118328,0.024795333278177793,-0.9436204879679144,-0.6447192314664488,-0.9360219527963592,-0.23726805922474964,-0.9061378992994575,-0.6617760359485736,-0.990218777047296,0.09611746780014287,-0.7040243155398385,-0.5109861060531199,-0.5845215915753232,-0.5412935440401658,undefined,1496077821610
903d185fccf839df,-0.39925346587617133,-0.12433698511355136,1.608659583343179,1.5123058830288334,-0.8992899668026832,-1.6157267714777912,1.8539020131556418,-0.6906216408282128,-0.5334487127044693,-0.4154393263675897,-0.0917236297601917,-0.05436937230370812,-0.8783422459893049,-0.6363866901720957,-0.9202324350243029,-0.14836132110341013,-0.8882313801349562,-0.6383504769758475,-0.9755184771078952,0.10193807939802524,-0.6861025759408221,-0.5024362069069686,-0.6015129507738857,-0.5410306816015147,undefined,1496077822853
903d185fccf839df,-0.40063951367979683,-0.12198892512106581,1.6514064347839925,1.5358165401842772,-0.8872865585088295,-1.614774113216202,1.8636954138245208,-0.6285807522572795,-0.550984573404756,-0.3815561425655542,-0.07911652049622385,-0.05864846117777937,-0.8304715352049912,-0.6252766869160563,-0.9170745079107435,-0.16452619799713813,-0.8810286024439622,-0.6367545752134379,-0.976337103839774,0.07982591168330846,-0.6900914646569525,-0.5008954652353754,-0.594548693956474,-0.5429220012580327,undefined,1496077823105
903d185fccf839df,-0.4131136678691483,-0.22060762017341293,1.5531525156718164,1.594324125845459,-0.8703562983787797,-1.6161460361008528,1.8515667482036848,-0.719030823402147,-0.5677248318551077,-0.3494091994999933,-0.04190396845294243,-0.023310127250093862,-0.9218610739750446,-0.6262025377884256,-0.9244429627897239,-0.11401097890277923,-0.8853156235371502,-0.6305926215025621,-0.9674581510941872,0.1124090197436612,-0.6759368367524943,-0.5053985167816488,-0.6044781697433564,-0.5510295296807011,undefined,1496077824334
903d185fccf839df,-0.4200437343602271,-0.22412971016214125,1.4867993912729622,1.5490364621127073,-0.8676203034506733,-1.623154716354243,1.8142892469194805,-0.9761490269747336,-0.5588578460461602,-0.3113821005889632,-0.019422273903851314,-0.033467332417527446,-0.8130640040106952,-0.6169441844740268,-0.9286535200040802,-0.09178439329896973,-0.8746878290920242,-0.6198139520169677,-0.9751616397531848,0.11539631786407004,-0.6724341981947245,-0.5087802124371141,-0.5981629690619137,-0.5495663513906984,undefined,1496077824617
903d185fccf839df,-0.39093738608687684,-0.22941275746125672,1.532098031822936,1.5702550318120552,-0.8952888292643568,-1.6582330584804836,1.8675323002205455,-0.7079216740722736,-0.578190430921323,-0.11964285170716234,-0.05242986064881597,-0.04092959939675446,-0.843527183600713,-0.6160183465524319,-0.9370745828971561,-0.049351414798424066,-0.8794440262698312,-0.6169134647373453,-0.9694872258141123,0.15972844383863205,-0.6608250264214695,-0.5078991823651932,-0.6101616555265804,-0.5363905710791663,undefined,1496077825846
903d185fccf839df,-0.4200437343602271,-0.22706469746877117,1.532098031822936,1.6318235040501454,-0.8584454622284989,-1.6755812321642196,1.8649840169979461,-0.753099691388241,-0.5820855019983009,-0.11878754305998844,-0.03127727335446996,-0.06610652009368059,-0.8348234180035651,-0.6132408716399712,-0.9349693226955624,-0.06147517139524546,-0.8847846741910207,-0.6112644788442316,-0.9705577379455316,0.1663651732201777,-0.6573369890257373,-0.5087525348619706,-0.6153668412252848,-0.5352166805993975,undefined,1496077826117
903d185fccf839df,-0.35628698462066355,-0.2822441949761586,1.6022794752279044,1.5843998949097968,-0.8731231496638104,-1.7016128096013918,1.8793822082455176,-0.7079412954792901,-0.5305899110221782,-0.1894783357984296,-0.1351368365581757,-0.008839590026419694,-0.8391753008021391,-0.6280542006808406,-0.9686535374566971,-0.03116606255040734,-0.8937600052590704,-0.6169387961798549,-0.9751126619424726,0.18167122897653515,-0.6583349003740533,-0.5109826063150649,-0.6140333523449542,-0.5322368276441936,undefined,1496077827385
903d185fccf839df,-0.3881654285012648,-0.2728519257782241,1.5920713022434654,1.5817113648861971,-0.8662008768152488,-1.7119592902352057,1.9040024523651717,-0.5670844404523465,-0.511741430950042,-0.2113358343963879,-0.11709024525039377,-0.044267552880548226,-0.8261196524064172,-0.624350861945236,-0.9644430244157436,-0.03116606255040734,-0.89658856878319,-0.6179837316706946,-0.9707536487724198,0.186321559474389,-0.6570038075780448,-0.5065397001827538,-0.6138404747154595,-0.5367538078434861,undefined,1496077827714
903d185fccf839df,-0.3743051574974683,-0.2945714807087154,1.5116816858540578,1.450488587084217,-0.8813414238321289,-1.7148242552532829,1.8798818745699364,-0.7466998980377991,-0.4719510394050658,-0.22235341159031097,-0.07795656200914437,-0.029490063687294805,-0.7390819964349377,-0.5956500029327682,-0.9707587902960569,-0.10592851219119367,-0.8847846741910207,-0.5979842964621139,-0.9744829489146352,0.15869674842452497,-0.6551121382581574,-0.4951798490550629,-0.6153370765553282,-0.5518347297901025,undefined,1496077828851
903d185fccf839df,-0.39509549499234353,-0.329792409823991,1.5557048130548756,1.485996483756139,-0.9315047692469896,-1.700452849395978,1.8979407511913806,-0.6335461372300524,-0.44125012870928115,-0.18700273329465636,-0.06086056339323147,-0.04410062961498789,-0.7651932932263815,-0.5900949624524249,-0.9739167026851487,-0.11199039048960438,-0.8833253611034825,-0.5878072559891552,-0.974294035027082,0.15672574805359102,-0.6506497512750249,-0.5016208498594875,-0.6183970023018251,-0.5538884543892977,undefined,1496077829105
903d185fccf839df,-0.40479751906903433,-0.33096646904822613,1.5659129860393148,1.6095849967103415,-0.8732774406508284,-1.6954216931311823,1.8742304169751043,-0.7598190302330354,-0.5086626810716218,-0.19234948016131448,-0.08472351681544509,-0.04973761388902874,-0.8870460115864528,-0.5975016917267323,-0.9602324966503225,-0.08370187005794111,-0.9099259094447577,-0.6042855756813422,-0.9655969990523185,0.11478038513497159,-0.6625596538161668,-0.5064282385846228,-0.6129627612621688,-0.5664719029049154,undefined,1496077830333
903d185fccf839df,-0.3826213062975823,-0.3397716940200469,1.5308222643368306,1.5473903172746113,-0.8625186014085537,-1.6942500853203142,1.8448002565590715,-0.9471279606061332,-0.508363721172961,-0.23955753844067088,-0.07010883836886739,-0.01191337242109225,-0.8870460115864528,-0.6095375070028174,-0.9433903855886383,-0.06753702142893463,-0.9063333067379803,-0.6069264132224981,-0.9612729700161711,0.09815006389143444,-0.6652754772577307,-0.5109195786875951,-0.6085063313981828,-0.5688335194054795,undefined,1496077830615
903d185fccf839df,-0.3396549285583037,-0.33096646904822613,1.48616125339296,1.41520964634018,-0.7820638784814723,-1.7070725460471752,1.865917595656258,-0.807782292001794,-0.5284249708932601,-0.22714108949481143,-0.0860298331139813,0.0007211697398396572,-0.9697317847593583,-0.5660233319002547,-0.9476009059918256,-0.04935149959258868,-0.8760816126289205,-0.605913142804392,-0.9473353220524849,0.03159798069362451,-0.6706751693504173,-0.48918610946692453,-0.5949037491667074,-0.5752270771974682,undefined,1496077831853
903d185fccf839df,-0.2939163516955449,-0.33096646904822613,1.4287400262185406,1.3725913194183728,-0.7654216207252436,-1.7099281935665613,1.8632983082639014,-0.8267082566834671,-0.5287783501674773,-0.2469416090019068,-0.07851097748890526,-0.019440868381724558,-0.9610280191622104,-0.5873175134415132,-0.9476009059918256,-0.07966063670214833,-0.8948085729850107,-0.612873048033189,-0.9489655791335604,-0.0036028654619634096,-0.6808669898877674,-0.48997477086423247,-0.5923682964934281,-0.5688710630971476,undefined,1496077832126
903d185fccf839df,-0.3354968541582467,-0.3738186515950644,1.4867996454099115,1.417801909090546,-0.827845518530355,-1.7319348447944574,1.8899645436683596,-0.719571598594851,-0.5325974628686682,-0.3152679378516284,-0.10096914031525844,-0.051766723257459846,-0.8130640040106952,-0.5947241844373352,-0.9370745608104547,-0.06955760984210947,-0.9059306721253133,-0.6330814712579168,-0.941520972385244,-0.008422578496244046,-0.6895529481506659,-0.48028290792105055,-0.5834140822152667,-0.5741195959694352,undefined,1496077833338
903d185fccf839df,-0.2564939581383099,-0.31981327176789676,1.4140661587588335,1.3858413086458026,-0.8133324004551921,-1.734049794180047,1.9030504603687668,-0.6348928600039929,-0.5445962059578076,-0.30178237560672966,-0.0815852856891854,-0.05016971886640686,-0.7869527072192514,-0.5928725085941456,-0.9349692932466273,-0.06955760984210947,-0.9068857271905848,-0.6531125718603575,-0.9410591828245639,-0.005235099925380424,-0.6997859077213751,-0.47666344513298975,-0.5740565364801056,-0.5732559201684183,undefined,1496077833614
903d185fccf839df,-0.3202506733724637,-0.42371492643538233,1.4140661587588335,1.417801909090546,-0.8519037632491626,-1.741065462187786,1.8777490955807454,-0.8341754625660637,-0.5154051391889511,-0.4110212029615896,-0.06420416657610266,-0.08718871573807938,-0.5911179812834225,-0.6206475491111805,-0.91707455944638,-0.04935147132786714,-0.9189269536254772,-0.672447049361442,-0.9248615660916018,-0.043484838683202305,-0.7112717188458902,-0.46907935773172904,-0.5730398305683067,-0.5712670848050054,undefined,1496077834865
903d185fccf839df,-0.354901074838677,-0.4295850764165962,1.4140661587588335,1.3744016674953494,-0.8473471985148745,-1.7419482437612022,1.8767076913140979,-0.8472872945003374,-0.48994525331003047,-0.39856926928858727,-0.05670894302346354,-0.09601898686297347,-0.5693585672905526,-0.6021308424823827,-0.91707455944638,-0.04126903288100313,-0.9202214884534422,-0.6682039775073025,-0.9201247250363354,-0.049105271284559375,-0.7085896645136673,-0.47145898844931267,-0.5716281085700304,-0.5734860374273263,undefined,1496077835102
903d185fccf839df,-0.31054858028495347,-0.3644263531691375,1.317726145012765,1.3080507760938966,-0.8892614166533389,-1.7502473221711634,1.8961498424623764,-0.748611460029113,-0.4891353588357747,-0.25153759899918415,0.00969537020250514,-0.11233131539182485,-0.6825075200534759,-0.6150925086308371,-0.9444429862404999,-0.025104269046161254,-0.9055814377295793,-0.6644865396406501,-0.9306269377707359,-0.009577461945102665,-0.7055357044422708,-0.469233620239821,-0.5535470860928728,-0.5879408461749692,undefined,1496077836401
903d185fccf839df,-0.2689681123276614,-0.3644263531691375,1.2858258585733422,1.3406307189736293,-0.9261664980994871,-1.7499282164766903,1.8851072898621137,-0.8302784320320518,-0.5108093992542201,-0.22190074240823743,0.00846665089647167,-0.09286278992438889,-0.5737104500891266,-0.6150925086308371,-0.9539166792343727,-0.035207295906200115,-0.9002792876528619,-0.662105352862244,-0.9357066224060328,-0.013365479659512052,-0.7074807745434166,-0.46772405915931353,-0.5531027155138144,-0.5830184094112868,undefined,1496077836678
903d185fccf839df,-0.26758209902944563,-0.3714705331465942,1.3043280450391634,1.3080507760938966,-0.9178042267933127,-1.7460616805837201,1.9003154563864004,-0.7192541248952565,-0.5253167206723887,-0.2872269380269661,0.016129175688516788,0.04178686898746075,-0.6346368092691622,-0.6132408457384221,-0.9644430170535099,-0.004898130531918921,-0.9003417350296491,-0.6628083098097546,-0.9420457331826436,0.025869761222349335,-0.7023182327447853,-0.4872181386991697,-0.5414706177144444,-0.5905078324099803,undefined,1496077837844
903d185fccf839df,-0.2523359527490724,-0.36970948815223004,1.2456310503786385,1.2204529425226411,-0.8895597021055166,-1.7487123546134051,1.9067900393227881,-0.6789960625785989,-0.5340094697826007,-0.33706953229889697,0.04599397602693084,0.027734895686983427,-0.6128773952762924,-0.6299058765240303,-0.9644430244157436,-0.004898130531918921,-0.9014637184457159,-0.6716997628213995,-0.9427803982329389,0.02685526167706236,-0.7064500072246181,-0.4855857599992079,-0.5422063839833992,-0.5934874781842463,undefined,1496077838108
903d185fccf839df,-0.2856003064116602,-0.3644263531691375,1.2245768206667076,1.2462545704130594,-0.8629300316106968,-1.742265019421849,1.9366856817607778,-0.4603621888846961,-0.5571513414077879,-0.1674344717256871,0.02184382403483265,-0.11564065707635227,-0.5127840909090909,-0.6289800386024355,-0.9465482538043274,-0.057433966304174223,-0.8899827092041105,-0.6710728013530444,-0.9346221169525962,-0.0008157443995074552,-0.7079321717187277,-0.4701927569684461,-0.5487997714575329,-0.5815581388680295,undefined,1496077839327
903d185fccf839df,-0.30361847928846497,-0.376753697357679,1.1365310745389707,1.0850388278406613,-0.9172282277591585,-1.7304860565508122,1.9278258628927762,-0.5315294788066227,-0.518562901995567,-0.20911150606176998,0.04882380635393776,-0.09577826269313043,-0.517135973707665,-0.637312541044465,-0.9402324658373127,-0.017021802334575706,-0.8779609554412021,-0.6783810183401447,-0.9286118566603301,-0.005928028072277652,-0.7109712711621073,-0.46955855742802344,-0.5444913881129547,-0.5847750198653696,undefined,1496077839626
903d185fccf839df,-0.3105485457795437,-0.518224458044895,0.9968065797459855,1.044354620747242,-0.9253230726107673,-1.6791915505304735,1.8943484359937144,-0.6677688255830478,-0.48665633789888557,-0.1358672461398324,0.06557385021585026,0.01708636652582887,-0.2647267713903743,-0.6549033838501189,-0.9360219159851902,-0.07764007655369502,-0.8892210251019375,-0.6864365215683075,-0.9300392056815632,-0.07802354962486664,-0.728063193222566,-0.474505311868361,-0.5516225687070658,-0.5911224290845783,undefined,1496077840825
903d185fccf839df,-0.3244086442562915,-0.4706762431970627,0.933005498593241,0.9928655293140918,-0.9427676153001433,-1.6788887490307707,1.9257693592030092,-0.4599999501774721,-0.49843126817674044,-0.18981824782412968,0.0359359753232334,0.004508047546933775,-0.28213430258467026,-0.648422557251279,-0.9265482229913176,-0.0938049251827015,-0.8755798586186364,-0.6797362670302833,-0.9334116685608239,-0.07648370490522789,-0.7257640015847014,-0.47181617344569354,-0.5474042078885738,-0.5911577622908841,undefined,1496077841095
903d185fccf839df,-0.2911442905937037,-0.32274822984653434,0.8755842714188214,1.0267080132762074,-0.9356499097086789,-1.6848026872205313,1.8825169360692267,-0.7402872752392113,-0.5040911028367854,-0.296546632444563,0.041354926036158764,-0.025643673396436785,-0.28213430258467026,-0.6419417047508899,-0.9265482229913176,-0.15846431969872746,-0.8768903194718255,-0.6782923557832513,-0.9384493726367139,-0.1415421380870095,-0.73763067882699,-0.465761470219671,-0.5366491088396736,-0.5919107777976031,undefined,1496077842342
903d185fccf839df,-0.3077764501722927,-0.4113876114748332,0.9368333093254563,1.0328668883128997,-0.9528681663070118,-1.6701005297159395,1.8836056757506983,-0.7086943412873852,-0.5183972967838004,-0.3200656041098838,0.03640510398524074,-0.03522773787888133,-0.28213430258467026,-0.6410158668292951,-0.9223377025881303,-0.13623767756547486,-0.8790676091896438,-0.6832003870612535,-0.9333556942450884,-0.14446784269487928,-0.7381762435598695,-0.46639361406397656,-0.5382842242718479,-0.5893432185519225,undefined,1496077842614
903d185fccf839df,-0.3244086442562915,-0.3832108915650066,0.8002992497955324,0.9906615228412601,-0.9677001434650118,-1.6689824957031907,1.8986402752463842,-0.6120678054752258,-0.49407600149395065,-0.36961745339349644,0.036574592721798124,-0.003045629462007671,-0.3517644273618538,-0.6160183400770446,-0.91707455944638,-0.15240249792975982,-0.848621466964524,-0.6614340596033006,-0.9308368424885282,-0.1699214730849024,-0.7306268952202762,-0.46434274206783005,-0.5349344862329154,-0.5896709961361195,undefined,1496077843833
903d185fccf839df,-0.2980743915901922,-0.40551746149361934,0.8692044174404965,0.9383102278348883,-0.9669184308021695,-1.665353541167575,1.8711640624701669,-0.7880603866941546,-0.49300376144025665,-0.3900458701709867,0.0412534693280719,-0.001953453032182566,-0.4126907865418895,-0.6243508554698487,-0.9118114015801622,-0.13623767756547486,-0.8506799327766419,-0.6652338257654425,-0.9360704572444968,-0.14611547634416971,-0.7316890957200097,-0.47316854448728013,-0.5293303957546314,-0.577168573436106,undefined,1496077844117
903d185fccf839df,-0.24679189955620937,-0.34505485823113174,0.8749466418127182,0.89652854325605,-0.9011825392428515,-1.6359142866178622,1.8500046475650838,-0.8396756360320772,-0.5297003375167454,-0.516770904620026,0.03840554636433369,0.027155440452778467,-0.49537655971479505,-0.6095375329043665,-0.9023376717751205,-0.15644373128555258,-0.8601334164338051,-0.6518586487686207,-0.9243088185889968,-0.1553699431074481,-0.720766533925702,-0.47455909286159115,-0.5455630068693803,-0.5628992623935267,undefined,1496077845393
903d185fccf839df,-0.24263385966156212,-0.34505485823113174,0.8698423011835492,0.9345830748626274,-0.9322967746627082,-1.6370905525474628,1.8363138771155598,-0.9419178999506982,-0.5001603229042512,-0.5102883421314894,0.036966541708755817,0.004940773319414583,-0.49537655971479505,-0.610463364350574,-0.9086534671043689,-0.1604849505089846,-0.8557146244785503,-0.6516369956125686,-0.9256801934474207,-0.16887438015424813,-0.7244976648379317,-0.47309299391958237,-0.5428340696739932,-0.5540986914286068,undefined,1496077845649
903d185fccf839df,-0.15947302726320722,-0.3884940265480991,0.8436839849793987,0.8540261275038998,-0.953320739321315,-1.6752691109713658,1.8542623030390528,-0.8745582157044687,-0.510451981577611,-0.5506345125298339,0.014736710657893996,-0.014131281886468807,-0.6346368092691622,-0.6021308295316081,-0.9254956223394559,-0.1968559517845942,-0.8723865677340533,-0.6228600990995663,-0.9355526937962753,-0.18652099882416484,-0.7175619216970539,-0.4734444834033253,-0.5607708027758644,-0.5423344536774766,undefined,1496077846839
903d185fccf839df,-0.1608589888033084,-0.39084214499656933,0.8251812902396786,0.8416614538077295,-0.9661572903136072,-1.6907888319800741,1.8666145030018202,-0.8199707947720778,-0.5113463670300886,-0.5687212121690682,-0.01713328467624176,-0.0069160535485076335,-0.6041736296791445,-0.6076858441104024,-0.9170745447219124,-0.1968559517845942,-0.878059108914709,-0.6212831959356491,-0.9295144457956057,-0.17973028434196556,-0.7139161891543151,-0.4742548182462189,-0.568966251631958,-0.5438165741270827,undefined,1496077847124
903d185fccf839df,-0.10541843962197342,-0.3532730974328235,0.8341136957380123,0.8527747556445094,-0.9886418233315152,-1.7166480459987195,1.865346932494734,-0.8796221820183856,-0.4226738290222936,-0.6583927310709078,0.05962126487854029,-0.05566617440665167,-0.6868594028520499,-0.541025824574166,-0.9223377099503641,-0.23524749907629633,-0.9108882455126208,-0.5894728203534825,-0.9257571584282349,-0.17226203836782825,-0.6946873237882255,-0.48904120868815404,-0.5903956122757206,-0.5576557625981048,undefined,1496077848352
903d185fccf839df,-0.1303666617371521,-0.35151205243845934,0.9068466741151916,0.8882429674428902,-0.9973949509531065,-1.7273019860262682,1.8776886111486033,-0.8151141353018634,-0.41833174514166793,-0.6479139356508781,0.055824194588073035,-0.04536066013237547,-0.6868594028520499,-0.5373224858385613,-0.9170745373596786,-0.24332993752316032,-0.9172144496207727,-0.5918160095473375,-0.9222307656729848,-0.15626305369722196,-0.6915812908945194,-0.4895275104697089,-0.5974948568802655,-0.5626047799791539,undefined,1496077848632
903d185fccf839df,-0.1372967627336406,-0.44073836138090255,0.8564439470729981,0.854397636383115,-0.9773275560850684,-1.7978360093578798,1.8999394039187951,-0.7932256618802869,-0.4279679041111905,-0.7070105118623766,0.05890430390389954,0.0038741552217789995,-0.7477857620320856,-0.5641716819586141,-0.9297061353804094,-0.22110323886046468,-0.910557392568169,-0.5876299338707047,-0.9332577391803167,-0.1669033792044352,-0.6939314382915384,-0.4879666639537486,-0.5987855814454011,-0.5588801633366237,undefined,1496077849844
903d185fccf839df,-0.1372967627336406,-0.4800684831670049,0.9476793660529481,0.8882307015107506,-0.9780886973418307,-1.8009199218666836,1.896415462039901,-0.82041864655188,-0.42932659556123437,-0.703702164193969,0.06212544993557073,0.03102278538947694,-0.7434338792335116,-0.5836142135582322,-0.9360219601585931,-0.21908259391784676,-0.8822795505221015,-0.59518513548405,-0.9368960808606571,-0.19115593089003485,-0.7022513167374747,-0.4854345805994029,-0.5961361258626425,-0.5600541230712792,undefined,1496077850120
903d185fccf839df,-0.187193327732932,-0.5158764272804018,1.098250425847324,0.9862352668639351,-0.9420167614268588,-1.839145067265779,1.9035922025010823,-0.8243496859957884,-0.41911577167420183,-0.5954353624942275,0.10414467129518357,0.1664127398428583,-0.5911179812834225,-0.6141666836600169,-0.9349693006088611,-0.3079893179068255,-0.875507859869009,-0.6225751157426804,-0.9489585828854532,-0.25082490515005884,-0.7280485829363068,-0.47511985908715804,-0.6194695730621996,-0.5353608241824178,undefined,1496077851326
903d185fccf839df,-0.1691751203507175,-0.5276167272428296,1.0006346446151502,1.067342128658102,-0.9538144560440119,-1.8478284708597505,1.9165150682441783,-0.7556699345903238,-0.3905915923051694,-0.6619134127032252,0.11661287914423615,0.1551806614522665,-0.6041736296791445,-0.607685857061177,-0.9233903326889271,-0.283742030830955,-0.8621828363345947,-0.6228284334897761,-0.9412271068361396,-0.23099170666135238,-0.7219715558914439,-0.4742553723706325,-0.6211131074663203,-0.5280723641161545,undefined,1496077851617
903d185fccf839df,-0.06522401946830687,-0.5769260163130184,1.2641332368444598,1.179481387313562,-0.8324535149326644,-1.8785627818650714,1.9057828366427125,-0.8278097443463559,-0.3927812477082635,-0.7222092447992685,0.11303212979942573,0.23005627435704532,0.05296067290552586,-0.5715783464790489,-0.9160219146211156,-0.3463808651985276,-0.8557921752972528,-0.6116064570719709,-0.9332997203024933,-0.24691369926627493,-0.7192274731219919,-0.4694542630557659,-0.61474733223248,-0.4922523334266974,undefined,1496077852831
903d185fccf839df,-0.04166179339863908,-0.5745779563205329,1.188847961084221,1.0980880492200644,-0.819874106244302,-1.8844417815766494,1.9471786122460304,-0.5501442421378189,-0.4067879881708608,-0.7984616556583295,0.11765410344446177,0.19267434627175992,0.07036820409982177,-0.56880081976349,-0.9160219146211156,-0.33829845501638517,-0.8529720367023401,-0.6110048273617154,-0.9330548318055855,-0.237104889018885,-0.7171204158497869,-0.46652759896321844,-0.6310379985229161,-0.4878165027032803,undefined,1496077853113
903d185fccf839df,-0.13452468437909448,-0.5886663308894424,1.1161147285700925,1.0701782113370144,-0.830139231732653,-1.9369358459613517,1.935312923828994,-0.7294957550618818,-0.3590210337649567,-0.7199566378141797,0.14524443593463524,0.16359519349835958,-0.147225935828877,-0.5567649915366303,-0.929706150104877,-0.3665869613156877,-0.8262586737669552,-0.611397470046887,-0.9443476844137328,-0.2665467166583356,-0.7249106593169931,-0.4786532461554196,-0.6299545771224148,-0.4913483313325852,undefined,1496077854327
903d185fccf839df,-0.1941233252131913,-0.5898403608856851,1.1135626853239826,0.9688964505943113,-0.7898810135600965,-1.9398939797906831,1.9559700504626079,-0.5915476778507377,-0.3420466909922292,-0.7050065702705697,0.1410818181727131,0.19308993348474698,-0.3038937165775401,-0.5595424664490911,-0.9254956002527546,-0.36254574209225565,-0.8314463780503756,-0.6190793305116334,-0.9452502731697507,-0.26953401555955836,-0.7293613868517123,-0.4782889363093673,-0.6337267250038381,-0.49101240056077333,undefined,1496077854621
903d185fccf839df,-0.21907166809730405,-0.6027547054583519,1.1090964825748157,0.9300856062910707,-0.7465885163836143,-1.9343061351077318,1.953132490954051,-0.6068279505540417,-0.31955054284747897,-0.6151343459217421,0.14322958320297272,0.1171704534585779,-0.7260263480392157,-0.5780591730778888,-0.9244429701519578,-0.30192749613785785,-0.8500878985742648,-0.6210932070107573,-0.9409612279494213,-0.26480669309025684,-0.7278726933615721,-0.4735945100631313,-0.6347577400102817,-0.4934622743343012,undefined,1496077855917
903d185fccf839df,-0.21907166809730405,-0.6045157358387199,1.0019106662382051,1.0268245152766216,-0.7548376446362649,-1.9396214590527174,1.927710155206702,-0.7803821800492721,-0.3095379922201998,-0.5917484503534312,0.12836720235868151,0.10875181121719862,-0.6868594028520499,-0.5660233319002547,-0.9244429701519578,-0.283742030830955,-0.8366538916018548,-0.6211375375666691,-0.9363713201121939,-0.2609416827582088,-0.724442615502919,-0.47951259290651765,-0.6335162307781699,-0.48969010330084006,undefined,1496077856128
903d185fccf839df,-0.29530243400458017,-0.5904273758838066,1.0503997420512403,1.0268245152766216,-0.6995211705485751,-1.935023540698039,1.931549672453712,-0.7211511450215752,-0.36683048438006666,-0.7250426274643756,0.09024342969265058,-0.007181914468584952,-0.7477857620320856,-0.5808366479903496,-0.9223376952258965,-0.275659592384091,-0.8498935628628047,-0.6143549550044524,-0.9410241988986389,-0.24072352373914926,-0.720028258203163,-0.4819255289837855,-0.6551235035118774,-0.48607144088882104,undefined,1496077857351
903d185fccf839df,-0.33272479305640545,-0.5904273758838066,1.0287071203223577,0.969758947553125,-0.7111748677878099,-1.935349634116055,1.926829174712707,-0.7531655661435123,-0.3634297408046708,-0.7318771581207014,0.09078227342052059,-0.009206749790285823,-0.7477857620320856,-0.5789850109994836,-0.9149692697958512,-0.279700811607523,-0.852304333319861,-0.6180280622598263,-0.942745414539462,-0.2531038739318129,-0.7238849487249527,-0.48029339459147147,-0.6575508501380264,-0.48000741803586117,undefined,1496077857686
903d185fccf839df,-0.16778903804168227,-0.5933624508744135,1.0446575176790185,0.969758947553125,-0.8049495666612606,-1.9379257726289416,1.917495989126205,-0.825009925822261,-0.3912287221433827,-0.768268665756727,0.09306141046519045,-0.036828089467705376,-0.7173225824420678,-0.5808366738918986,-0.91286399486979,-0.3221336063873787,-0.8502700745729594,-0.6168121372177204,-0.932830933576147,-0.2752930346411126,-0.7247292201746179,-0.47366071693255835,-0.6526753245185919,-0.49200061136148804,undefined,1496077858838
903d185fccf839df,-0.17887717893281804,-0.6056897804489588,0.9929787690137702,0.9597647540298189,-0.7817553202456196,-1.929424049691245,1.9052305711064554,-0.895399645877172,-0.3947417212752521,-0.7580730637373052,0.0980764316087611,-0.03683859963280073,-0.7173225824420678,-0.5863916755199183,-0.9118113647689932,-0.3221335922550179,-0.852164747688695,-0.6166854789421324,-0.9360914475303174,-0.26656211646347516,-0.724372459700538,-0.48174494256970385,-0.6535110625954288,-0.4956375309715664,undefined,1496077859101
903d185fccf839df,-0.2772842266223656,-0.6250612900009608,0.836665738984122,0.790973767092173,-0.8355906558362587,-1.9238129129359516,1.9227713769693222,-0.7866444204854253,-0.39536311208880204,-0.785494940739626,0.10101482397660182,-0.05845150222268719,-0.5954698640819964,-0.62249922495437,-0.9518114043083115,-0.3180923730315859,-0.8788864327232491,-0.6449557390086369,-0.9557874694691699,-0.3174077820616561,-0.7539242373183153,-0.46611290142037287,-0.6478787855091439,-0.5004973651248878,undefined,1496077860348
903d185fccf839df,-0.2856002719062504,-0.6373886195755061,0.8883447417863198,0.8147752582118998,-0.8563780495009905,-1.921232115608937,1.9576110457288791,-0.5590080777498675,-0.40328842270500675,-0.8063232125705964,0.10196177364794007,-0.052182188743307975,-0.6259330436720143,-0.607685882962726,-0.9581272217242613,-0.3504220985543204,-0.8755210055736217,-0.6464186487489646,-0.9599785592821725,-0.3057049633878553,-0.7552356218242237,-0.46468036302927873,-0.6464470610117107,-0.497745213506143,undefined,1496077860614
903d185fccf839df,-0.33272486206722496,-0.5904273904978027,0.8302856308688475,0.754525622570658,-0.9522098901027393,-1.9167296962157667,1.9424449518699236,-0.681994947922818,-0.39651612594574,-0.7782955273678106,0.08195026063561801,0.01696176219001988,-0.678155637254902,-0.6400900418584748,-0.9665482846173372,-0.3362778524708495,-0.8931571586819448,-0.6643155475092976,-0.9795696299020293,-0.31643767919080146,-0.7743321587690323,-0.4668608368701718,-0.6408835324797344,-0.48589693721269733,undefined,1496077861833
903d185fccf839df,-0.3479710083475982,-0.5640116717403518,0.8264575659996829,0.7800403230700448,-0.9845789795970379,-1.9006812376468325,1.9227818951356552,-0.8072933187795187,-0.39745747053846797,-0.6935834407107437,0.09258220488833355,0.03067752763945807,-0.678155637254902,-0.6558292347224882,-0.9644430244157436,-0.3544633177777524,-0.9058760365561945,-0.6761581524407072,-0.9813188325049743,-0.3264466687578124,-0.7830833992243731,-0.46755876562041415,-0.636335741410436,-0.4849194722589136,undefined,1496077862104
903d185fccf839df,-0.3479710083475982,-0.5375960114388855,0.8494257010777215,0.8621192942003488,-1.030381187371042,-1.8888067761495273,1.962250027418925,-0.5510131065422532,-0.3896559377923028,-0.6092128467778816,0.054826589364908376,-0.00752557112681013,-0.4605614973262032,-0.6558291958701646,-0.9791798605513666,-0.3827517816799726,-0.9258183856113955,-0.6996723722816435,-0.9860976550372069,-0.33973552724526923,-0.7990222220679548,-0.46944634663543544,-0.634855782491059,-0.4829962753487801,undefined,1496077863329
903d185fccf839df,-0.3715331999118563,-0.5640117155823403,0.883878539037153,0.8661192476029863,-1.0554782888670935,-1.8926570087175378,1.9175932892355558,-0.8537878579174634,-0.3866832622716194,-0.6580046008705503,0.06506324603753463,-0.043159786796559046,-0.4605614973262032,-0.6789750532546127,-0.9770745929875392,-0.37062819467148045,-0.9360729097459147,-0.7058723239591003,-0.9892812037597638,-0.33459244660083265,-0.8028418185232687,-0.47066028043903474,-0.6355294670854629,-0.47678722052521405,undefined,1496077863622
903d185fccf839df,-0.5198367608425807,-0.5100062188432033,0.8953629877815964,0.8969928280481124,-1.1222633177673564,-1.896090307457851,1.9427710537845464,-0.7043873529152478,-0.38642874045928854,-0.6879987489835357,0.04880459241011728,-0.005740269829501576,-0.32565313057041,-0.6493483757467119,-0.9802324980143973,-0.3261747690813676,-0.9240654311973721,-0.7035101362719497,-0.9869862500674814,-0.3040419307950133,-0.7971021562514169,-0.46269063693896473,-0.6394207373919605,-0.47126247614407807,undefined,1496077864907
903d185fccf839df,-0.5226087874390122,-0.507071202308581,0.8940867120215921,0.9039560039404536,-1.0931753656863443,-1.8993908396121257,1.9143349611728153,-0.8860656732075816,-0.4004406361193736,-0.6818527327188221,0.055346641558117415,0.05366006488881187,-0.32565313057041,-0.6456450499618818,-0.9728640799465857,-0.3261747690813676,-0.9198128442351243,-0.7020978896824013,-0.9854819357595811,-0.29997674130489216,-0.7950855227937339,-0.46328440431001916,-0.6406296245010878,-0.4675030977180673,undefined,1496077865189
903d185fccf839df,-0.6293319839286738,-0.5012009938713825,0.883878539037153,0.8883506075948375,-1.1834014952945369,-1.9008792231176175,1.910116754322084,-0.9487433319747571,-0.36743598648381565,-0.6419343366329718,0.07223384865095214,-0.003376375408988695,-0.5084322081105169,-0.6419417241770518,-0.9833903956790215,-0.3039480845510327,-0.9184906524218543,-0.6986084383196549,-0.9810529543706544,-0.31919400169303846,-0.7943746809542946,-0.4605208528344926,-0.6388986996593132,-0.47708052783290067,undefined,1496077866363
903d185fccf839df,-0.6293319839286738,-0.5035490538638681,0.9610779743004486,0.9347227728949885,-1.1738152257587113,-1.8956733734833722,1.9176143287107865,-0.8917342311732194,-0.3578879273333802,-0.6510142966711397,0.08297992447894409,-0.01281474653537003,-0.5084322081105169,-0.6178700353463961,-0.9812851354774278,-0.30798930377446476,-0.9026937832827652,-0.6917371942469747,-0.9764350591247599,-0.3157293514541617,-0.7899018660503254,-0.46049101535087006,-0.6379243056142494,-0.47732393492440306,undefined,1496077866616
903d185fccf839df,-0.5558731411016,-0.5000269638751397,0.9279014121010214,0.99705689632407,-1.144233563276649,-1.8988388103795801,1.935891480590996,-0.7768415736329848,-0.3470334714385903,-0.5861753780089427,0.10498216024668854,-0.058524359126764396,-0.6302849264705882,-0.6160183724539811,-0.9844430257798183,-0.36456634463779125,-0.9077495011516064,-0.6945870192450743,-0.9847542674956944,-0.3529319965409024,-0.7994184950304621,-0.4646047153557363,-0.6307029337983484,-0.4912343647517416,undefined,1496077867847
903d185fccf839df,-0.5697332740837575,-0.5158764272804018,0.916416963356578,0.9640556949922104,-1.1518038361049117,-1.903150231922218,1.9247437348046659,-0.8566965050149367,-0.3510492574799223,-0.6028249120902823,0.0944873581581836,-0.05898143187471809,-0.678155637254902,-0.6132408716399712,-0.98970619100827,-0.38477239835786897,-0.917324769119499,-0.6967338871018802,-0.9928285874247748,-0.3736737034051759,-0.8065108759168175,-0.4626177904513188,-0.6310276315206717,-0.5178940871413911,undefined,1496077868126
903d185fccf839df,-0.6681403562787149,-0.5687078209533152,1.0006343904782007,1.1059610928637122,-1.1636632443961634,-1.9187538049284658,1.9343504178563433,-0.8132387717329015,-0.3398778906008483,-0.5869513762932371,0.12510356969334535,0.04043927075797174,-0.8348234180035651,-0.6252767128176053,-0.9907588358335344,-0.36052516781144156,-0.9187985402328305,-0.7009706262338088,-0.9799264688532928,-0.35916836814479397,-0.8018497025122087,-0.458158653029239,-0.6400466345337112,-0.4937668613516376,undefined,1496077869328
903d185fccf839df,-0.6542802232965573,-0.5786870759213788,0.9361956797193529,1.0364323346370798,-1.169320377963372,-1.9207476334996207,1.9081628077297907,-0.9910256293653553,-0.338716541885971,-0.5635569798056609,0.13222545525951238,0.03248559994304652,-0.8348234180035651,-0.6169442039001886,-0.9907588211090668,-0.36456634463779125,-0.9149522185421037,-0.7060496470409304,-0.977036786052981,-0.3718104909003712,-0.8056039555427209,-0.4578872575369509,-0.6417663447248335,-0.49015601489926336,undefined,1496077869718
903d185fccf839df,-0.5572591889052255,-0.5763390305428895,0.9361956797193529,1.0364323346370798,-1.0907582240115565,-1.913829793175705,1.9248042229031344,-0.8558954865793276,-0.3235706270346276,-0.453267309765915,0.1150092888717383,-0.012944777345100831,-0.8261196524064172,-0.6113892022721689,-0.9739167321340839,-0.3241542089329143,-0.9145218269126576,-0.705416352545848,-0.9630991383339775,-0.35239305185225706,-0.798030966351809,-0.4531563929436722,-0.6349757166843383,-0.4831018763940568,undefined,1496077870831
903d185fccf839df,-0.6473501568054786,-0.6203651700159897,1.0255171933331952,1.0641559809613501,-1.1402941396364794,-1.915870206804845,1.8759108697685485,-1.195850468647962,-0.3184937285549135,-0.41064590245967936,0.13042118593591945,0.0038102737580106073,-0.8261196524064172,-0.5965758538051376,-0.965495632429839,-0.29990689359232225,-0.9074643793794124,-0.7043207533284158,-0.9600135448168847,-0.3460488922206885,-0.7951762259582932,-0.4552237207077657,-0.6333514765167206,-0.48337785781606313,undefined,1496077871112
903d185fccf839df,-0.5420130081194425,-0.6538250833648934,1.0912321798520475,1.1270633892418491,-1.1272621630231394,-1.92800787289688,1.8916870696508958,-1.0976672758011483,-0.3024893515690224,-0.3940307891468537,0.11840383666632572,-0.05909183117242529,-0.8739903631907309,-0.6382383595398979,-0.9802325348255662,-0.32213356399029636,-0.9295178013006078,-0.7299881742245221,-0.9606922354168689,-0.32941857275417624,-0.8057004696222768,-0.4567062341070345,-0.6375657251983514,-0.47898000441439054,undefined,1496077872336
903d185fccf839df,-0.5226088219444219,-0.68200180327472,1.0823000284906632,1.0884838128069463,-1.0875182293944259,-1.9345833155409622,1.9068741987949953,-0.9935090938938932,-0.31770385831934894,-0.45287968147908153,0.11357841940121517,-0.058287485275188365,-0.8609347147950089,-0.6410158603539078,-0.9907588211090668,-0.3261747973460891,-0.9344081270316048,-0.7267900378169292,-0.9643445707189625,-0.3302038936738715,-0.8056544637795655,-0.4584244689722379,-0.6274008368767203,-0.4824624449969949,undefined,1496077872622
903d185fccf839df,-0.573891279472995,-0.6051027946788298,1.065712001527899,1.1213845262161806,-1.1223455991445705,-1.9143003006520232,1.8933043982572766,-1.064407073883772,-0.3308399165962924,-0.4533820253444527,0.13274156341697518,-0.09167915813329296,-0.7956564728163993,-0.6400900418584748,-1.0054956940558588,-0.3605250971496377,-0.9078192023359762,-0.7291585579383838,-0.969305309661112,-0.3486666299255168,-0.8118653867570023,-0.46393247664629395,-0.6259416522553937,-0.4753797649508192,undefined,1496077873908
903d185fccf839df,-0.5129066943515019,-0.6009936896919801,1.0612457987787323,1.1213845262161806,-1.1076987659536328,-1.911467945734114,1.8910243539404477,-1.0705132181397246,-0.3409856081072799,-0.45797207101968973,0.13873577082901414,-0.10056550272141557,-0.7738970588235294,-0.6400900418584748,-1.0054956940558588,-0.3504220702895989,-0.9078192023359762,-0.7267583721130156,-0.970949560308887,-0.34129077430096166,-0.8103197702261596,-0.4553607757012594,-0.6035179652952277,-0.4718183828160131,undefined,1496077874184
903d185fccf839df,-0.5087486544568547,-0.571642881329926,0.9942545364998757,1.105499582955097,-1.0977730691537302,-1.90476905429987,1.8792612320485806,-1.144902877298433,-0.3409150454966585,-0.3267569935354388,0.1109709801684273,0.037980211886295315,-0.5693585672905526,-0.6447192055648997,-1.0054956940558588,-0.3867930009034046,-0.9351082077832523,-0.7199631227222109,-0.9681928169274663,-0.33479262997260867,-0.8057816294949035,-0.44935039748703126,-0.6145585045715163,-0.4729875732915577,undefined,1496077875337
903d185fccf839df,-0.5032046012639917,-0.5980585854733808,0.9853223851384915,1.0563650812459546,-1.1146621847751779,-1.898955273183102,1.887595087081288,-1.0902774721376896,-0.3371121621172442,-0.31804107659442626,0.10371293180791029,-0.006182381836157065,-0.5693585672905526,-0.6336091828826985,-1.0054956940558588,-0.37466935736546936,-0.9273772287526758,-0.7148777691098285,-0.9651282137145453,-0.33875003086963595,-0.8033209065255772,-0.44982269272827863,-0.6097467819134694,-0.4727585228517244,undefined,1496077875612
903d185fccf839df,-0.5725052661747793,-0.5645987013524694,0.9074848119951937,0.9574727091881361,-1.0888759397530738,-1.9009560898221,1.9010412873799756,-0.9982413901045426,-0.34540161237547856,-0.30631784099431714,0.10803229897586446,-0.004892598139602871,-0.7347301136363636,-0.6623100677967154,-0.9802325127388648,-0.4009372611192363,-0.9239292939660667,-0.7317740626141069,-0.9531776605781369,-0.3239059303613905,-0.8049121854878332,-0.4484292259090162,-0.6085287107984181,-0.4811069272818478,undefined,1496077876849
903d185fccf839df,-0.5835935105821443,-0.6004066454658663,0.9495935255560051,1.0336680028188183,-1.1145284673548028,-1.8944388785367414,1.874091036344009,-1.1708052809694667,-0.34067252677224363,-0.31349609775309784,0.0942326060276271,0.0167644263069794,-0.7347301136363636,-0.6586067355364981,-0.9928641107595956,-0.3989166585737006,-0.9180701562200323,-0.7339715938431586,-0.9508687129093117,-0.3238751334974224,-0.8053044710406438,-0.44587816956165305,-0.6036192298126389,-0.4819955187314816,undefined,1496077877128
903d185fccf839df,-0.4768703485978924,-0.5528583721620492,1.027431098699303,1.0417522397903642,-1.0561982805439327,-1.8643334608418016,1.8897673110273905,-1.009959793902615,-0.37558641670529624,-0.3126192300856564,0.08177179229365338,0.053755306647020225,-0.7086188168449198,-0.6373125345690778,-0.9812851428396616,-0.400937275251597,-0.9089758596249535,-0.7155363945269739,-0.9398627293635962,-0.3045038892875417,-0.7870870524285857,-0.4428741916406623,-0.6053529834999266,-0.490256521478594,undefined,1496077878338
903d185fccf839df,-0.5004326091729699,-0.5522713571639278,0.9929785148768208,1.0336680028188183,-1.045778869590002,-1.8593069623949288,1.8796951522388867,-1.065977603743304,-0.3740300020082997,-0.3116577398258302,0.07162794370181723,0.057977186524306876,-0.7913045900178254,-0.6067600256149694,-0.9728640725843519,-0.4029578919294934,-0.8972539090257577,-0.7085194928659836,-0.9344681880002832,-0.3119721358540207,-0.7834913192694998,-0.4345261501632776,-0.6055872978400217,-0.4903231952409242,undefined,1496077878612
