UUID,iqrAccX,iqrAccY,iqrAccZ,iqrAccXYZ,meanAccX,meanAccY,meanAccZ,meanAccXYZ, covarianceAccXY, covarianceAccXZ, covarianceAccYZ,pressureDerivative, pressureIQR, iqrGyroX, iqrGyroY, iqrGyroZ, iqrGyroMagnitude, meanGyroX, meanGyroY, meanGyroZ, meanGyroMagnitude, covarianceGyroXY, covarianceGyroXZ, covarianceGyroYZ, class, timestamp 
903d185fccf839df,-0.5905235425678133,-0.7583138845564659,0.3594328895507448,0.43081280733078103,-0.8340216268128389,-1.4774483081825354,1.9088879121003504,-0.1025270382439938,-0.24054620497166054,-0.30965449249330834,-0.04938693301877541,-0.6968964250885232,-0.06671610405525846,-0.4891791470295737,-0.7791796407680737,-0.14836134936813167,-0.8092548436774861,-0.41356445486445215,-0.6241336273691924,0.09694018537528727,-0.44812691962180257,-0.027722812134098277,-0.6485404611731538,-0.7615407810004323,undefined,1495893966487
903d185fccf839df,-0.17887710992199857,-0.7131136127891498,1.4625549804349192,1.2827829195969482,-0.6335066201854497,-1.5419735291872645,1.8655247926485632,-0.3346583181771369,-0.5120325040995536,0.16733961225733068,-0.3859399612406652,-0.8904072830935115,1.3715811608734403,-0.348452365732019,-0.7686532955867028,0.29617242603273053,-0.6306128712754681,-0.2896114143102264,-0.7707720783262906,0.22826692113798,-0.4252667100031171,-0.11101279689235344,-0.46906114342777483,-0.6122617648770986,undefined,1495893967859
903d185fccf839df,-0.10541847412738316,-0.554032489842269,1.6756510997589849,1.684469204000059,-0.3774096493986385,-1.5743497388541803,1.7447470303719617,-1.079004050746773,-0.5407551565768137,-0.43989819879539743,-0.3544372330834963,-0.6059836024795504,2.3594585561497325,-0.41696408701299403,-0.9244429627897239,0.18301828777663434,-0.7385966735911864,-0.30411362401795927,-0.8631732113996858,0.13657500496551872,-0.48202809657459167,-0.24421427762077216,-0.516891484148386,-0.5532234072702886,undefined,1495893969370
903d185fccf839df,0.2327692537129967,-0.39436423498529766,1.6252478644428925,1.5697942514624317,-0.1141435504529032,-1.5723346404264884,1.8151647189017377,-0.5586949025265057,-0.362494100638796,0.06721956128112343,-0.17263357435592552,-0.34671241787920737,0.6317610851158646,-0.34011987624076395,-0.9707588050205245,0.16887405582552426,-0.7412693888786964,-0.29809566260302295,-0.9223562301947091,0.09267311622711369,-0.5030303152392868,-0.32641998713886633,-0.4948094860829022,-0.5157817986550934,undefined,1495893970858
903d185fccf839df,-0.01809936029651289,-0.24937129662537624,2.4048975844033293,2.224810087371059,0.0785198084057483,-1.6001651245246764,1.7924066386806992,-0.6994931620731454,-0.2629187830239258,-0.1732660146445006,-0.09777764079692569,-0.059003336374849065,-0.2864861853832442,-0.32993576270941755,-0.8823376409621106,0.3002136028590802,-0.6836073764456175,-0.2355142192280418,-0.8646473090981751,0.2147425049418375,-0.4402767252428126,-0.3489052768746862,-0.4395063350025063,-0.4857089910127349,undefined,1495893972376
903d185fccf839df,0.02763887151214853,-0.30337673490852857,2.462318811577749,2.3380572805073094,0.032491310939762985,-1.5678282972926416,1.7911338195656648,-0.668437235419804,-0.2999839598709092,-0.02473265158532336,0.06374710574088469,0.14814788380790142,-0.6476924576648841,-0.3530815423892184,-0.8865481834519993,0.24363664678991828,-0.7277743385249552,-0.26170575052669653,-0.8838544434635847,0.2124741936341996,-0.4584581238221316,-0.36623852563414505,-0.4829147611045639,-0.48223698087319883,undefined,1495893973871
903d185fccf839df,-0.19550933851140706,-0.3896680565443419,2.0163488731146404,1.9817877401515822,-0.210096851335899,-1.645345376803076,1.7447387849591511,-1.2078540733101173,-0.38665956780332944,-0.23097099385490627,-0.020252088680559832,0.012727715349664274,-0.8261196524064172,-0.36882069640090814,-0.9444430009649676,0.15675052534647516,-0.7057092430139459,-0.30407870949004756,-0.9410172026077123,0.17232437166173997,-0.5044196405080045,-0.45727601387774913,-0.4844802716567837,-0.4605410526064287,undefined,1495893975353
903d185fccf839df,-0.22184359117750635,-0.43369421063143826,1.9927423460196503,2.0081989021196684,-0.05511196581959295,-1.720221101072735,1.800727350981219,-0.9316002089640922,-0.47886575403228326,-0.17252443524510575,-0.15300388381010283,0.05594354441628489,-0.8696384803921569,-0.3836340772448758,-0.9107587346681963,0.07188487925732073,-0.7102590338862511,-0.32968913321758414,-0.9328379308335691,0.15156726687705027,-0.517917414552022,-0.43853951827062254,-0.5044591716933263,-0.4420506505314925,undefined,1495893976942
903d185fccf839df,-0.045819764282466875,-0.38379787733513565,1.926389221620796,2.0094730124120033,-0.08695648524305416,-1.8168728810736343,1.8406162444860197,-0.8253818330511983,-0.47518053182479547,-0.07905567918812376,-0.2688559245531448,0.029621544759811935,-0.5475991532976827,-0.3549332441339571,-0.865495507813725,0.07592614087783504,-0.6584765388850354,-0.2904755472295328,-0.8929561088670944,0.16262335078825774,-0.4861581326463938,-0.4374698274023071,-0.4802829155142979,-0.43806695390347605,undefined,1495893978354
903d185fccf839df,-0.0915582031235867,-0.4066915061038583,1.8415336566191711,1.8413153206936765,-0.18139975490413027,-1.86722870452954,1.8532656132877008,-0.875160524357517,-0.4873164247400096,-0.41498827262437454,-0.17565803528964022,0.14378929254747613,-0.6825075200534759,-0.3095673154835574,-0.9170745520841462,0.15270934852012544,-0.6254659548678905,-0.3422663608723943,-0.9150870216639073,0.26699401240771076,-0.4999626249615358,-0.43284421106872023,-0.4992561137848113,-0.46875744176098316,undefined,1495893979855
903d185fccf839df,0.06644738188382854,-0.34740288899562494,1.7317957970364506,1.8492354835681342,-0.35481660658861036,-1.8484480488495918,1.8596323737583187,-0.8316128836833736,-0.6381618059964661,-0.7632503422566475,-0.15708683065196563,0.07617260089327786,-0.8696384803921569,-0.3077157302957897,-0.9718114498457889,-0.05945458298207061,-0.6872979584983615,-0.3838738031859425,-0.9528208228380516,0.1475944654344563,-0.5505983012368448,-0.4138405570942511,-0.5717504488355659,-0.4779650306729845,undefined,1495893981349
903d185fccf839df,0.07753552277496428,-0.4295851348725809,1.6507682969039903,1.6200132914087435,-0.5151603389516172,-1.8379944235932042,1.8542018191306717,-0.9539829836341105,-0.5536335229899637,-0.6571279813177358,-0.12218743504332429,0.09199199631396511,-0.7695451760249554,-0.32623235921994015,-0.93075877284344,-0.02914547413723249,-0.6950959860921928,-0.43414471093311646,-0.935230840177861,0.13533730560552348,-0.5699146960446726,-0.42877578135270455,-0.5838340186252724,-0.4850642007039644,undefined,1495893982843
903d185fccf839df,-0.05136374846451042,-0.5223335922597371,1.432568599361604,1.3062633656885498,-0.7557119321713909,-1.8222580836384976,1.904265437949145,-0.6897441604686151,-0.5181188378767786,-1.0450221168637093,-0.039214571682531896,0.02334949080203749,-0.6955631684491979,-0.33919403831916917,-0.8676007827397862,-0.012980540714061396,-0.7634050862615048,-0.43957204470553457,-0.8944324358703174,0.2668862246223553,-0.5415842346454861,-0.4367683262917164,-0.5392765354137977,-0.4791196003607183,undefined,1495893984357
903d185fccf839df,-0.05690793967901236,-0.4988529923348816,1.2973097990438869,1.1752895821363556,-0.7022571654046631,-1.818680372607591,1.9405067935261084,-0.4344335413229412,-0.4977214207884548,-0.7873070242960125,-0.005670681098186603,0.04418276561966066,-0.7086188168449198,-0.49843743559009984,-0.8581270823836797,-0.08370181352849804,-0.7522009474503369,-0.5265233608867529,-0.8766535394693831,0.2448510492829556,-0.5741252360006562,-0.4665440745008982,-0.5995076090982238,-0.4635061396475443,undefined,1495893985897
903d185fccf839df,0.05951738440356924,-0.5082452323048238,1.4548988506965899,1.554468264218989,-0.46765069862344416,-1.8237185170580166,1.8788641448195926,-0.7168710027659653,-0.5384692406997357,-1.5555560199006766,0.08405338996129326,0.025980429645892623,-0.7260263480392157,-0.5160283042973028,-0.787600688936682,0.013287249980819343,-0.7091357339731551,-0.5329576319176699,-0.7930416506553323,0.40950662879600147,-0.5258743306376273,-0.4487174534037373,-0.46348386364420496,-0.39603051752620144,undefined,1495893987361
903d185fccf839df,-0.00008125643052757771,-0.4483695563564806,1.689048945595637,1.7662857426099239,-0.3076875357205143,-1.8055667547373766,1.8961156691588934,-0.5379433197799834,-0.42407016145231824,-0.8274893487182459,0.005675690798039795,-0.04070118007875582,-0.7738970588235294,-0.49751164947160326,-0.6633899910176695,0.25373970191467865,-0.6646390100180165,-0.511913260000183,-0.6745716486589857,0.5496324837169023,-0.45424840791375704,-0.41377655382661993,-0.4150221756830022,-0.3745264286487171,undefined,1495893988855
903d185fccf839df,-0.011169362816253596,-0.4471956140442148,1.7381761592886744,1.708736541625835,-0.513596903995424,-1.8208535518985955,1.9085520191661707,-0.5462427817117834,-0.2800937346534281,-0.7752596668782554,-0.03225328336289484,0.004668223105284984,-0.9044535427807487,-0.49195664784358356,-0.6949690265617823,0.2456572069383716,-0.6762323016041525,-0.5192658072220685,-0.6222425008953009,0.6378501775575169,-0.4204453481167308,-0.4390095255569465,-0.42610414507288485,-0.44267151320848214,undefined,1495893990359
903d185fccf839df,-0.5018185534603662,-0.3297925267359603,1.6922393808586984,1.7408822428892896,-0.7916501573917395,-1.7912093248431546,1.900052480230123,-0.7232423672106562,-0.2293359530501829,0.17748780855163931,-0.12316804615710353,0.028783806318410127,-0.9827874331550802,-0.5086216786291917,-0.6665479475801641,0.15270917893179622,-0.6747160670594469,-0.5243258282513881,-0.6241596270143398,0.673959531617491,-0.4189293845908674,-0.43955676545110683,-0.42146269335606856,-0.4382669313842309,undefined,1495893991848
903d185fccf839df,-0.3881653594904453,-0.23939204165731265,1.646302348291773,1.6447737245654763,-0.8387277985763313,-1.703217653035047,1.824963630701159,-1.0404949636344325,-0.23552934649006904,0.2472360934602484,-0.17786155625458527,-0.042155310524667505,-0.9784355503565063,-0.5262125084840711,-0.6781268713266952,0.10825583813584802,-0.7005555742457897,-0.5315960483681673,-0.6204093366352403,0.558825355204079,-0.4421866839114133,-0.4304141632527293,-0.4345036183269803,-0.4685590794666143,undefined,1495893993358
903d185fccf839df,-0.1691750168344883,-0.12198892512106581,1.4823334426607448,1.4394563276028012,-0.7142708656751908,-1.5486772909361923,1.7548082998026469,-1.0138489782622526,-0.4381142611704001,0.737596710394764,-0.40975480804481335,-0.07009326141016746,-0.7347301136363636,-0.4567749363307267,-0.5307582743789838,-0.0655163764863167,-0.7621104760119397,-0.4804575276693906,-0.6025534750699801,0.3454798924149452,-0.4437496807035383,-0.4038969241362113,-0.4476471614227561,-0.47277438045962117,undefined,1495893994849
903d185fccf839df,-0.03888962878056864,-0.03569772039722186,2.045059232564901,1.6536290913678242,-0.6763886429443711,-1.51951521504294,1.8032651029434632,-0.5338875172978278,-0.41257609559395025,0.34160432575867017,-0.5419971767166128,-0.10638870904997165,-0.6085255124777184,-0.41511239821902984,-0.5781267246238798,-0.012980597243504468,-0.7169167420106057,-0.47847531501939705,-0.6328636589497083,0.3149755752033436,-0.45356462737412245,-0.4275641445098353,-0.4710733270279614,-0.5717566602336803,undefined,1495893996380
903d185fccf839df,-0.13175265778266299,0.1222095771493624,2.7424059390437217,2.566827143932391,-0.780068465747263,-1.6178347329078884,1.877998925338509,-0.1498779861364818,-0.3369345754838234,-0.06329871212786425,-0.8167141771155487,-0.1794638017070762,-0.673803754456328,-0.3438232020255941,-0.4149686908886837,0.19110086754710603,-0.6351371361476178,-0.3744250497908139,-0.5762804501363014,0.41080009786346955,-0.3728432665007607,-0.3684293033554817,-0.4019921555129737,-0.5312365740077766,undefined,1495893997859
903d185fccf839df,-0.19966741291146406,-0.09087718867661695,2.903184917685587,2.5468339132058846,-0.9206533670275298,-1.7095555137441658,1.8430303914953852,-0.6753527919241908,-0.35431340901800323,-0.41684644233030727,-0.752149783513251,-0.20696785591070022,0.03990502450980393,-0.3956698925209609,-0.4949687920540217,0.21736865824198678,-0.6503268697307989,-0.3332355843455966,-0.5886088309254748,0.36611380874755217,-0.3682850654037333,-0.41046958659023797,-0.37544060070481367,-0.5669513425967403,undefined,1495893999351
903d185fccf839df,-0.3798492797011508,-0.1272720601041583,2.639686071319328,2.3728887067610644,-1.0455320096362388,-1.758653547505978,1.8369923669329413,-0.86971165903319,-0.4003707693995555,-0.33982892447626983,-0.7707593550207629,-0.19756834242086657,0.20092468805704103,-0.2938281485210932,-0.40128441123151964,0.31637850801752976,-0.6137714856292311,-0.2874420671582322,-0.5683880474674095,0.40587259626301947,-0.3315128796590265,-0.4039974055842828,-0.3852807824621465,-0.5813315755638354,undefined,1495894000849
903d185fccf839df,-0.21907156458107485,-0.20417117099802173,2.231358389530915,2.015948924368704,-0.8927688353724224,-1.7582342853328832,1.9117919493417637,-0.3703852918865816,-0.3691795508387846,-0.6603473643093892,-0.6582362421990714,-0.11571090551874628,-0.865286597593583,-0.21883562654282726,-0.3370738352004718,0.41538838605779427,-0.5855990004054922,-0.1861276352482086,-0.49003775773499597,0.5373753197550403,-0.24355113916448504,-0.17444924904075468,-0.4275228268526042,-0.4406978469283733,undefined,1495894002354
903d185fccf839df,-0.04859182538430811,-0.15133979193910455,2.1420368759170727,1.9991993660066512,-0.744356513750606,-1.7732834989259785,1.942084688436438,-0.18085537175177477,-0.3344703901739506,-0.2570419576430849,-0.5660007746330888,0.25858038193643884,-0.8087121212121212,-0.19291229424591838,-0.36338962453156115,0.29617242603273053,-0.48476017800637994,-0.21439156255928243,-0.5198581659054913,0.44316762772796126,-0.28108452687313973,-0.1839929073234819,-0.4192847314609129,-0.48434685426657287,undefined,1495894003841
903d185fccf839df,0.060903397701784996,-0.11611876052585578,2.608423414486009,2.3662432632819996,-0.7062171530769922,-1.7718486873974397,1.9227424593445601,-0.3045326998951545,-0.3278688276725662,0.2983270454221133,-0.5042175049464721,0.17900112571521784,0.570834725935829,-0.1855055649716109,-0.3949686306267387,0.4396355318100571,-0.5554459836198433,-0.20103538533472595,-0.5210616167829247,0.4938747113962054,-0.27314609693575476,-0.20674904643704717,-0.38027379018790347,-0.46125596379457756,undefined,1495894005349
903d185fccf839df,0.16208236847153493,-0.09263820444298879,1.4759530804085208,1.4949572832193136,-0.6525052438462926,-1.7370382063791363,1.7943421797913124,-1.1379394981975053,-0.07271644406185696,0.6698419849021626,-0.2691848904150105,0.1986330362207704,-0.33870877896613194,-0.13828807703499257,-0.39812655774029815,0.45580035217434206,-0.5689208266204002,-0.21103510295285788,-0.4670672260792482,0.48545176263906153,-0.25725289535361473,-0.16523171222504315,-0.4518939097605234,-0.46075291770391946,undefined,1495894006877
903d185fccf839df,-0.051363817475329886,-0.16836319765663244,1.4848849776329558,1.6373224444064383,-0.7247314104989525,-1.641394987049722,1.8159407760649116,-0.8766261690827045,-0.006401103320149192,0.3140599854909468,-0.20368945512569475,0.07893640782456357,-0.9653799019607844,-0.14569475450620187,-0.33917903650419506,0.6194697377895186,-0.4761264038909844,-0.25230056426479724,-0.4443625758916188,0.630335733958448,-0.23590796821840523,-0.19198657248185813,-0.44987220251034293,-0.47037748460409967,undefined,1495894008338
903d185fccf839df,0.17732858376272767,-0.22060756171742826,1.448518488444366,1.582135789702515,-0.505502065937585,-1.5346203343783933,1.8530341916304218,-0.395349236144095,0.022155187444456076,-0.19496495977992323,-0.09602915196686841,-0.04435863613443907,-0.9697317847593583,-0.20957726027765383,-0.5570740931590084,0.4194295063547009,-0.5219830828037197,-0.3247431059606641,-0.5729219788112272,0.6957021362914767,-0.2919700713508956,-0.39739251637116324,-0.41122710718737066,-0.5996150586277303,undefined,1495894009843
903d185fccf839df,0.1094139321501558,-0.31570416678104707,1.9027829486627552,1.724606591032241,-0.6090893169449945,-1.5364813979327936,1.8431960869214652,-0.4704760998142792,-0.18916768695499575,-0.42849963828504467,-0.2087859016097865,-0.0661433267672789,-0.6085255124777184,-0.022558828965075554,-0.5602320202725678,0.5123774778318332,-0.5117550647780243,-0.25192691998987127,-0.584172852095614,0.8012122846105929,-0.2375819960633992,-0.4309527747324518,-0.47073197112060783,-0.6204293147508337,undefined,1495894011345
903d185fccf839df,0.1177300119394503,-0.24584926509263258,2.3927757601897324,2.17288541553782,-0.5715568077614429,-1.6451963084794827,1.8230149544528909,-0.7111777584910253,-0.2881487475854469,-0.20941963364536598,-0.19121522451853176,-0.0455122723963718,-0.5824142156862745,0.057062856719615244,-0.5560214409715102,0.45580043696850664,-0.5353457456243362,-0.2084702627013472,-0.6369707867079865,0.7938364280975251,-0.22456861847551102,-0.4960561162813294,-0.5835781577187451,-0.644988957012041,undefined,1495894012874
903d185fccf839df,-0.3091626014921474,-0.3063117806711432,2.3455627059997517,2.196267389861059,-0.6942754580251241,-1.7235915110241917,1.7655168707674727,-1.2533054494801994,-0.4868994296109268,-0.42057876641252995,-0.32090790117432616,-0.06334326054940492,-1.030658143939394,0.14501710960020833,-0.7012848071665632,0.4416562615468396,-0.5484059629865471,-0.15281002255338563,-0.7232344681717003,0.7869379237298506,-0.2266741626756742,-0.511994695764585,-0.604695499596659,-0.6132192071763917,undefined,1495894014398
903d185fccf839df,-0.14006870306654776,-0.31453004910082727,2.6996588334659584,2.5356498942361494,-0.5895464902312947,-1.7715109485394356,1.8509303362892433,-0.651941089582233,-0.5665913339440966,-0.5678458665147423,-0.5613507815186783,0.06757223492757564,-0.9131573083778967,0.17834714526987558,-0.7644427751835156,0.27394572737003486,-0.5112278631886717,-0.03351636260754999,-0.8015147861679297,0.7440224569441655,-0.20616721225857124,-0.4946663809183763,-0.5745549203660694,-0.5990872943217577,undefined,1495894015845
903d185fccf839df,-0.05690793967901236,-0.3409457240162897,2.037403356963521,1.9301268502192919,-0.4885409481702773,-1.7030569380795533,1.8373789414950863,-0.6893737793720845,-0.5028265924313478,-0.44279819639293044,-0.5041498873122647,0.08698747985167567,-0.5214878565062389,0.07095038669121358,-0.7560217270149072,0.2618220838320996,-0.5305311740836284,-0.041844182413840546,-0.8012139234653932,0.70654263977208,-0.22440062629469454,-0.4906384902864916,-0.61674263240096,-0.5541258022724821,undefined,1495894017354
903d185fccf839df,-0.058293883966408645,-0.48417761738184695,2.1222586678281963,2.0668543368356,-0.4028096653931728,-1.752343639378554,1.8326452999743712,-0.7860274371284063,-0.2882219983524718,-0.5868582743301558,-0.5211618442213057,0.07857519937682395,-0.6607481060606061,0.04410109991573897,-0.8012849317826772,0.3931616308656556,-0.4832505458508879,-0.0454096301028522,-0.8272980347011477,0.857278022393864,-0.21712159628309874,-0.4743080708678836,-0.4881347684031793,-0.5210434449347486,undefined,1495894018851
903d185fccf839df,-0.1137344849058582,-0.45776191323839216,1.954461951464953,1.8401029781534493,-0.3293697872501719,-1.7549966423842485,1.8175659877965529,-0.9121571759626136,-0.35660232388392166,0.14218427485404495,-0.40822513543334576,0.0383480076920055,-0.8130640040106952,0.05798870759198459,-0.8444428542621522,0.3588112321355816,-0.5146206525538177,-0.005391757870395757,-0.8442653012850699,1.0262451673588353,-0.18668744289319866,-0.39376797907441136,-0.49004975165885567,-0.4950851983300647,undefined,1495894020336
903d185fccf839df,-0.354901074838677,-0.4577618840103998,2.0622856515446166,2.16630601096786,-0.5956767724759954,-1.8564419977261353,1.844429462127111,-0.9733703603998215,-0.24283577862643244,-0.048215342034439626,-0.4877035913783148,-0.04787349099986688,-0.7695451760249554,0.004290341253428128,-0.8423376014227923,0.22140991986250108,-0.4377409059718294,-0.04442802267569322,-0.8235197572008828,0.9549349652181627,-0.21483528295719234,-0.41556946208218426,-0.44959379584479675,-0.5123805133642557,undefined,1495894021845
903d185fccf839df,-0.09848826961466546,-0.48476457392398364,2.13884694892791,2.1114061221384604,-0.3434920514265474,-1.8921399194078758,1.90623252936867,-0.545151981649573,-0.308172166652034,0.4357667416596295,-0.47308851225239185,0.021431734981640246,-0.9392686051693405,-0.0845897624995343,-0.8591797345711779,0.3547699987797888,-0.42202815953176537,-0.1174848593435272,-0.8530393020999548,1.0960463201629829,-0.23218559038004855,-0.39335289306367516,-0.39502058871578904,-0.525274520529505,undefined,1495894023344
903d185fccf839df,-0.1469987350522168,-0.5510973271676851,1.7069132483184055,1.8019310046688273,-0.3425354798115033,-1.8727886002450407,1.927302540383685,-0.4310904990330952,-0.2674044952452051,-0.15816215097205488,-0.29920765862872273,0.024463799825806605,-0.7564895276292335,-0.09847721476648534,-0.8654955151759588,0.47600649068858436,-0.4280802643540644,-0.12956811976673047,-0.8381850728962711,1.0937827524114385,-0.23423473842635228,-0.3820601985350052,-0.31639039448215167,-0.5410122000027512,undefined,1495894024878
903d185fccf839df,-0.04443368197343165,-0.586905271281082,1.6201437779506729,1.5865784203572126,-0.3109995314592377,-1.8459511047849655,1.8697071602552424,-0.790271905530342,-0.30927768584219184,-0.39535794342497355,-0.20616765386597985,0.037935129214155185,-0.6650999888591801,-0.0790347349699655,-0.7507585323375203,0.5649132853393669,-0.41307406649048756,-0.09725110793184925,-0.7473594719827272,0.990074218992046,-0.19959792159697914,-0.42751826857673264,-0.3375203236411809,-0.6130881455503476,undefined,1495894026347
903d185fccf839df,-0.10819050072381467,-0.5851442555147103,1.62205793745373,1.6394149741269246,-0.44245073928278056,-1.8001163348498013,1.9153711115939054,-0.4026139239627624,-0.3608435849539878,-0.7439437288457535,-0.2401037337206215,0.07337355572715293,-0.9392686051693405,-0.14476887773228342,-0.7033900526436891,0.6699848438249915,-0.42314614557628577,-0.148794935636276,-0.7008096885473173,0.9184714480572201,-0.2273436924447401,-0.33215372652678965,-0.21202818432599121,-0.5204396815035796,undefined,1495894027858
903d185fccf839df,0.09555376466258854,-0.5176374430467737,2.001674751517984,1.9245637534262512,-0.45277758023769676,-1.8114760343952439,1.906700639622808,-0.4224290743028156,-0.520574711990325,-0.09540949218041699,-0.40407784033024985,0.013935234020571372,-1.0001949643493762,-0.12532639793576358,-0.6181267862498995,1.0175293578634854,-0.3376027433522143,-0.11727587548541614,-0.6638735235561977,0.9908287411226626,-0.18248189046354754,-0.3248588552039011,-0.1579734600534698,-0.5178928784029336,undefined,1495894029345
903d185fccf839df,0.13159007591078836,-0.22295568016589848,2.5905588576262906,2.355748670265446,-0.35539260293006303,-1.7744667532115468,1.8764605065488638,-0.4374302127053953,-0.4658534081509264,0.2319424093325834,-0.5889191348078122,0.016847222500540254,-0.852230949197861,-0.1651372343027217,-0.504442499772362,1.0054057143255501,-0.3565024086305322,-0.10437566919242208,-0.6084377917204485,0.870027934725284,-0.184774241929258,-0.35835725316237804,-0.05292139649505309,-0.4918208045469277,undefined,1495894030844
903d185fccf839df,-0.11096238929860723,-0.32685733483338403,2.224978789689539,2.15995557918054,-0.33772178107944884,-1.7832013994820948,1.8790350872823383,-0.5126414394021153,-0.412578701890506,0.443657006303238,-0.4768713946702297,0.0517478939226052,-0.9044535427807487,-0.18457976590233974,-0.5286530583507929,0.6901909823392337,-0.43015088466370693,-0.150435166897094,-0.5634622914418701,0.7351683459795816,-0.21680533062955373,-0.38005424550903677,-0.10503216372949496,-0.46691219042632676,undefined,1495894032357
903d185fccf839df,-0.06522401946830687,-0.31511712255493335,2.2154082463112035,2.021519226724068,-0.4932209486889596,-1.7371267195941085,1.923620812392015,-0.2318020613904648,-0.36596709241665576,0.3228977175831348,-0.3721783557816004,0.06261501965501597,-0.6433405748663101,-0.21790981452278155,-0.6528637194586365,0.5770370136714669,-0.532210853294733,-0.20524046245016056,-0.6268324066099079,0.7613919004997176,-0.26861444536809737,-0.36646797147226806,-0.06692993563305234,-0.3751242895062964,undefined,1495894033844
903d185fccf839df,-0.18996528531854406,-0.40082137073664054,1.8606742351019439,1.7186146839921814,-0.6791657778659036,-1.7184275863322587,1.9691085606134833,-0.0722326082591569,-0.4165231661757486,0.26409233141054855,-0.19561260911870376,-0.07542260897629477,-0.6172292780748664,-0.2956798632166064,-0.6718110612729792,0.5527896700661532,-0.5642674879964578,-0.3157946596395055,-0.674872509642628,0.7034475486429398,-0.33115030368816556,-0.43510974362137655,-0.33042895432035485,-0.47927373863408795,undefined,1495894035337
903d185fccf839df,-0.44360596042989486,-0.40551749072161164,1.5978132724787377,1.5903808497869358,-0.8089712724968572,-1.734967514170034,1.8641109285331467,-0.8803796358685093,-0.38849646023248535,0.057709408543725436,-0.028801023953661305,0.02650210210840037,-0.517135973707665,-0.39104072881453605,-0.7339164212758361,0.5042950676496907,-0.6944206580651126,-0.3939431835499458,-0.714096631294939,0.5186354061139002,-0.4151115326220216,-0.4582116487910917,-0.4076333414866899,-0.5473395872881099,undefined,1495894036880
903d185fccf839df,-0.5087486199514449,-0.5000270223311244,0.6605745008655978,0.6985204763453008,-1.0435057334812654,-1.77285724738712,1.9719303449675842,-0.3512109582255094,-0.2845015212975368,-0.44512048245717245,0.0923115690887031,-0.12292175296891718,-0.7216744652406417,-0.41511242412057897,-0.8086533498504886,0.4800476533825733,-0.6773281016634557,-0.517353255978073,-0.8030960658726043,0.34201523819122476,-0.5268766166317823,-0.43399527803689497,-0.5000532931382731,-0.5271470050559275,undefined,1495894038350
903d185fccf839df,-0.7679334172664782,-0.726614986973934,-0.23774573831284262,-0.25428954434027806,-1.3440537984566685,-1.8185569199481308,1.9419137336653107,-0.7054314555477373,-0.27881711289520705,-0.5023081763572,0.08162725106056537,-0.02580223375887383,-0.6433405748663101,-0.4808465863090587,-0.8949692389828414,0.1890801519426843,-0.5546561572613943,-0.660135804167309,-0.9061311031606397,0.10270799893749068,-0.6700517746104234,-0.37713263553871607,-0.4744509547662758,-0.45443695963056197,undefined,1495894039862
903d185fccf839df,-1.0756286282609482,-1.0365592274899422,-0.8553407121453084,-0.9101930801705622,-1.6037676488040327,-1.8287310372793928,1.953148266632268,-0.7305968624511585,-0.23839536169623846,-0.5559371304556743,0.110053918553428,0.009676680422333035,-0.6650999888591801,-0.6252766869160563,-0.9254955781660532,-0.15038190951658498,-0.5508129643340223,-0.8372935700117852,-1.0065913140888776,-0.24169363074293282,-0.8452612036685145,-0.33121231867317685,-0.4180764723725065,-0.4131650634505382,undefined,1495894041342
903d185fccf839df,-1.0728566016645167,-1.034211109041472,-0.875118666097235,-0.9397980640184629,-1.639243019100026,-1.8039199824504326,1.9357205512222726,-0.8277178319555224,-0.2858234284870009,-0.6563181043501268,0.10379807920683042,-0.0058623672061450674,-0.7477857620320856,-0.761374278605637,-1.1033905547892622,-0.483782248133412,-0.7294100045003921,-0.9321484003563952,-1.1072124516978639,-0.5072706194896598,-0.978919008175797,-0.3912179705075751,-0.4414185968602142,-0.4370280194788677,undefined,1495894042857
903d185fccf839df,-0.9702915313330268,-0.8399089692953388,-0.6677652794192901,-0.6773806090742379,-1.4636764549440398,-1.7877736971399703,1.950457987116654,-0.5980057588720432,-0.3904507688529157,-0.7101859810598063,-0.038674206752587585,-0.02573306523253272,-0.847879066399287,-0.7363767712795484,-1.1086537218582724,-0.43528763158458866,-0.7469718065797016,-0.9123516188748745,-1.1139083999759947,-0.4216706609441198,-0.9595850183846015,-0.36298103108322866,-0.36535783873160216,-0.35910518473811565,undefined,1495894044342
903d185fccf839df,-0.449149996370053,-0.4612840032271205,0.3288086247343769,0.35622523030945324,-1.171387798578935,-1.7636451086851546,1.8762816762470096,-0.9157526249749491,-0.472913637016025,-0.7661054746140059,-0.10111941969087403,-0.0039007789790793377,-0.8783422459893049,-0.6262025377884256,-1.0728642045626997,-0.3847724478211317,-0.5688771088998923,-0.845247748488656,-1.0766014037820801,-0.4415808527101178,-0.9223926551027599,-0.31778408854875917,-0.3706437655838054,-0.2852490753929544,undefined,1495894045845
903d185fccf839df,-0.45608011461924636,-0.24056615933753245,1.4421383803290917,1.3392403247251383,-0.9479927444103868,-1.7316180680542488,1.7956307855835425,-1.2505350127757853,-0.5550709907111561,-0.7697821920291613,-0.13595511781837397,-0.04752807009300855,-0.7956564728163993,-0.4114090594834252,-0.8970745249522533,0.1446267970143753,-0.3201826456478285,-0.7327176718809014,-0.9965299004152393,-0.22273814648521228,-0.8060120093530988,-0.3050798332998325,-0.317810874751472,-0.25940043955710274,undefined,1495894047343
903d185fccf839df,-0.38816539399585503,0.017133775573664696,1.5097680346248996,1.5890060959203418,-0.7719838984805797,-1.6164674674714912,1.888789028852762,-0.3864179655097358,-0.22947431976698585,0.04841171480863357,0.09130854596007766,-0.06768852105521386,-0.7782489416221035,-0.3697465472732775,-0.774969098278185,0.29617236950328746,-0.5044286360037791,-0.5997448537026325,-0.8831465800546954,-0.0017550562624987825,-0.6640085760261629,-0.34587732027933826,-0.42086876768908715,-0.3302103331137728,undefined,1495894048881
903d185fccf839df,-0.2634241281456179,-0.08441996524129702,2.0291090893451895,1.9487942022851528,-0.6042550395769767,-1.5955252784189227,1.8991609899499697,-0.26742771307839225,-0.2167481860344192,0.2056801975515009,0.12693242284636785,-0.049750443519737925,-0.8783422459893049,-0.3910407029129869,-0.8097059946757531,0.18908022260448812,-0.6966702846015722,-0.44588598614130814,-0.8139970984418795,0.2785736434775545,-0.515114441217562,-0.47670420944661174,-0.5202126612412283,-0.5082359257727105,undefined,1495894050356
903d185fccf839df,0.038727184930332954,-0.15544889692595426,2.100566300236263,2.107118620678907,-0.41475135972485305,-1.6254257238129026,1.8647920523440793,-0.4867108977296123,-0.3323548999552375,0.3129331691718273,0.2537434745968754,0.028240557387577366,-0.8304715352049912,-0.39659574339333026,-0.7497059095989573,0.16281231885072123,-0.8361838801946477,-0.4509460085049643,-0.7824764652222347,0.29187790197208546,-0.5000295059562856,-0.4859753923872685,-0.5740859274989915,-0.5415225079051249,undefined,1495894051846
903d185fccf839df,-0.1733330912345453,-0.33214055750045357,2.36853109521474,2.4647028937683695,-0.4385936034154908,-1.7298827864338624,1.833194934921524,-0.8769121032964984,-0.5899428957265556,-0.4021288552198445,0.07463982571158582,0.010878836228751106,-0.8043602384135473,-0.47251407739164186,-0.7602322326936269,0.043596500149265145,-0.950625398934935,-0.4664617211845111,-0.7900889959393073,0.2805292499667647,-0.5159694558715401,-0.5056918179496507,-0.5934548848975699,-0.6061390962479831,undefined,1495894053352
903d185fccf839df,-0.23708984097410885,-0.34388082823488897,2.3959656871788946,2.3388419574553794,-0.44101074370991916,-1.6715842565319965,1.7717126885134635,-1.1883238348246312,-0.718881044338942,-0.40535644996572306,0.26514464020790424,-0.14913849635629975,-0.7956564728163993,-0.48640160736324023,-0.767600665485906,0.25373970191467865,-0.918853008568447,-0.4850425781332991,-0.8471969657886791,0.31750091732175095,-0.5348338085296076,-0.47619554992138247,-0.5825332738180198,-0.6026283678492413,undefined,1495894054858
903d185fccf839df,0.1426781132856949,-0.3867329815537349,2.577160757652689,2.5707903600482944,-0.07956106696384606,-1.5933614143179866,1.7475500239113526,-0.941714434546999,-0.6852100725084823,-0.04017687428865959,0.14219017849269788,-0.15531748993359917,0.03555314171122996,-0.40955738364023564,-0.7549690895518766,0.3749761090293096,-0.8036407631067712,-0.4213838282826185,-0.8096450832510621,0.41200117631210914,-0.4655874634025392,-0.4933237571896426,-0.5362101796264659,-0.62791298346799,undefined,1495894056345
903d185fccf839df,0.19811878323596394,-0.3679485016138505,2.8432116472650577,2.643826979149443,-0.08072335545642431,-1.561113097619008,1.7752182201968298,-0.6798052990115904,-0.5030996086406049,-0.6220436035717216,-0.0005511667004356592,-0.12616962458945596,-0.07324392825311943,-0.41881577580695817,-0.693916374374284,0.3163785362822513,-0.6505267951320389,-0.3214246454447637,-0.7476953201343371,0.6122425608417698,-0.37165064907732237,-0.41011379701783596,-0.45008650093666835,-0.5551477731228063,undefined,1495894057840
903d185fccf839df,0.12327392711067438,-0.36970948815223004,2.457852608828582,2.2868019985659926,0.15041683138482054,-1.600996661076651,1.777053823014455,-0.6423493230676053,-0.5160999315240778,-0.6389640710378991,-0.14229299516315325,-0.030563943903874107,-0.7303782308377896,-0.4271482782489877,-0.6581268699626206,0.5810780774389304,-0.6420512670086977,-0.32407181565830023,-0.7030276812409924,0.757111138400594,-0.3282107132109899,-0.3806351982021325,-0.4594513637278627,-0.5153930780912411,undefined,1495894059373
903d185fccf839df,0.1828725679447712,-0.427824031422232,1.9602039217002254,1.8863215346837203,0.01645591718885663,-1.6406519579465997,1.8612181447231364,-0.32875280616171687,-0.4317152374942795,-1.2378906830037302,-0.1404996980636892,0.08756953445519786,-0.6128773952762924,-0.3438231890748195,-0.5897057072682813,0.708376419381415,-0.5990004711207019,-0.28087480627560646,-0.6701076865861764,0.7405578095862227,-0.29522473355604584,-0.3956978046846995,-0.5103380483778278,-0.531085498171738,undefined,1495894060853
903d185fccf839df,0.35058045307215513,-0.3509250666683303,1.3617492722135829,1.3592157292048805,-0.15572664948265078,-1.5802128592779299,1.8768181509159843,-0.2543109188944403,-0.4853551773935709,-0.9460542620703324,0.015246248097143046,0.12231442267399574,-0.7390819964349377,-0.35215571741839813,-0.5612846209244294,0.8033449792717222,-0.5221801563407829,-0.3234638517918374,-0.6494321110267162,0.7847359518198246,-0.2971264788967322,-0.40384086960773546,-0.5208822139928222,-0.5008231029484793,undefined,1495894062352
903d185fccf839df,-0.034731588885921386,-0.2834182249724014,1.5148718669801697,1.4913899693441701,-0.4141650757078464,-1.5399403141806034,1.8763921227548737,-0.25604288578044326,-0.4375696863104639,-0.9379122580228475,0.018045029692665856,0.04608434464745116,-0.8957497771836007,-0.31975151967032567,-0.6244425963036155,0.7285825013662144,-0.5829323384353315,-0.31400243403747385,-0.6223614495858084,0.8636991780624975,-0.2779989384708164,-0.4182691000129944,-0.539107973431889,-0.5542936123326163,undefined,1495894063854
903d185fccf839df,0.22999708909492625,-0.34446784323301033,1.7924069512000325,1.6512117084713753,-0.16811063571879056,-1.493583794997691,1.7576511173468485,-0.7789202758854354,-0.5234006910833934,-0.7562290523849957,-0.019570843440591634,0.014801795856647298,-0.9871393159536542,-0.48454994447082517,-0.6549689943846977,0.6134078029616649,-0.7315979190507508,-0.4463419578480038,-0.6516780848529538,0.7883237864990156,-0.3639112014239741,-0.3789558206184394,-0.5692696567737977,-0.5452738191706068,undefined,1495894065350
903d185fccf839df,0.19534675663953244,-0.4401513463827812,1.7688001699680929,1.5880032338111736,0.06622840174311656,-1.5208382239515839,1.6976179115026493,-1.1440709122859618,-0.5582646555212417,-0.6708893042002405,-0.039324863257003025,-0.008787485039354868,-1.0088987299465242,-0.6104633708259614,-0.6686531636083549,1.0033851259123754,-0.5881976672929292,-0.5474474029820932,-0.6620403603605057,1.1690041577972818,-0.320154165575854,-0.44844794998467724,-0.7778666919793568,-0.3907617575377636,undefined,1495894066856
903d185fccf839df,0.7594546520890799,-0.35679521664954417,1.6233339590767848,1.5626437052609108,0.06428440554898811,-1.5265332122151476,1.7392556295483832,-0.8957179542429219,-0.613435451280694,-0.43235439399753695,-0.04571512015517178,0.0072515661020801665,-0.865286597593583,-0.5965758667559121,-0.6844426519314761,0.9932820990523364,-0.545751257374141,-0.5694227167951934,-0.6454089402276503,1.4612050621266024,-0.28538982591856166,-0.43626125050078657,-0.484359797541047,-0.2865567290844066,undefined,1495894068341
903d185fccf839df,0.3367203200899976,-0.3162910648671991,1.8645022999711085,1.868266604328146,-0.21269912726922044,-1.5847804992157355,1.8213686946039642,-0.6455854471361119,-0.4802217051162471,-0.45358538537137344,0.10008697427031948,-0.006279190665861061,-0.8609347147950089,-0.5817624729611699,-0.7044426901067198,0.9326639378921033,-0.6160282484821146,-0.5764396189046536,-0.6572895241725719,1.453167071140038,-0.2953151069415604,-0.42756058193763813,-0.47713072687152247,-0.29777889176132305,undefined,1495894069876
903d185fccf839df,0.32008816051140854,-0.21943359017717015,2.4297801331213744,2.247577715279223,-0.24041908462289205,-1.6043577546203043,1.8370765201200172,-0.5541770111530968,-0.5369134293899622,-0.31517660308480533,0.06100633559757974,0.014287399264028767,-0.7738970588235294,-0.5595424923506401,-0.6833900439173807,0.516418711187626,-0.7021855626587102,-0.5773325641403392,-0.6105578253793794,1.3000603287811137,-0.3123322707758679,-0.42243572150461867,-0.46438937709998157,-0.3380752751120618,undefined,1495894071348
903d185fccf839df,-0.08601414993072369,-0.017500196999474176,2.285589689716172,2.2700703920326775,-0.33068635867967106,-1.5428751554193307,1.77719847660838,-0.8182501981360206,-0.362961838210507,0.2859139906660431,0.19731975938079963,0.08828962598298533,-0.4649133801247772,-0.6262025507392002,-0.6360215789480171,0.17897716747972772,-0.7196423909070393,-0.5966543760142919,-0.6167500028890146,1.3264994630856635,-0.3226940374132893,-0.4159248347430385,-0.4707505311007935,-0.29771199910062457,undefined,1495894072902
903d185fccf839df,0.1135718340231641,-0.23293493513396207,2.221788862700377,2.1046839288065553,-0.19974943365551714,-1.5115678519786704,1.787296929765194,-0.6473281679090953,-0.37714859260772793,0.025956464093031005,0.11916397772753183,0.04892768716594467,-0.5650066844919787,-0.5780591730778888,-0.6686531783328226,-0.07359875840373764,-0.8307240940695229,-0.598174282513476,-0.6524337386292189,0.8999471257107688,-0.43057703298587074,-0.40072527753662945,-0.37111178699520764,-0.38748272177553655,undefined,1495894074342
903d185fccf839df,-0.20382548731152106,-0.19008272335913143,1.8925747756783162,1.8428093922789697,-0.22037225037412445,-1.4861791447087835,1.7951337503719893,-0.5728809651322422,-0.3631605423536646,0.3207798201516578,-0.0018876600885078458,0.06495258392102822,-0.9175091911764707,-0.6669392120769785,-0.6349689856583892,-0.16856731829404478,-0.9323312617028482,-0.6486415100529694,-0.6815614621191971,0.4497119746219133,-0.5450823946335552,-0.4491349577515028,-0.5736923920585156,-0.5940302971546294,undefined,1495894075844
903d185fccf839df,-0.31332060688138497,-0.24408822009826842,2.053991383926285,2.0990042512979885,-0.2364487932628388,-1.541570782841779,1.8526528580816923,-0.34608830845240296,-0.364503606177764,-0.13914554250560543,-0.05955618962680238,-0.07630861073886425,-0.8870460115864528,-0.6391642168876546,-0.6749690031110062,-0.023083708897707937,-0.8978628587788386,-0.6356019794530793,-0.6482916268410256,0.4690832174586384,-0.5156369901755607,-0.48744163945350133,-0.5351982653563573,-0.6147628938888139,undefined,1495894077348
903d185fccf839df,-0.25372196604728814,-0.1225759401191872,1.803252753790575,1.7313788675717086,-0.294418981155487,-1.4903554700442645,1.7739401414748677,-0.7409727620462202,-0.5252138942779714,0.011930336127070632,0.002847808398478299,-0.027624497193373718,-0.843527183600713,-0.6206475232096313,-0.6791795087897259,-0.0695575533126664,-0.9423028390161708,-0.6426885425034576,-0.7272016590701535,0.38374503344150934,-0.5591932128190763,-0.47094509713461113,-0.5641417906546364,-0.5683312252756606,undefined,1495894078863
903d185fccf839df,-0.1054184051165637,-0.2540674166103473,1.8798140511738684,1.8334832077300927,-0.34872746364715546,-1.4387535030862773,1.7456960297535922,-0.8503893796391856,-0.41225520099416285,0.06484702512745548,0.1491410470835412,-0.04200706433558887,-0.9740836675579323,-0.6410158733046823,-0.7318111684364763,0.013287306510262416,-0.91373518004483,-0.6685332861879508,-0.7410763347388684,0.513245957948528,-0.5432831051385242,-0.47363766932177415,-0.6022878013098454,-0.5452471812229064,undefined,1495894080411
903d185fccf839df,0.15653824626785243,-0.27461305845656525,1.7554023241314407,1.7434353311978874,-0.1401129592136918,-1.457566768393434,1.6963792845464902,-1.1597718681410294,-0.6339380413725076,-0.01810836368416598,0.23543491189588348,0.06480513947355566,-0.9958430815508021,-0.5891691892847027,-0.7476006641218313,0.14866803037016807,-0.8350690609768536,-0.6252602828652948,-0.7410693385152296,0.6429470634175695,-0.4926119443688466,-0.49189432119200105,-0.5506104940322346,-0.533658962071073,undefined,1495894081852
903d185fccf839df,0.5584826548369763,-0.2763740449949447,1.8472756268544435,1.9873827553492727,-0.020510874810577114,-1.460252381687755,1.7685648200526103,-0.6038468860539086,-0.7454612552652923,0.4260178809990636,0.14224079117380722,-0.002984265222229113,-0.7129706996434938,-0.6039825053747977,-0.6286531093445691,0.8114274459833077,-0.5787981240168805,-0.5896628068865345,-0.6775872750215733,1.2136288541007003,-0.3389897763973558,-0.4236019862027148,-0.41766753817280405,-0.08356041075022996,undefined,1495894083353
903d185fccf839df,0.4988840140028795,-0.19184382680948028,1.7994246889214103,1.8914715178778014,0.05499642514629879,-1.545553782206032,1.8416734218120792,-0.26396335462670323,-0.47179695360582385,-0.00481809765372222,0.08282952990956839,-0.012872779594463315,-0.5084322081105169,-0.5530616268994766,-0.5876004617911553,1.0943124807116114,-0.537649789664252,-0.5858187109657608,-0.6727804654966336,1.4070179291951557,-0.29599502282438284,-0.4076110844860001,-0.46967094766817047,-0.04224297969302503,undefined,1495894084904
903d185fccf839df,0.457303615056407,-0.1988880652429216,1.3681293803288574,1.4350440564742841,0.005666225326631158,-1.5458472664099998,1.878969323864116,-0.059176551777324116,-0.32945809273632354,-0.0961301704651823,-0.054822041876070995,0.058073611201175906,-0.45185773172905525,-0.5549133027426661,-0.5907583300068444,1.0943124807116114,-0.5076088190616387,-0.5815756385302715,-0.6848009866928721,1.3171833973306861,-0.3167277563185985,-0.39310005345690924,-0.4640237203876924,-0.014690892274533237,undefined,1495894086686
903d185fccf839df,0.7095583113749517,-0.20064905178130107,1.5895190048604062,1.5672171352540782,-0.13793239272987196,-1.5999950913796266,1.7606964287102282,-0.9339777889316491,-0.20613972662732252,-0.4818535567335449,0.03329177633886711,-0.0872965154800372,-0.5563029188948306,-0.5419516495449863,-0.6254952632155814,0.9892408656965437,-0.5410017124171628,-0.5841214826581796,-0.6759430244716712,1.4445747378001963,-0.2915857603836284,-0.386551662854005,-0.5032727173953477,-0.07507612164092381,undefined,1495894087842
903d185fccf839df,0.8329134949161537,-0.24526219163852653,1.7368996293917207,1.6259947235264807,-0.028657147297156776,-1.6495799357587877,1.8142839805036615,-0.6913764140825199,-0.29902846782177306,0.1554799101794825,-0.0322223125825937,-0.011374255413670603,-0.7564895276292335,-0.5604683043706858,-0.6128636725570844,0.9831789308686899,-0.5850948738304869,-0.5959260890029017,-0.6335703367503797,1.3517067117116275,-0.30131571334018187,-0.3848134090891968,-0.4741647129721569,-0.12733591132832947,undefined,1495894089343
903d185fccf839df,0.852317853618223,-0.17892949685080975,2.3844814925714006,2.318035808442584,-0.20131285719073547,-1.49401703678209,1.7596576526757617,-0.7891912072830585,-0.49150132767476884,1.656397880902488,0.10874805245208055,-0.035047365815380205,-0.8348234180035651,-0.626202524837651,-0.7402322313295522,0.3588112321355816,-0.863614014646118,-0.6239240330061883,-0.6944285955413417,0.7533077172731458,-0.46179896873102777,-0.46929158526249937,-0.6308976327758267,-0.5724179820321325,undefined,1495894090823
903d185fccf839df,0.3796866288184567,-0.08265892024693286,1.7828366619586462,1.700111010913982,-0.16368777912446023,-1.403230279123039,1.7802148493965617,-0.46358747542893863,-0.5788704395221206,0.9801505360144235,0.05884754529818364,-0.14359125254961394,-0.33870877896613194,-0.6243508489944615,-0.8360218281802452,-0.14027891092126765,-0.8881231487714029,-0.6524539432983858,-0.7711836109380124,0.6752991877150529,-0.5296076333445117,-0.47578387762146174,-0.5021660874253843,-0.6419267250308511,undefined,1495894092334
903d185fccf839df,0.1634684162751604,-0.17129824341924704,2.0131589461254777,1.9984242679624749,-0.5376243032841533,-1.4803630332677995,1.7426086232031621,-1.0243678250120347,-0.35731837671384914,0.25473807702754814,0.11756946506409172,-0.11752007086920102,-0.34741254456327986,-0.6604583725273641,-0.9107587346681963,-0.14634073269023526,-0.9688459396791964,-0.7063789587667451,-0.8593364326046606,0.6251156553787608,-0.5904481154086334,-0.4910681120047494,-0.5451530113512764,-0.6383280823447777,undefined,1495894093818
903d185fccf839df,0.19396070883590696,-0.22941284514523375,2.4246763007661043,2.2987634859693715,-0.4524073156856621,-1.6179768143469433,1.8214239178578961,-0.7372952189624841,-0.45244371634361286,0.158339352095899,0.025833389767718155,-0.003315865188238696,-0.8087121212121212,-0.6160183724539811,-0.9044429687878831,0.40932650775938356,-0.8641916156048279,-0.5921389889274346,-0.8244293438321459,0.9347321968229474,-0.48089586386494093,-0.45329563708746134,-0.516407750691866,-0.6194453617764111,undefined,1495894095320
903d185fccf839df,0.8426155189928445,-0.48124245470726296,2.5650389334390917,2.5098525412986077,0.17872306461737916,-1.6485108131923472,1.836300734121492,-0.3182191860597813,-0.2695305024862582,-0.7273789779892676,-0.162371026039749,0.07194062847743812,-0.32565313057041,-0.31141905608061976,-0.8107586174143161,0.43155314989263616,-0.6583475612042322,-0.2828760173247721,-0.7118996350041458,1.4607430924199698,-0.20830319246105522,-0.39914974853266294,-0.47501854559343953,-0.6487242612979788,undefined,1495894096829
903d185fccf839df,0.9410227392094408,-0.4442604513696309,2.572056925297419,2.5176313412793356,0.18855619550733277,-1.6757629126447198,1.8064655776869267,-0.5536104776007086,-0.16864924273725374,-0.4220703041675329,-0.13312885054085363,0.19768691829964688,-0.012317569073083769,-0.25864652766365814,-0.7307585383356795,0.6336139132111857,-0.6312946785931753,-0.26447881616895175,-0.7149222557002003,1.4596344026246615,-0.1941983761367931,-0.3924661736206258,-0.4515053602345139,-0.6723764938220642,undefined,1495894098347
903d185fccf839df,0.8994422712521488,-0.4554137655619296,2.5197400387521687,2.4624981505555112,0.10096319732716152,-1.7461688264471324,1.8171978234299362,-0.6520009927362602,-0.3366490096440359,-0.3359531427049601,-0.2330396600215486,0.19854948210126466,-0.2864861853832442,-0.20494809657122892,-0.7012848071665632,0.6376550900375354,-0.5587383985846939,-0.20749498997298885,-0.6980599414812911,1.5207354379249733,-0.1545866446617003,-0.4164817300376138,-0.3485021698821605,-0.6909275266876954,undefined,1495894099916
903d185fccf839df,0.45591760175819124,-0.48124245470726296,1.9927426001565998,2.0445970546122574,-0.18380660835522175,-1.7515982821619847,1.8904826353773723,-0.43885003727483274,-0.47393351573035597,0.43544908640056135,-0.11114402251854974,0.004039586762265092,-0.42574643493761144,-0.16976644981224479,-0.6939163890987516,0.3729555206161348,-0.5985625973374145,-0.2696971614103129,-0.6923505445827893,1.2960105315707011,-0.21686967391723994,-0.3988098577213482,-0.4218410836272796,-0.7026665912593376,undefined,1495894101354
903d185fccf839df,0.5141301602832529,-0.4178448056821608,1.8377058458869557,1.9939457567910952,-0.09714961009593902,-1.7917543676731824,1.973011213832177,0.0912942449092267,-0.5781899215978754,0.5407477602023795,-0.16555182041831504,0.080882186415735,-0.5606548016934046,-0.20865146120838265,-0.7254953436582927,0.2678839621305103,-0.756748221917275,-0.33309626096332373,-0.7464848702683531,1.2320299932319074,-0.2743429834451186,-0.39806605798973416,-0.42565660067317496,-0.6432046089645116,undefined,1495894102851
903d185fccf839df,0.274349687164879,-0.48769961968659825,1.8485519026144477,2.0429260524313166,-0.25633105744727436,-1.789634758882265,1.9262532563962231,-0.25661264737048517,-0.5852855222505197,0.6092365159445517,-0.17669575438764237,-0.022180474165818947,-0.6868594028520499,-0.3734498730581076,-0.7486532574114592,0.3749761090293096,-0.7222203119115237,-0.33581942691070227,-0.7408104567819432,1.4345657467927182,-0.24375881030811472,-0.3841819224429535,-0.2937821553631955,-0.6504170195244711,undefined,1495894104341
903d185fccf839df,0.27296357035043406,-0.3127690625624478,1.9710499784277171,2.0931355457780554,-0.20245457997271712,-1.7372851062970758,1.8655757392757346,-0.5624245732735902,-0.4313033990966318,0.12772257179966875,-0.14126071995079653,-0.042726520158274287,-0.8217677696078431,-0.38178238845091167,-0.7465480119343331,0.5346041199650857,-0.712477805752735,-0.350416861749354,-0.7106891867102464,1.3821648380025278,-0.2516018397545758,-0.39496250412279016,-0.3039746440940586,-0.601713875305598,undefined,1495894105848
903d185fccf839df,0.020708805021069768,-0.46950209628885053,2.1624534760229004,2.2287872183875597,-0.04144228243354612,-1.6097965272684704,1.8698938760392807,-0.2635225451105157,-0.32469960776142265,-0.4633456616025513,-0.20954611229213518,-0.02027971969216966,-0.7390819964349377,-0.36233988275284273,-0.7349690587388668,0.5750163404641273,-0.6474510823051193,-0.33122170910329585,-0.6858225198941571,1.4145015700472274,-0.23060583678644617,-0.4110522519437287,-0.32439894909243605,-0.6164459219437252,undefined,1495894107353
903d185fccf839df,0.0886237326769195,-0.44073836138090255,1.9544616973280036,2.0067031699328015,-0.015234324787113706,-1.617646064468271,1.8456523230946305,-0.4447954842688588,-0.3593835456462684,-0.5923893380245449,-0.12389852571744923,0.03159561428934611,-0.7216744652406417,-0.3558590691047773,-0.7949690996422597,0.39518216274938733,-0.6406061842263746,-0.29313538699016045,-0.6893559080594768,1.513636754479999,-0.2060222190545151,-0.44263435952208235,-0.25576973995681174,-0.5802593968872305,undefined,1495894108858
903d185fccf839df,0.42819719777223725,-0.4524787782552997,2.0055028163871484,2.1084115795328633,-0.11259872256255073,-1.6931227339520312,1.9188214129525678,-0.12414514117028884,-0.4051464462546681,-0.408838512707632,-0.13156772266332897,0.005268756490050437,-0.7651932932263815,-0.31975148081800203,-0.8118112548773467,0.5810781057036519,-0.6435663056434284,-0.2546880864949904,-0.6821561895878542,1.4419723910692324,-0.20105876758500116,-0.4846504336394359,-0.24133795698659635,-0.6375135720853663,undefined,1495894110380
903d185fccf839df,0.5709567055100987,-0.6368016045773847,2.22753032466175,2.0624242869446863,-0.22018711532138394,-1.7418084903739828,1.8383966846013329,-0.7723358757976772,-0.42568266977514185,-0.8221268788409353,-0.19606655369516854,-0.0023159287161490533,-0.7086188168449198,-0.35122986654602883,-0.7539164447266122,0.6053253927795224,-0.6658753374906294,-0.29141282536313995,-0.6917977958628891,1.3600372625668333,-0.23271753765557368,-0.48362265728968484,-0.24276259958568222,-0.6305531013050203,undefined,1495894111841
903d185fccf839df,0.3575104850578241,-0.6097988562078162,2.22753032466175,2.0742562880793063,-0.4483341628080398,-1.7129398992695557,1.8426490867535055,-0.7837099532509718,-0.3936016249645447,-0.8836818961675293,-0.23837919569484883,-0.058452882720140424,-0.7086188168449198,-0.3567848940755976,-0.8065480822866613,0.5507689403293707,-0.6426182244803424,-0.2961245355421695,-0.7278733526145785,1.251678400157366,-0.2661626364771761,-0.4835058932657265,-0.19448220142557518,-0.666787256709195,undefined,1495894113337
903d185fccf839df,0.32840430931152254,-0.592775421262296,2.188611792227051,2.103656845090554,-0.2977824163862697,-1.7010328277608757,1.773671905711663,-1.1867251984155944,-0.3782571504177771,-0.6806387190744433,-0.1224588707933342,0.07411661154807875,-0.6825075200534759,-0.4891791081772501,-0.7823375384326979,0.5770369854067453,-0.7136557530600445,-0.3288721871650834,-0.7302242826228756,1.3277159202978528,-0.2645958454342481,-0.4693524854695443,-0.2520941042829869,-0.6636315703682983,undefined,1495894114830
903d185fccf839df,0.5903609261905289,-0.5857312412848393,2.1567112516506786,2.2025427913768127,-0.2624510516183176,-1.6796504129351146,1.7615353548705237,-1.1996261981081184,-0.47140195268769897,-0.12104245422277496,0.026791444522659174,0.05125791004030301,-0.26037488859180036,-0.5650975328309835,-0.7823375237082304,0.5487483519161959,-0.7399202031322838,-0.38548870299871424,-0.71736414434165,1.2243769567445821,-0.302665017566685,-0.474916626203347,-0.2983968392222207,-0.66759563691955,undefined,1495894116337
903d185fccf839df,0.8190533964394059,-0.4747852897279277,2.1184306029590316,2.1874419153451448,-0.1770797622399974,-1.6289545214132457,1.7444310948113395,-1.1006864438839463,-0.5435311826807826,-0.20950708209657806,0.02003841955450195,0.1637592705170102,-0.10370710784313725,-0.5484325149961499,-0.7781270033050431,0.5911811042989692,-0.7298331829948774,-0.4991270444510323,-0.7162936319777825,1.3144886553498591,-0.32429852652687013,-0.47173812229919504,-0.3590631575229978,-0.6590031497142547,undefined,1495894117839
903d185fccf839df,0.7913331994859104,-0.4008213999646329,2.0329374083513034,2.1127183255974287,-0.3252349412898143,-1.6283279563322863,1.8151833910960986,-0.6902443799164468,-0.471023856426636,-0.30832935131960765,0.004841593027653523,0.17727072385769116,-0.4779690285204991,-0.5752816852146535,-0.7739164681773882,0.47802707910175923,-0.7285112746461376,-0.5147060855707531,-0.7255084314619379,1.1889451288723958,-0.35697531589119424,-0.48030844532994843,-0.3636856275126265,-0.649229969107013,undefined,1495894119341
903d185fccf839df,0.7857890772822279,-0.1988880067869369,2.128000892200418,1.9646868754745153,-0.2466933552391657,-1.5759783033266888,1.808082913887841,-0.5981052087993186,-0.26441454887274063,0.5492113910294877,-0.07915495286625729,0.12272264223831389,-0.41704266934046347,-0.522509182699241,-0.7749690909159512,0.6356345581538037,-0.6896025716164023,-0.4558223743115929,-0.7125433408646357,1.2149377071550942,-0.31850360829041585,-0.49922085201701183,-0.2629761924421922,-0.628120208723623,undefined,1495894120872
903d185fccf839df,0.9146884865433416,-0.059765335320198745,2.3264226357908777,2.030643714617473,-0.100533602935208,-1.687080684245645,1.9404121284578302,0.13385305298456815,-0.3162372502642718,0.30934052546278346,-0.28892363955822964,0.03537528569273133,-0.5388953877005348,-0.4410357434667133,-0.7160216580266537,0.7144381846209397,-0.5549381677117416,-0.4455440062913258,-0.687291848055639,1.2235300475357238,-0.3020575533483199,-0.4314678466206563,-0.10604869141272255,-0.6028658981563242,undefined,1495894122328
903d185fccf839df,0.6194673089692889,-0.15310077847748402,1.9818962892921583,1.9586735924208936,-0.08397362697430245,-1.7086284767071551,1.8767576759115385,-0.3383974233197056,-0.18067711684952384,-0.07451354796795903,-0.1525751761320338,-0.04835037170050947,-0.3125974821746881,-0.35956234308650925,-0.7012848071665632,0.8902311289798869,-0.47471733661706217,-0.43523397312081175,-0.6779231192154446,1.1764570010045716,-0.29501015241383655,-0.4427252016817141,-0.15007300599028206,-0.5037994651697597,undefined,1495894123854
903d185fccf839df,0.013778876551629946,-0.2763740742229371,1.9385112999713427,2.045799123976404,-0.47858439433727434,-1.7513211035571687,1.876686670694259,-0.6052282893238398,-0.438857444226103,-0.33620486637270947,-0.21230421285523032,-0.1747013294354492,-0.20815229500891266,-0.4114090594834252,-0.6623373241057037,0.7508091717641885,-0.46574735028742,-0.4503697088585885,-0.589133590780847,0.9436479067657684,-0.30689500320879914,-0.5008784968954992,-0.13849654849334825,-0.3820221428135174,undefined,1495894125334
903d185fccf839df,-0.14145475087017326,-0.3133560191045845,2.114602538089867,2.1662026688464313,-0.38132284029677466,-1.6543339122408993,1.810646977502505,-0.8349272958792386,-0.11546064219132886,0.678157880638648,-0.1391520492689023,-0.11258756853854314,-0.5563029188948306,-0.3438232020255941,-0.5402319231994538,0.8437571432413208,-0.4267238477266471,-0.40532981441604005,-0.5149464034894711,0.9883495935463177,-0.2540346496931173,-0.48430111513054086,-0.1770070154763833,-0.3471064863776731,undefined,1495894126894
903d185fccf839df,-0.19550926950058758,-0.07913677180221985,2.6792424874970804,2.4798315611879223,-0.34358461368754606,-1.513950664373096,1.8227598556605042,-0.30258313391722313,-0.1683886092637271,1.5271038302396882,-0.3935161418969116,-0.0512885713678354,-0.9001016599821747,-0.284569859960567,-0.5076003679880511,0.8882104275078259,-0.3704256649653879,-0.3997441590227403,-0.48080196700464134,1.024859307255207,-0.23769982266718212,-0.43471558548119893,-0.2569523611859265,-0.3084369811537023,undefined,1495894128339
903d185fccf839df,-0.14561272175400103,0.029461061306221496,2.8795781364536475,2.6649136900873125,-0.3739171348081342,-1.4483895681655736,1.765125027170704,-0.511009584457112,-0.20528108600675857,1.9202661753369705,-0.24601644525229216,0.03799407099275943,-0.9001016599821747,-0.33919405126994373,-0.5128634964053338,0.9164990044689323,-0.4384321039857896,-0.41212506416119143,-0.47044668873616036,1.0267533135411109,-0.242571106533958,-0.44980032607641324,-0.2690212064005437,-0.34880617652329704,undefined,1495894129827
903d185fccf839df,0.999235228723683,-0.013978107010745852,1.8160134782950228,1.6722343298808267,0.07540325436025873,-1.401080387124042,1.7697876734255964,-0.25891433477875975,-0.22867579013475747,2.0109471321282744,-0.291031951301275,0.01879463299878607,-0.8739903631907309,-0.36604320853767286,-0.4518108180389102,0.710397064324033,-0.4157565619822813,-0.3674144822306642,-0.4070695739250464,0.9680852306288906,-0.20867893693586448,-0.3998617806254437,-0.3892917482439625,-0.21639334034401164,undefined,1495894131368
903d185fccf839df,0.9909191489343885,-0.0028247635904548136,1.5825012671390284,1.517788480953105,0.17440308487261158,-1.4258914445429542,1.8019633567759696,-0.15367405149962748,0.0955859089058677,1.0831374230538033,-0.29220369850381295,-0.013204372507513492,-0.8783422459893049,-0.27901481948022366,-0.3297054024081927,0.7993037459159295,-0.4667511048225256,-0.29533925100232616,-0.40889573983884797,1.2577453856977054,-0.12812050041287615,-0.41500354946981916,-0.42960627216485336,-0.47588088674624607,undefined,1495894132836
903d185fccf839df,0.9465665853698454,-0.2470232366328907,1.6175919888415125,1.5835767877167635,0.29151603323710545,-1.3693701263719118,1.704523782207075,-0.5791061189759414,-0.007033749967924044,0.6611881157900752,-0.39193595140622167,-0.011156735864128126,-0.9305648395721926,-0.3206773316903714,-0.48338977996068505,0.7346442383410173,-0.5412914940993349,-0.31302716207871195,-0.45495574476952816,1.2489528719074086,-0.16326996650889458,-0.3991038929874198,-0.4512244231612608,-0.4780434317626893,undefined,1495894134373
903d185fccf839df,0.5598686336297823,-0.1531008369334687,2.0157107352346384,1.6947162377183742,-0.3008578302982967,-1.3295774049421611,1.7052864215452064,-0.5784026293033302,-0.13961647518159842,0.02106525272849626,-0.4253893785584246,-0.08255547141926656,-0.8609347147950089,-0.2836439961374231,-0.41286337915145355,0.7002940657287157,-0.5391727714998831,-0.32304587701082976,-0.4341822132093859,1.0842357011838786,-0.1802376604811784,-0.3836256324146846,-0.5354824985066147,-0.5665628733293648,undefined,1495894135832
903d185fccf839df,0.6444156173479919,-0.23410890667422016,1.6692704833698115,1.3125491552898223,-0.07832677102802849,-1.252651949841856,1.6453741808989648,-0.8064491537493791,-0.3871609023067625,0.40009836447584524,-0.20651285624272467,-0.11624058423530888,-0.6215811608734403,-0.25401729920336047,-0.4960213853436496,0.8094067445112467,-0.45333529886689905,-0.34427390503133737,-0.4985948533020387,0.9186562184981052,-0.23081995173679187,-0.38413034952250175,-0.5842926858577688,-0.4148299971107574,undefined,1495894137332
903d185fccf839df,0.5820447428850052,-0.05330805342889413,1.236060761137252,1.1201217506686056,0.12771631140640688,-1.3373034899740353,1.7537800461246005,-0.29789819466966033,-0.3778229157519868,0.24470591784158163,-0.27500477871576634,-0.13262424645092635,-0.4083389037433155,-0.2521656751632691,-0.48549505488674627,0.6800878424203087,-0.4737781517563016,-0.33911255725752615,-0.5400929392844879,0.7895248572741388,-0.2709603877985817,-0.32825977710260795,-0.6583435291366466,-0.4138755459737247,undefined,1495894138854
903d185fccf839df,0.7067862157677008,-0.13314221008537216,0.6439864739028336,0.6911248419256979,-0.045268542070735496,-1.3280540810612123,1.7715338686868272,-0.32086403696270027,-0.3413020009471787,0.12399428116695997,-0.0779988549639732,-0.20332174352819282,-0.6825075200534759,-0.21790978862123245,-0.5223371893992065,0.3648730256398277,-0.5136417798824537,-0.29747345092321087,-0.5775538655195526,0.4910413916587579,-0.3175597126584832,-0.329255124919926,-0.6819628921203522,-0.3577792971032873,undefined,1495894140342
903d185fccf839df,0.19257476454851066,-0.06739653029577679,0.6414344306567239,0.65912381256281,-0.5176391779682494,-1.4810734527056593,1.7764437196098675,-0.7720037728688077,-0.37114570624137405,-0.8565213463523186,-0.06730181561663634,-0.033847922089002565,-0.2734305369875223,-0.21420647578717691,-0.5454951105146069,0.20928627632456584,-0.5204549904384305,-0.24542931938930043,-0.6072063506939044,0.3318060666255933,-0.31961979961832426,-0.31672774597170755,-0.5554585957024025,-0.41475678174524094,undefined,1495894141891
903d185fccf839df,0.17317057837349015,-0.16190594499332017,0.823267384873571,0.618563474839868,-0.5542254075254341,-1.5534848424164895,1.8131374055726646,-0.6882701209027761,-0.3624076362687384,-1.014824887207979,-0.04837199986685421,-0.0066813502588271125,-0.02102133467023172,-0.16698894899823494,-0.634968926760519,0.20726557485250485,-0.4702443823995861,-0.21105410201089345,-0.6457867670729635,0.5452439194950633,-0.27892963163088813,-0.2633298012112712,-0.22142593818822523,-0.41630862268117586,undefined,1495894143356
903d185fccf839df,0.1482223390056066,-0.17834242339670367,0.901742587622972,0.9019546117833707,-0.5656528154567879,-1.5758478669198983,1.8572155817564233,-0.45745868979044935,-0.25309697230783224,-0.5386494813762068,-0.1891726914841867,0.10807597730531687,-0.11676275623885918,-0.20679978536519306,-0.7233901055434004,0.19716257625718753,-0.5475549476754137,-0.23215547018893679,-0.6904474113759246,0.5139080821637448,-0.3148345508504607,-0.28613860208896963,-0.1991157062139469,-0.37750433022861013,undefined,1495894144830
903d185fccf839df,0.38938889443301566,-0.32040019908204115,1.8351532943669473,1.4082623148606375,-0.12213355788569213,-1.6526219214153204,1.8574128146592725,-0.26869061214978557,0.21620431325468578,0.002327080566426006,-0.37812504905374905,0.07052325485978642,-0.8130640040106952,-0.14754643034939147,-0.4981266602697108,0.5022743661776298,-0.33823964330498524,-0.09873301143162304,-0.5600828300267213,0.9930307080381717,-0.1290012329058503,-0.040278958465493106,0.43366718770666857,-0.21207724929833507,undefined,1495894146334
903d185fccf839df,0.5986771094960527,-0.20417108331404474,2.1567112516506786,1.9369796124098824,-0.0696456478168867,-1.6489463816984968,1.7948628732825813,-0.6563900496898323,0.29124217351963033,0.681813158485589,-0.3850011025634259,-0.04964985445692151,-0.9610280191622104,-0.22068730238601686,-0.4665476836234684,0.562892583867306,-0.48266917842043416,-0.16700214348770195,-0.5161638492487726,0.9774782765354078,-0.14894320380715578,-0.19797548062320244,0.5224978172102636,-0.2472709368428536,undefined,1495894147838
903d185fccf839df,0.33394836250438553,-0.2552415342905671,1.7904927916969755,1.7666023975643046,-0.26628760364228804,-1.7199648845875268,1.8517192807327834,-0.5116309718615109,0.3229546817592351,0.16426992704526575,-0.18222139917222277,0.04614385206564207,-0.9262129567736186,-0.3327131987695547,-0.4791792595574978,0.872045607143541,-0.40593367580778733,-0.23194014766223586,-0.48243222396337526,1.4006583585174193,-0.08356478953694996,-0.15835024084263818,0.3903160488656505,-0.35981233385347305,undefined,1495894149335
903d185fccf839df,0.16346845078057012,-0.25524147583458245,2.041231167695736,2.0177404073527865,-0.5539271275706886,-1.7893319576869957,1.9706838139357294,-0.15115306424639977,-0.13268017691863104,0.6542457706480288,-0.08718565779443553,0.09825185152167186,-0.6650999888591801,-0.3623398957036173,-0.4465476454482248,0.6639230220560238,-0.40786438283293036,-0.29215377640710194,-0.4979301593945727,1.4055858633622857,-0.11791577673553943,-0.18799804140960824,0.3398705346968296,-0.3622367782424098,undefined,1495894150832
903d185fccf839df,-0.13729667647011626,-0.24584920663664792,2.1796796408656665,2.0280416592415205,-0.7383805385491048,-1.7850554726183514,1.9014042002579588,-0.607956403671009,-0.20565318691044676,-0.23585846927532214,-0.14094349391857922,0.091721182787345,-0.4779690285204991,-0.46973660247918114,-0.44444237052216357,0.5285423547255612,-0.5320959687750225,-0.3577757399217172,-0.5494616710180523,1.2457961945219145,-0.19627438567662137,-0.1795808637427633,0.04828696419925959,-0.35904246260941264,undefined,1495894152336
903d185fccf839df,-0.2398618330651306,-0.26463371580452466,2.5152738360030016,2.452934548222338,-0.8006090009546214,-1.808767129340263,1.877081118692087,-0.7488598867083007,-0.29595256002699993,-0.017191233111994348,-0.3630302225778532,0.05166546625757642,-0.7651932932263815,-0.40677990872777486,-0.46233713377134594,1.0316736746087602,-0.41982893380464154,-0.4284767229091178,-0.5568852879760301,1.3560182690996292,-0.20745443613956216,-0.4099318550755649,-0.49065277839230764,-0.6177474651771095,undefined,1495894153844
903d185fccf839df,0.08862366366610004,-0.14605659850002736,1.8485516484774982,1.59057183514954,-0.4805901012687361,-1.7022300569970132,1.8592957463447102,-0.5714330094384583,-0.22817659427651368,0.05819886952916666,-0.3392855137390913,-0.005339733332304763,-0.7869527072192514,-0.41788991198381426,-0.6191794678863329,1.066023960279948,-0.4142427045166221,-0.4753531731884829,-0.6228232353539107,1.6078444452550835,-0.19969947893643222,-0.4977039422885657,-0.5491062140811984,-0.4398140908044984,undefined,1495894155371
903d185fccf839df,0.4143371338008992,-0.2734389700043378,1.8236693538964026,1.636450724571794,-0.07111650049486709,-1.6661315073386087,1.9267134549801321,0.05549506779595089,-0.4964401269210393,-0.2054318192014285,-0.15582337595610904,-0.02656149947589876,-0.7913045900178254,-0.39752156836415053,-0.641284736814235,1.1124980025479572,-0.3628812696249812,-0.48375065745147455,-0.6754182622734646,1.7806150082107841,-0.18110353746286859,-0.47901394402131253,-0.47690263388089743,-0.4013371764854328,undefined,1495894156834
903d185fccf839df,0.6333275109622659,-0.19712693256458041,1.329210339620259,1.361189019796274,-0.028965714595369865,-1.627526696028094,1.9043574852604603,-0.049302071758775816,-0.5465952033233672,-0.45505307600808753,0.14452361797169647,-0.10580182934288926,-0.8565828319964349,-0.43548078069101726,-0.614968932758678,1.453980610023319,-0.3793557146462242,-0.4925661151223808,-0.6454929020009899,2.0294846832713453,-0.11204924948966377,-0.4337061511477495,-0.5288999395141323,-0.5358942559387471,undefined,1495894158335
903d185fccf839df,0.4184952427063659,-0.16014495845494067,1.1741735853506152,1.151074512640133,-0.15780435530312392,-1.6375284494189422,1.8484320261413452,-0.4759635535739315,-0.4706305957551798,-0.6364114605003475,0.2319033710296962,-0.1517459501987726,-0.6302849264705882,-0.40215073207057545,-0.6149689033097429,1.5449079930872764,-0.35288916372143814,-0.48071084453615637,-0.6354734691681435,2.0911862544303994,-0.09270580064763867,-0.42806397965389936,-0.5511472945332317,-0.4396997605859302,undefined,1495894159874
903d185fccf839df,0.8550897076876057,-0.3726446215988216,0.32944676261437905,0.16308895887050148,0.13616085878241302,-1.8586571035935178,1.8852072365352763,-0.5286266320325654,-0.6469432255295601,-1.0936595196735202,0.20159675103236008,-0.20631327535825342,0.21833221925133692,-0.47529161058258806,-0.6307584210817992,1.9409471095422333,-0.1759569838158293,-0.5462758096696722,-0.6394126735082009,1.8539270079633032,-0.17188628885789772,-0.3798790354140033,-0.31197027467402905,-0.24125794476484866,undefined,1495894161328
903d185fccf839df,0.3810726076112627,-0.6227132300084752,-0.013165424381283108,-0.2082627746997063,-0.020531449609540953,-1.9328293975967326,1.9566853585760022,-0.24901361892700402,-0.5060114493046065,-1.1008877412560412,0.15154515963819262,-0.16265796050459172,0.30536987522281644,-0.5688008327142645,-0.5928636491063084,1.993483030108653,-0.13361567128320803,-0.6288383974604077,-0.6243485390667747,1.7636459226886696,-0.21259146338568669,-0.3827360755735527,-0.4196583563069002,-0.15114518458755377,undefined,1495894163988
903d185fccf839df,0.5141302292940723,-0.45952289977677163,-0.011251773152124906,-0.16114887662604285,0.05798956242634788,-1.8152400839184697,1.7977503993188275,-0.6417510039901183,-0.39967207633148605,-1.7531337286481954,-0.35232605834823466,-0.2130270218934616,0.07907196969696971,-0.5475066576483932,-0.5970741695094957,2.0480392564410326,-0.12628592946437858,-0.6053115122580999,-0.618310291653343,1.873513831419105,-0.18003243914581665,-0.35963986959598765,-0.4140179810307543,-0.12580673050125868,undefined,1495894164336
903d185fccf839df,0.7012422315856572,0.8929610588385373,0.07743211085561409,-0.23814455273326954,0.17994707527426726,-1.4229333114366531,1.613582448592404,-0.6865400107926082,-0.5706146386574124,-1.0308320473450403,-0.7077371405630954,-0.14087728272173483,-0.0601882798573975,-0.542877487466581,-0.49917926828380627,1.947009044370087,-0.10182838555252918,-0.5635077520845286,-0.5455154708091456,1.7552075802517368,-0.16016732399440364,-0.3963515716971566,-0.4408828729698385,-0.08420462963953047,undefined,1495894165834
903d185fccf839df,0.8800380160663088,0.13336283288567644,0.20822445428721506,-0.0956047616660151,0.5586355905234874,-1.171557156895851,1.5306751776531935,-0.6686577870433588,-0.5877393192379861,-0.6949815213083455,-0.5459825384858047,0.03567586043564821,-0.4823209113190731,-0.5104733156200577,-0.367600159659216,2.0298539041930157,-0.043649978121235444,-0.5668832106216453,-0.44894548803127454,2.1903060488585933,-0.06443927086784774,-0.3243008483513703,0.012183475592968078,0.7460399967618738,undefined,1495894167391
903d185fccf839df,0.5723425807866754,-0.214150396738093,0.23948711112053458,0.23707603728497015,1.3785496461724716,-1.2307524425135028,1.6523878688315525,-0.20835115662791664,-0.5989906722429963,0.31683958143314384,-0.12943690691026982,0.06762099295377445,-0.2647267713903743,-0.5956500158835427,-0.29391590535876305,1.6459384312759944,-0.12536507417921613,-0.652681931773345,-0.43103365384470455,2.103412625499675,-0.10531106142383866,-0.35955771527873753,-0.09730731729447978,0.9069064196066028,undefined,1495894168839
903d185fccf839df,1.0241836061132055,0.1744539119821659,0.5253162088217794,0.29865337795073654,1.4165758612478991,-1.5797889373198712,1.7992309770975778,0.028635907575346092,0.3649546314314258,-0.1413160896499954,-0.2721806388858175,0.09050495399759119,-0.5084322081105169,-0.4928824728144038,-0.3507580338730642,1.8055665552706566,-0.09778646714408862,-0.5853627415567816,-0.41863530500793494,2.4132601426966565,0.0031334829759006445,-0.37058646041302745,-0.2998481581163139,0.5820322064763487,undefined,1495894170339
903d185fccf839df,1.5966076503628668,-0.11670584859395801,0.38878164101795676,0.1664068870506259,0.6797599492059819,-1.66793200657255,1.819504157663108,-0.27991865054840237,0.4046036305353872,-0.289257841420184,-0.20055404118833242,0.017210779423208294,-0.7782489416221035,-0.43270321512313464,-0.31707378230076055,1.961153219791754,-0.13264427544766957,-0.5148074142143213,-0.4484906964559469,2.1457891463177954,-0.018837799911375297,-0.39975863214467106,-0.491503256596959,0.6684411679679781,undefined,1495894171827
903d185fccf839df,-0.2745121310151147,0.11046924795894231,-0.6460726576904076,-0.7050512203942093,-0.8621071795365801,-1.6129619623575562,1.8129112351421388,-0.945187882470352,-0.8419407044178894,-0.8592930031741325,0.008843636937603112,-0.07955230388600627,-0.32565313057041,-0.48362413892616674,-0.49496874788061895,2.2218116971809696,0.01039551002432013,-0.6248296432544355,-0.6148888536059406,1.5014565923170706,-0.2582129753719327,-0.22404155495180136,-0.0796709565082658,0.9805022702734082,undefined,1495894173331
903d185fccf839df,-1.0035559022483194,-0.9719874607846203,-0.870652971621967,-0.930130833940514,-1.5095712354557715,-1.31880700121138,1.7477051980285345,-1.0776007347289187,-0.5960753257701259,-0.6540470489401555,0.06431120392053806,-0.0027496822768679624,-0.4605614973262032,-0.7076758960786124,-0.7591796209984145,0.22545112495357233,-0.051094178752662596,-0.7938052462054578,-0.8399272810434082,0.1314568992916318,-0.6704754984982982,-0.27958049203633145,-0.46166893261791775,0.003650473696695441,undefined,1495894174846
903d185fccf839df,-1.172649679904985,-1.0412553474749133,-0.8948971283230606,-0.9513566097486676,-1.7808976378595924,-1.2248711120754214,1.7413831494544079,-1.0034308000869416,-0.3038566650374797,-0.6647774428681207,0.08723097937459677,-0.08656953146004416,-0.3778757241532977,-0.7761876044088128,-0.9128640095942576,-0.9121510759787422,-0.7499424793787676,-0.8340447697004264,-0.9587261308387094,-0.7127628737011074,-0.9126121725504895,-0.24657172684171513,-0.33114272012963064,-0.4019485970570304,undefined,1495894176344
903d185fccf839df,-1.1172090962182404,-0.8950883791187492,-0.8904309255738937,-0.9607053933110343,-1.657530987608208,-1.2870734479882446,1.7637207199775309,-0.987794058374738,-0.3672086044884796,-0.667581338632941,0.07735289137505189,-0.000692437865645468,-0.5301916221033868,-0.9159885315963047,-1.0065483388811232,-1.0697584914351632,-0.9679029590859921,-0.9476957764919692,-0.9878608513597785,-1.045122918961761,-1.0381690584201753,-0.27788473627954874,-0.5892503894467644,-0.42768429703004174,undefined,1495894177830
903d185fccf839df,-1.0520664021912804,-0.6268224080653058,-0.8661867688728002,-0.9048159831259216,-1.693037214375155,-1.4110984481599094,1.7982527012080805,-1.0319207097312968,-0.31576741889792076,-0.6873655446758702,0.054656784692507385,-0.04608214091007504,-0.4866727941176471,-0.9761677407221692,-1.1623379987219105,-1.1000676073461817,-1.2130810946933828,-1.0419933087231288,-1.101712957981772,-1.0882539643875633,-1.1387135805928568,-0.3839947124490161,-0.6181060428658854,-0.4676417683753601,undefined,1495894179395
903d185fccf839df,-0.3756911966747414,-0.4906347531331898,-0.7960058337417306,-0.8063187491462988,-1.3258789703253133,-1.6114409723262748,1.8358825930138483,-1.0512098516980475,-0.5416936154651038,-0.778715116421939,0.0372262943553426,0.14739157159560098,-0.4083389037433155,-0.9039526904186704,-1.000232536189641,-1.0071196500014101,-0.9547533339872172,-0.9746107881783884,-0.9480839830734851,-0.670463343750525,-0.9743233441824664,-0.21934240783145012,-0.4220489478257908,0.14214539231578818,undefined,1495894180852
903d185fccf839df,0.2701915265012977,-0.5287907864670647,-0.5841862443146189,-0.6769500198663755,-0.7444285210097975,-1.6941266342378392,1.8161695663474444,-1.0975330203839575,-0.44087012635110556,-1.138850345414426,0.036168145982318226,0.16022286531814098,0.22703598484848486,-0.874326019386157,-0.8423376198283767,0.40124402691543726,-0.447090274623252,-0.9353782015100586,-0.8422222343319644,-0.2061386210690452,-0.8300472053715925,-0.20946623813952184,-0.403162482365208,0.36672011549916345,undefined,1495894182342
903d185fccf839df,0.3103858603914399,-0.5088322180749528,-0.2332795355636758,-0.37762288750555145,-0.058434239909441556,-1.719801836942566,1.8647079017758077,-0.6430425158226917,-0.21603417985536985,-0.9523876173956594,0.06029221152122808,0.09945762000176872,-0.2560230057932264,-0.8752518184554281,-0.6844426666559438,0.8619426368129451,-0.3100811912612175,-0.8944990502552035,-0.7345832967594241,0.2667322372465713,-0.6750554043667094,-0.25941696518082624,-0.45519128757121696,0.3904815560833154,undefined,1495894183832
903d185fccf839df,0.3450362618576532,-0.5945365247126447,-0.08398475152930422,-0.09312525367645455,0.1327460118948212,-1.6652673600087387,1.842123126584537,-0.6956510012951157,-0.2516618596489917,-0.6360452330181381,0.07065215396378152,-0.08314991787428822,-0.43880208333333337,-0.9030268654478502,-0.7012847924420955,1.38325947853249,-0.22104428921681124,-0.9020289204647957,-0.7405515756664801,0.7570495367029708,-0.5755023750684753,-0.2976135781618586,-0.4684867338089525,0.2544594825539739,undefined,1495894185383
903d185fccf839df,-0.13868272427374176,-0.4436734948274942,-0.28495828422892416,-0.28530243127394156,-0.2535641962876718,-1.797172176793735,1.922823984561335,-0.5147299471553611,-0.10264235838385016,-0.5030335633996329,0.11990186586094742,-0.16980889163596322,-0.26037488859180036,-0.8845101782452142,-0.7265480032080246,1.1044156206305362,-0.3086564802092056,-0.8441648143280787,-0.6672879699861083,1.1727459718152584,-0.4478833340610078,-0.30039700541522474,-0.4675661478643843,0.2585723072793445,undefined,1495894186847
903d185fccf839df,-0.2911443250991134,-0.5105932630693171,-0.2587999680247736,-0.33860257783548564,-0.5136791910521175,-1.846337757724079,1.8962681977597848,-0.8335409636968627,-0.24476130588690836,-0.6298248331339216,0.07087123869726565,-0.09113951824254293,-0.4779690285204991,-0.8335893127206676,-0.5812846296507379,1.8055664987412134,-0.05122019171254044,-0.7938939075553579,-0.563042483657892,2.2875472205839396,-0.14663762648818982,-0.3006892626601032,-0.2344328405035963,0.6381262713882907,undefined,1495894188335
903d185fccf839df,-0.29807446060101167,-0.6467808887734406,-0.3800222763519376,-0.4348604487475471,-0.5662905378555644,-1.8764594785120288,1.9118682044763937,-0.7507857480088737,-0.3252860771532569,-1.0334620744428826,0.005617274529973618,0.06682629882840348,-0.517135973707665,-0.8141468134979859,-0.6012847119993843,2.0500601275014225,-0.04563735345577268,-0.8096312725327736,-0.6083258432357868,2.083702600842983,-0.20085535340796562,-0.3840481587313766,-0.18887391101435036,0.5034368636443917,undefined,1495894189840
903d185fccf839df,-0.3964814047743301,-0.6162560211871514,-0.5280407846263049,-0.649814556301824,-0.524088320576121,-1.7502310180955394,1.8907981950326616,-0.7715881401017776,-0.3909662688087105,-0.9433310325989718,0.003369135927366989,0.12824271793477302,0.07036820409982177,-0.8085917989191918,-0.7381269490412572,1.79546338708701,-0.0884004207722187,-0.8455960597154392,-0.7291047926929783,1.5194727669465433,-0.3766906626418572,-0.3266653624078603,-0.030063748190346688,0.6916081068806995,undefined,1495894191380
903d185fccf839df,-0.5905234735569939,-0.7641839760816951,-0.8202499904428242,-0.8827745088608553,-0.7444182362590054,-1.6843228668722798,1.8698649395591256,-0.9058173660231841,-0.4308339566928071,-0.9548312213680068,0.008150991565324003,0.13077743669457376,-0.36917195855614976,-0.7937784439767731,-0.8212849662768039,1.2842496711540294,-0.08555679789992611,-0.8989891077764808,-0.7924679128607897,1.0271382723348261,-0.5326307432598726,-0.26852003382656153,0.143944412190986,1.0333493235434659,undefined,1495894192832
903d185fccf839df,-1.0645405736333369,-1.0248189275275146,-0.9746488609694153,-1.0467102439155314,-0.9200670823903614,-1.5841492752622077,1.8530368182913204,-0.9820369798035403,-0.348837410929649,-0.6789795843362303,0.08641756365369507,0.016678069170782357,-0.9175091911764707,-0.9400602074761857,-0.8707586804044105,-0.11199037635724361,-0.23585344454662577,-0.9916400735220386,-0.8926412533257884,0.45798093242229876,-0.7179711980692449,-0.27203695774236564,0.05941679308213465,0.966878258810159,undefined,1495894194332
903d185fccf839df,-1.1989840015819038,-1.063561917403526,-0.9969788581674517,-1.0636579213528297,-1.0091412171350802,-1.5618374912970914,1.8520374992602655,-0.9774856177613731,-0.29182967217799793,-0.6867000757034918,0.08998386304365569,-0.09232460471444645,-0.8217677696078431,-1.107636142803776,-1.1244432046597181,-0.9646868799531858,-1.121339624926905,-1.1050124312900762,-1.064972706056385,-0.826957744646125,-1.1022136984791424,-0.3689275198913756,-0.4649722028472192,-0.2385965545904119,undefined,1495894197389
903d185fccf839df,-1.203142041476551,-1.0471254974561273,-0.9976172501844033,-1.0644702117220604,-0.8161918309416338,-1.5828146192410024,1.8539651425803136,-0.9608349618574935,-0.314085549469138,-0.6812418770651609,0.08470457025159658,-0.15152746277037724,-0.7086188168449198,-1.1372628292153342,-1.2223380690742387,-1.0859233577296206,-1.2766961158766799,-1.1712233579410458,-1.1792096358146182,-1.1222537322560595,-1.2343627470054026,-0.44259617786128996,-0.6528629967097318,-0.48239566269813117,undefined,1495894198840
903d185fccf839df,-0.9536593717544377,-0.9209170974920748,-0.9070194608105567,-1.0015866527519692,-0.44362331679526257,-1.6060860488596358,1.891829081132976,-0.5524011725546447,-0.2834057239099951,-1.0388333269679086,-0.014763570145819424,-0.17530378376152916,-0.7042669340463459,-1.0946744669422406,-1.0454957464790862,-0.9727693289993204,-1.0784903113036834,-1.0245840476945316,-0.9927376278679456,-0.09288305454236147,-0.8813190598193736,-0.09591088665701737,-0.022188970967442215,0.5884305719178841,undefined,1495894200351
903d185fccf839df,-0.734668994593071,-0.31805210986156324,-0.3812985521119419,-0.5417193701736402,-0.4132187939089138,-1.7654875354808062,1.929819253394459,-0.45030425601311125,-0.14268687451293346,-1.0985818755661068,-0.028935071374971668,-0.03349709790233086,-0.6955631684491979,-0.8817326758123576,-0.8697060447819384,-0.5140913640444305,-0.5821564316505364,-0.9526228088876465,-0.9398417375729785,0.06769193423495654,-0.7999698400735704,-0.10320741018178609,-0.03950492677841711,0.5440373577763429,undefined,1495894201841
903d185fccf839df,-0.25788007495275483,-0.4665671162892187,0.08572587020004675,-0.05868495076431565,-0.7285474022697475,-1.926687193739827,1.9314891812126789,-0.645384107637681,0.1118037485846569,-1.0351549808501024,0.0060931970190622785,-0.03689030454002866,-0.8174158868092692,-0.6863817469142902,-0.6170741561491027,-0.34436029091771353,-0.336775054140783,-0.8475656079231477,-0.8152845085234869,0.2445892757372932,-0.6643497894468446,-0.08474095660399064,-0.1184038940275021,0.5170745074970912,undefined,1495894203371
903d185fccf839df,-0.33826891526008795,-0.7354202119457548,-0.0189073946165554,-0.10791489328475803,-0.8930465549559623,-2.003368077945317,1.938970988303339,-0.7503052429889753,0.007225685926295894,-0.9370249196269281,0.10173513559944113,-0.013584578463025793,-0.852230949197861,-0.479920774289013,-0.5244424827308523,-0.15240256152538328,-0.02054043658878555,-0.6688626032289647,-0.699522271895986,0.400159771683141,-0.5039758966885304,0.07637746491328302,-0.19664724400148065,0.47582694345915527,undefined,1495894205955
903d185fccf839df,-0.47409828749605115,-0.818776443976965,-0.050170305586824344,-0.09325433679064636,-1.1365090006916887,-2.0529925194333134,1.9980627328877274,-0.5040524141142151,-0.21992871465407615,-0.6555693058524159,0.18118508235539807,-0.03673191057330946,-0.847879066399287,-0.48269829452918467,-0.5349688095066386,-0.14027891092126765,-0.062236676018698436,-0.6499271012847527,-0.6863892577153023,0.42992496687889825,-0.48514568777288103,0.05192751395629947,-0.23298180139076505,0.4390112326545006,undefined,1495894206344
903d185fccf839df,-0.03611767119495661,-0.7236799192903252,-0.16182232467260196,-0.19605630846931457,-0.943724179761324,-2.0161812229049536,1.9298771195458773,-0.8769675489607959,-0.04796139927368261,-0.5854448980387511,0.1387238898503834,-0.03153664853287083,-0.8783422459893049,-0.5419516560203735,-0.5718109292946314,0.29213126333874156,-0.3492325004161665,-0.5972750076339659,-0.6095572771114864,0.7051875795883641,-0.38010386229131893,-0.059423719774710976,-0.420826333694623,0.18672749187441684,undefined,1495894207837
903d185fccf839df,-0.14561285977563998,-0.6538250833648934,-0.25178223030339586,-0.3039816951216597,-0.6306789907856348,-1.9537343193736016,1.9567116623720084,-0.5996607152824592,-0.17541314739789474,-0.6452746365703289,0.10656185260167181,-0.06432452115287945,-0.9349167223707665,-0.6428675426724847,-0.6549689796602302,-0.16654678641031298,-0.6700805075017797,-0.6684066303208126,-0.6942186887131634,0.220921865570994,-0.543994874257088,-0.05071878515719264,-0.418332812089299,0.0036043111794691403,undefined,1495894209360
903d185fccf839df,-0.4352898461351906,-0.7489215569025467,-0.49805414941604026,-0.6400143480797631,-0.6591292281018586,-1.8879635909850203,1.9161390105389635,-0.8415456207107399,-0.2725966383152667,-0.6168213543126182,0.03732097556576015,-0.05816253177285701,-0.9697317847593583,-0.774335957704866,-0.8012849170582096,-0.4211433572363963,-0.7939431793969306,-0.7683404808026079,-0.8216236180461001,-0.42219420444100764,-0.7698202277545252,-0.1294217004328382,-0.46808849404717673,-0.12858524896906462,undefined,1495894210840
903d185fccf839df,-0.6958606222430299,-0.7107656112526488,-0.6122587200218265,-0.6752557364464208,-0.9310110626949419,-1.7844358961543032,1.8894491053320503,-0.9731781012081462,-0.475814978652546,-0.6201672414821021,0.04372186005459253,0.0036082647735154946,-0.9871393159536542,-0.8002593061902431,-0.7623375149819219,-0.22110321766192353,-0.8050417119379524,-0.7790558208403552,-0.7550769506177096,-0.3252763892059496,-0.7325820673405804,-0.15454013534364044,-0.46842232447148063,-0.16315191542759808,undefined,1495894212336
903d185fccf839df,-0.5281528751372849,-0.7060694912676777,-0.5414388845999065,-0.6551806731635542,-0.9694795717713749,-1.692982977357385,1.8852861259253377,-0.8716664884213784,-0.3534293284276957,-0.7326359955280907,0.0804008706814906,0.020581378639314512,-0.9218610739750446,-0.8465509918198966,-0.7749690909159512,0.42145005237079347,-0.6977175752336914,-0.9232316155312841,-0.8024663529426398,0.30502817778917846,-0.6960569435472282,-0.41796441736879375,-0.5518916435258536,-0.058538555922350036,undefined,1495894213849
903d185fccf839df,-0.31747861227062246,-0.6285833946036853,-0.10631474872734067,-0.1637148930060513,-0.987818970161113,-1.7119243520451481,1.881930499848291,-0.8881414569684384,-0.30446715495692295,-0.5078908626742769,0.09554784514061536,-0.04067196957658445,-0.9175091911764707,-0.8150726352311125,-0.7623375076196881,0.3689143296574243,-0.5775343480562802,-0.9028015385193244,-0.7683988805944696,0.36636018246115015,-0.6632629802500122,-0.4008439225852215,-0.5425580169062734,-0.05210090064871061,undefined,1495894215348
903d185fccf839df,-0.4851863938817772,-0.39847332535815116,-0.11716131372873137,-0.1881428053685045,-0.9042991106408607,-1.8454433315243102,1.9266608819563387,-0.7155693947034701,-0.23762990352068647,-0.6142365603162221,0.0888622345489861,0.06494262134120564,-0.9218610739750446,-0.8197018021752311,-0.7749691203648864,1.0134881245076928,-0.38044392929352233,-0.8997933903943698,-0.7902919017480707,0.541132538478437,-0.6381520532990006,-0.38482217895442883,-0.5162646019003937,0.03452604034650324,undefined,1495894216890
903d185fccf839df,-0.25649399264371964,-0.748921586130539,-0.3436552788894491,-0.37890667520396615,-0.77246733058852,-1.9984510549725563,1.9314997255670563,-0.8419426860185263,-0.39261275217228275,-0.5146817884785961,0.10187654522927794,0.012443470517462652,-0.5954698640819964,-0.832663490987541,-0.7697059404119672,0.8599219070761627,-0.45513578791551423,-0.9133142251400649,-0.7526840435550816,0.6137054117456245,-0.6130893997205448,-0.39799996466775084,-0.5121855143998798,-0.05834422764815412,undefined,1495894218336
903d185fccf839df,-0.3909373515814671,-0.978444669605944,-0.600774271277383,-0.6187816033289452,-0.8827711464692757,-2.0878076586061387,1.9288094319098983,-0.9616791371072942,-0.3327462752644072,-0.7624364323577049,0.0811027436834774,0.06923490670561595,-0.5650066844919787,-0.876177682278572,-0.806548089648895,0.7225205948030822,-0.4312630026706636,-0.9403432291704239,-0.7888365651468926,0.6617177641759652,-0.6322815019672821,-0.3807566844702101,-0.48849910369117,-0.010181880428832382,undefined,1495894219843
903d185fccf839df,-0.08740016322893944,-1.025992928295765,-0.7353946795781486,-0.8113731796730509,-0.9149756647789505,-2.1492995736980127,1.9348027618599608,-0.9635028235200882,-0.2577592888740903,-0.746436014397747,0.0824247706171704,0.09340819630495026,-0.7782489416221035,-0.9428377147655829,-0.8549691920812893,0.021369744957126426,-0.6291226865886804,-0.9840152088583054,-0.8728332795501246,0.2523808903177975,-0.7619169942765817,-0.3653613071689246,-0.44835246551770974,0.012125471321184349,undefined,1495894221334
903d185fccf839df,-0.6917025823483827,-1.046538478804507,-0.7066843201278884,-0.7587385457602359,-1.4070434093868402,-2.1678333303352684,1.9563592749930108,-0.9076747302877046,-0.2593605470190102,-0.7042728140627037,0.08883838265647813,-0.035714802824032825,-0.7869527072192514,-1.0419019450006661,-0.9402324621561958,-0.4009372893839578,-0.8696431643442022,-1.0499031556419514,-0.9823263729531287,-0.24546624882721302,-0.9311815531717474,-0.40811527054235414,-0.4195896155943634,-0.26127045477429556,undefined,1495894222846
903d185fccf839df,-0.8039697802727926,-0.9760966059599595,-0.5873761713037814,-0.6287992111882644,-1.4567336141462985,-2.0946649387815155,1.9569115274352458,-0.835745653644279,-0.3102442557821428,-0.693836949807804,0.07753681641950297,0.05992006186988196,-0.7042669340463459,-1.0465311087070912,-0.9349692785221597,-0.25343288665521496,-0.8160837736223651,-1.0579903250778642,-0.9588170887255806,0.5663090009295068,-0.7352437260329476,-0.39992274803777256,-0.045709443956592495,0.300793072256356,undefined,1495894224399
903d185fccf839df,-0.8746565447453204,-0.5029620754007371,-0.17841035163536612,-0.2202873235570554,-1.4935152640031453,-1.9715134023892027,1.9676910975941002,-0.6571478948859788,-0.2450588771753751,-0.6614929226920788,0.01904894736093177,0.04339731981344019,-0.6389886920677362,-0.9567252220733258,-0.921285057762866,1.3711357219356686,-0.34596773986290796,-0.9891322287116581,-0.9481049715670067,0.9477592910402737,-0.6217432354571764,-0.39372449527036335,-0.03447586579171156,0.30217372804182296,undefined,1495894225844
903d185fccf839df,-0.5087486026987401,-0.4736112305036926,-0.00040520815073420496,0.04261822414704681,-1.2376482628097676,-1.8339066088125247,1.9264504840614638,-0.7775804695858178,-0.29567119297988725,-0.6386174445751365,0.002064424330735121,-0.021301652139718148,-0.499728442513369,-0.8095176336030928,-0.8570744633262336,2.312739066112566,0.01810471170244646,-0.9411918451180941,-0.9107280084326839,1.3722790330104546,-0.48456443150433764,-0.393918192421078,-0.11555370015843583,0.26483440251308893,undefined,1495894227351
903d185fccf839df,-0.6043836065391514,-0.7530307495733735,-0.50060619266215,-0.5587415929749606,-1.176335221617158,-1.757193114608345,1.9098353669227568,-0.8292464994033764,-0.3046616275824162,-0.5936046339683765,0.007367061658585123,0.026876369147665145,-0.6476924576648841,-0.8048884666589743,-0.8760218456328621,2.3167802712036374,0.11420853982425624,-0.9457515644606198,-0.9362873586508245,1.3659502702761666,-0.4968105635445644,-0.3869446817288129,-0.10504187804163301,0.35253574211673117,undefined,1495894228890
903d185fccf839df,-0.8718845181488889,-0.9919460291767321,-0.810041817458385,-0.8515367934189328,-1.1319010134197576,-1.7254432548818173,1.8794374461647547,-1.0296651881301713,-0.30955854319748566,-0.6057897643534708,0.07649844610044397,0.012442283814822014,-0.5911179812834225,-0.8095176336030928,-0.8760218456328621,2.254141422703704,0.08373080720847777,-0.9424584336819358,-0.9385963062095426,1.39511492616683,-0.4924868328172934,-0.38743242156428026,-0.12231895651230476,0.35007701238290273,undefined,1495894230339
903d185fccf839df,-0.9176229569900087,-1.0318631075049711,-0.9012774905752844,-0.9515577914475671,-1.3501120772291646,-1.688215024038303,1.8845629357342049,-1.0080599482343842,-0.2906972903104244,-0.6537858850400101,0.08896477220256718,0.04913638074545308,-0.517135973707665,-0.9826485835094774,-1.0065483315188894,0.6477581592946565,-0.5441261012132669,-1.0260406243970583,-1.0402319812243697,0.24492804257370931,-0.8202155961330779,-0.42380985578897057,-0.48735253495496483,-0.24006043580856473,undefined,1495894231827
903d185fccf839df,-0.9134649343480663,-1.034798182495578,-0.8821369120925117,-0.9379304316795792,-1.52182150152082,-1.6945715195685762,1.8853597688024941,-1.027894979249241,-0.28220093847917516,-0.6750989053985866,0.09109049491826952,0.03645209192051367,-0.8174158868092692,-1.0817127943183988,-1.091811597912679,-0.6252247796299245,-0.993674091996639,-1.0952596985805592,-1.0923232389046935,-0.3231206106533031,-0.9900324354575306,-0.4337136180121543,-0.5610347669676917,-0.28338217260653786,undefined,1495894233343
903d185fccf839df,-0.8649543998996955,-0.9995772826082948,-0.8636347256266904,-0.9282524393870845,-1.5058169575771316,-1.666189739001766,1.8710825464192073,-1.0633311966147874,-0.2988376847511974,-0.673522581842071,0.08097482993123399,-0.03093010639038038,-0.865286597593583,-1.1104136500931732,-1.1970748840761278,-0.7707085374160494,-1.1829893176086512,-1.1359108637744415,-1.1669792100840994,-0.6545875476397,-1.1132209604846304,-0.46954049349837734,-0.6015194240173176,-0.4711861816683383,undefined,1495894234834
903d185fccf839df,-0.7610032990172849,-0.9373535174394737,-0.7041322768817786,-0.74714996828807,-1.437273073344994,-1.6759702140122945,1.913159437453283,-0.7461698671632356,-0.3085213944890918,-0.614743167235687,0.017879437271130904,-0.06317727118626269,-0.7477857620320856,-1.0835644636862012,-1.1560221960304282,-0.7302963805126312,-1.0394623366917646,-1.0949177190793868,-1.0622299542842046,-0.6441320024681689,-1.0562049020946656,-0.39029661533548404,-0.6123422966994934,-0.37420612320879404,undefined,1495894236344
903d185fccf839df,-0.590523577073223,-0.6943291328492653,-0.3915062168224822,-0.3347073224664705,-0.9477767548732099,-1.680020759943461,1.9294037538748987,-0.49098566427650037,-0.31809571611496196,-0.5817184684445446,0.06560747546974684,-0.02130077951931916,-0.8304715352049912,-0.9641319027822286,-0.947600891267358,-0.14836130697104935,-0.5156354579688986,-0.9952055218699135,-0.9630011812322246,-0.26168081163983115,-0.9014533330001879,-0.3740528425010807,-0.53035730687734,-0.2868426680500059,undefined,1495894237836
903d185fccf839df,-0.3756912743119133,-0.5293778014651861,0.6867330712066977,0.7027542087868884,-0.9599447333034143,-1.7418527443258283,1.9349342342252724,-0.49591140526899113,-0.24426073778626362,-0.49983532462694513,0.05779659257729464,-0.006744208297011338,-0.9262129567736186,-0.7752617729626053,-0.8254954829988743,0.5265217804447472,-0.32679346654143365,-0.8943787254382028,-0.9046337854005824,0.041945734983468964,-0.7698099094367653,-0.3906129295182519,-0.5069260029195013,-0.30761222132595983,undefined,1495894239335
903d185fccf839df,-0.09433029873083768,-0.47361125973168494,0.49724322484067296,0.321796942112903,-0.5700962460998863,-1.783974705324986,1.9158286989678628,-0.5630316182681967,-0.3487005398813336,-0.6571882026686834,0.07604914491852582,-0.05748356579673274,-0.847879066399287,-0.753967607609815,-0.7612848480699561,0.9730760170675372,-0.4844688166836105,-0.8529866058506755,-0.8301037560584411,0.4722860871918389,-0.6358597767390547,-0.422689833436289,-0.5731845435514914,-0.3777282456665859,undefined,1495894240905
903d185fccf839df,-0.4560801491246561,-0.4084525949402109,0.49660559523456965,0.4184889790169206,-0.8477894909234654,-1.7581341256368677,1.851453677653727,-1.0339625873029392,-0.40805104454824614,-0.5581411018476623,-0.0033189497059895987,-0.06285245676709215,-0.8565828319964349,-0.6808267290978023,-0.736021674115196,0.9124577711131394,-0.6927573233640463,-0.8098465941127048,-0.7785232652907301,0.701106985487059,-0.5507146392887685,-0.4537571836797115,-0.6783595432102344,-0.4835052190088794,undefined,1495894242338
903d185fccf839df,-0.16501697693984105,-0.4289981198744595,0.4123879139759975,0.3270356624013128,-0.7640433425394477,-1.709248055220242,1.885475472822242,-0.7084940685124,-0.36457053473948997,-0.5326711355408805,-0.02912559784370397,-0.030306383479707454,-1.0001949643493762,-0.7234150857049321,-0.7991796347699146,0.7205000911840719,-0.6735529224003179,-0.7668839047146508,-0.7968619072163241,0.9074307550929526,-0.5084655810171208,-0.48083669440650784,-0.6756008581480223,-0.4650246052293653,undefined,1495894243861
903d185fccf839df,-0.33549678514742726,-0.4213668664428968,0.47044702489346973,0.43701254962715025,-0.9660132920354543,-1.6273659799921323,1.8595166540257435,-0.8050012196522185,-0.24649210417618034,-0.5683986009953861,-0.047099496773078474,0.05157995111958048,-1.017602495543672,-0.659532554031931,-0.8044427999983662,1.0599621950404234,-0.6024796700209192,-0.7203051047038096,-0.820098316021545,1.1805221839789346,-0.4361670043423905,-0.4853622800837039,-0.6229559690078159,-0.29166856311837946,undefined,1495894245333
903d185fccf839df,-0.09571634653446316,-0.1912568118113589,0.2949939246549476,0.2695692488906974,-0.7940158675545468,-1.4810408432288558,1.794899689745431,-0.8150093545692857,-0.15634156943707717,-0.5590981247290491,-0.14606515315719343,0.016236400842658344,-0.7564895276292335,-0.6965659090110412,-0.7939164989903981,0.9367051147184531,-0.650461251541949,-0.7702783626143197,-0.7875771402045227,1.0205785311687434,-0.4809779527787668,-0.47772608589467147,-0.5943617753241522,-0.2968331687290191,undefined,1495894246837
903d185fccf839df,-0.27174013892409293,-0.20123606677942246,0.5119176005742789,0.48093320003018136,-0.8431197835597641,-1.3817756557119807,1.78942707240391,-0.6285890216250503,-0.1280871020886748,-0.6883132376086208,-0.04441123103060659,0.02583903181348588,-0.8826941287878788,-0.6687908943955554,-0.7981270488425205,0.7629327870374022,-0.6335643827268905,-0.7175692715901064,-0.7865905891980345,0.9261860640158962,-0.4812410139245118,-0.4820310626015311,-0.6139547221785083,-0.2990480425290838,undefined,1495894248342
903d185fccf839df,-0.1899652508131343,-0.28224425343214327,0.5629587196334239,0.62013038609709,-0.8637528872697473,-1.3785217085359585,1.7955992237518914,-0.6026584554002847,-0.15105188586633694,-0.6667313935914486,-0.03976699808607553,0.028108727185039963,-0.7564895276292335,-0.5725041844006437,-0.7897059859494446,0.5123773930376686,-0.7600886536285653,-0.6677733349841568,-0.7825394364406029,0.6638119552202627,-0.5136478237189568,-0.5056860360541235,-0.5865279515780426,-0.3369601750858364,undefined,1495894249843
903d185fccf839df,-0.3451989817511667,-0.49180872467344794,0.625484033300063,0.6734250887617624,-1.0413765896491187,-1.508686583375597,1.8749036608033416,-0.45693153714537904,-0.24945385146406826,-0.5640185290160047,-0.07784039094366954,0.03878915899810742,-0.6302849264705882,-0.5475066641237805,-0.7560217049282059,0.9407463198095243,-0.667923334861745,-0.6413966241857894,-0.7457572022980853,1.0612612290592742,-0.40428179135538356,-0.5085566773930553,-0.6200740024231904,-0.3324952259646192,undefined,1495894251337
903d185fccf839df,-0.2856002719062504,-0.427824031422232,0.11635089742726296,0.04008154823062214,-0.943086473294697,-1.6893819734450315,1.9042391409620305,-0.6586504642601682,-0.348867342566658,-0.4670180299796583,-0.08539464447150685,0.03484806284625029,-0.8261196524064172,-0.5400999737017966,-0.7728638233521239,0.6416963516580497,-0.7527718114608694,-0.6752145437607991,-0.7806433008031305,0.9536722890163568,-0.4441334101248104,-0.5001742461593938,-0.669602073959882,-0.31025016260952515,undefined,1495894252840
903d185fccf839df,-0.39925346587617133,-0.4794814097128988,-0.26837025726616,-0.2708818012621893,-0.9361333405362857,-1.595474036312253,1.8698518015407861,-0.7264713152121195,-0.42251460780072925,-0.488089453089319,-0.07423231440556896,0.0477369332312351,-0.8217677696078431,-0.6317575199902835,-0.823390208072813,0.4861095740780663,-0.6655868060114699,-0.7265873822240128,-0.8358831225643898,0.990043416002727,-0.484270129463157,-0.45658979235252223,-0.58177307198913,-0.24934119006447017,undefined,1495894254384
903d185fccf839df,-0.48934446828183414,-0.3708835181484728,-0.31430703569613605,-0.38553642228017715,-1.0461080187810265,-1.5549592491366555,1.8820435724932922,-0.5993285990309646,-0.4009798585754241,-0.45084898036716253,-0.030380958563470725,0.1374594441229607,-0.4475058489304813,-0.670642544337196,-0.7897059491382756,0.9851997736643586,-0.37384662971492694,-0.7542686784399332,-0.8404030620604019,1.2712498264331782,-0.4387963979939492,-0.4438703234103176,-0.5256196970769149,-0.14311559590136616,undefined,1495894255859
903d185fccf839df,-0.7055627498359499,-0.8522362842558879,-0.4655159792335647,-0.588233653947731,-1.2891384654131823,-1.4296252160461584,1.849444501522371,-0.6876351836314587,-0.29807467041791014,-0.6373948677623386,0.02429957479416708,0.08005819820926235,0.10953514928698754,-0.7697067875230538,-0.8012849170582096,1.5974440267125825,-0.3263874365887495,-0.8614727501901341,-0.8172436177282791,1.7864664060508724,-0.3610672531214421,-0.4713238731519728,-0.5400766493536661,-0.008882827349469513,undefined,1495894257330
903d185fccf839df,-0.8843586033274209,-0.8322777743197607,-0.3442931626325018,-0.4941645412607197,-1.431893656470572,-1.4383039608183004,1.8542991208113047,-0.6897464504776001,-0.283880139295209,-0.6173323171303211,0.025392875218735376,0.08186282983004574,-0.5650066844919787,-0.8474768103153296,-0.8054954521858645,1.3024351788580146,-0.374593497685415,-0.8958289694240557,-0.8031730307922477,2.011006534183045,-0.32626477385579694,-0.45181886164797663,-0.5346484845693223,0.059478791403066784,undefined,1495894258845
903d185fccf839df,-0.7443711739441056,-0.8475401642709168,-0.4718958332118897,-0.5628521748030129,-1.4301245140633,-1.4715002791533105,1.8371107138501754,-0.8928968681790699,-0.3569882237251754,-0.6481623315782783,0.04854091543570467,-0.12518767836966646,-0.41704266934046347,-0.914136855753115,-0.7823375457949318,1.4479190143721237,-0.27295969373867185,-0.9531801072059538,-0.7892143937416851,1.8713118467871968,-0.37438260137721646,-0.47236364493365707,-0.6828960282809409,0.08207851219663741,undefined,1495894260332
903d185fccf839df,-0.5835934588240297,-0.7401163027027335,-0.38831628983331967,-0.41198063868793167,-1.3446092270049823,-1.4493142763176332,1.835616986530346,-0.8141201076771024,-0.30515889664935997,-0.6516022861353786,0.0069497010698908795,-0.17003449333204482,-0.41704266934046347,-0.9280243662985516,-0.7844427986342916,1.051879897917167,-0.5195081328170182,-0.9484493981737454,-0.7389982817188664,2.0693204588407283,-0.30923082170942306,-0.46969148944267275,-0.6820740869349053,-0.13206403733431585,undefined,1495894261841
903d185fccf839df,-0.5032046012639917,-0.5822092097520957,-0.46998167370883265,-0.5054506719916427,-1.251636812206456,-1.5440001795421652,1.8807129003208618,-0.6831916464751627,-0.24982699243751247,-0.6654721373958569,-0.006744040814307197,-0.08718889360278603,-0.40398702094474154,-0.9243210275629469,-0.8097059946757531,0.9427668799579776,-0.5725928576914799,-0.9527874649083489,-0.7158108499903103,2.1104959031757065,-0.2942985656992038,-0.4546391128001898,-0.6855048453067891,-0.12549911760999322,undefined,1495894263342
903d185fccf839df,-0.6321040105251053,-0.5088321596189682,-0.2562479247786638,-0.4126710395093426,-1.2182700104295117,-1.682678422662541,1.9142613455312254,-0.6586730842986592,-0.320570277665919,-0.7051956833396683,0.012882781587351138,-0.011166234700202693,-0.6650999888591801,-0.9122851993360872,-0.7581269872165008,1.213528384207232,-0.4127002927026755,-0.9427624149396939,-0.7874302065705234,2.063977206307866,-0.31553362532074636,-0.4475112541170008,-0.62932958630237,-0.1491537243309856,undefined,1495894264837
903d185fccf839df,-0.33411073734380176,-0.5587285513712554,-0.34110323564333933,-0.4217923477826491,-1.039607452127119,-1.818107378421758,1.9198917573656962,-0.7811126348305136,-0.44232525598634165,-0.8832310158228676,0.03447928947275114,0.060913964741937894,-0.9088054255793226,-0.9261727228322983,-0.7560217049282059,1.4519601911984734,-0.3206402375277193,-0.928456295499129,-0.7792859196582157,2.382848215740401,-0.2293020578623431,-0.4432603397554206,-0.5671680162249492,-0.0991216130494059,undefined,1495894266381
903d185fccf839df,0.3187021127077831,-0.3720575773727079,-0.26135150299698456,-0.3327484457985742,-0.6392366977874809,-1.7483536525897554,1.894545685395032,-0.7402342705939318,-0.24869926544542523,-0.9070299342320496,0.001326189460665469,0.02804078980794599,-0.8957497771836007,-0.9095076920466901,-0.8739165854312685,1.3064765252726935,-0.45958327544747435,-0.9278040021619408,-0.8801939256261723,1.785357735089335,-0.3952585154591956,-0.4392176226451711,-0.5209572304695964,-0.13020136224862286,undefined,1495894267841
903d185fccf839df,0.1676264906752174,-0.5035490246358757,-0.3002705437055828,-0.44913298312480165,-0.6757714928919193,-1.6046326063638379,1.8577941406134693,-0.7586503177471559,-0.46054208104907235,-0.7568177389271178,-0.026783019831228952,0.10257798354144307,-0.7260263480392157,-0.9159885510224665,-0.9149692550713836,1.4357954273636315,-0.39344412294142,-0.9334846529007848,-0.8912978648300144,1.5861172462692663,-0.4487655484740919,-0.4253691125938818,-0.5278542355237199,-0.090109404252644,undefined,1495894269333
903d185fccf839df,-0.08047013124327042,-0.8264076243385469,-0.4884843684485527,-0.5349850110657494,-0.7710581950895509,-1.4834655813248654,1.8347175958408228,-0.7944471561205658,-0.2812900251669708,-0.5995715335610762,0.014709041320099694,0.10437291879154345,-0.3038937165775401,-0.9326535364803638,-0.9265482377157852,1.2579817815326233,-0.4734419690563997,-0.9541680467186071,-0.9334186664054841,1.448824702160302,-0.49438783104451833,-0.43825478526430384,-0.549802715898185,-0.1568272557536487,undefined,1495894270867
903d185fccf839df,-0.09433029873083768,-0.8264076243385469,-0.5388873496276956,-0.6210760162496887,-0.7657302043397066,-1.481730297939488,1.8231385580963675,-0.866297749563823,-0.28575125292566195,-0.5742539027648444,0.019611861379829586,0.1138776109888934,-0.3038937165775401,-0.9308018735879486,-0.9286535126418464,1.2701054816000015,-0.4734419690563997,-0.953192773403362,-0.9397857644133674,1.4359208055494292,-0.49910583174624135,-0.43660295677389177,-0.5486051689585543,-0.13853524845817172,undefined,1495894273177
903d185fccf839df,-0.289758277295488,-0.8422570292878243,-0.582271576537663,-0.6494119424828854,-0.881917438472348,-1.4797527725193302,1.82557902094824,-0.8819090554521622,-0.2612036850881455,-0.5660934388238533,0.03996652997978611,-0.009643149471118552,-0.504080325311943,-0.9252468719599289,-0.9476008765428905,1.183219331891837,-0.5081498211346053,-0.961938568345007,-0.9468035655146945,1.546112082226578,-0.48007885259199623,-0.434699403521875,-0.5351870411817479,-0.1328858551348764,undefined,1495894273835
903d185fccf839df,-0.5156787554533432,-0.8440181911941578,-0.6741451333976151,-0.7051032006057847,-1.0801742484987278,-1.5080111009762018,1.8478350670402284,-0.8519115932533182,-0.33632403084455664,-0.6259550072670763,0.06860476348272673,-0.42180226947278165,-0.09935522504456328,-0.9363568719782747,-0.9254956002527546,0.30829601304122267,-0.803593352547102,-0.9901011686901224,-0.9328099437246378,1.1406864078575973,-0.583822032870576,-0.44759939215546457,-0.576084431747725,-0.1453083917311967,undefined,1495894275338
903d185fccf839df,-0.596067630266086,-0.773576274507622,-0.6811638876667906,-0.6411061891510165,-1.2011237607682865,-1.4911008260865894,1.7927432613804593,-1.1743780095425416,-0.3948817552802245,-0.5652501366291544,0.06246574674399747,-0.8012974792768878,4.130674855169341,-0.8882135266938997,-0.901285063761025,0.041575826941925687,-0.9697358394016187,-0.9443266520778398,-0.8875475738208576,0.31172649624070065,-0.7252190327322265,-0.36617313838828947,-0.748095776840342,-0.4844538431577095,undefined,1495894276841
903d185fccf839df,-0.6376479947071488,-0.5487492379472072,-0.6524530199426314,-0.7091709165332392,-1.3838800203863995,-1.5650914400750149,1.7959989538783656,-1.2898546001349827,-0.36192584016137175,-0.6217580147062065,0.032649387526961296,-0.897696021850712,4.139378620766489,-0.8493284764454383,-0.8476007961001791,0.13048259332798673,-0.9262059111301341,-0.9001353709198254,-0.8357501838306096,0.26713259676086315,-0.6937173295600336,-0.338208897960454,-0.7491189792714598,-0.5250423308535518,undefined,1495894278341
903d185fccf839df,-0.5447850002104643,-0.6403237530220977,-0.7296522010689775,-0.8011877277492973,-1.2387591217688805,-1.6317402918820374,1.7863554462455447,-1.4431997179996434,-0.373044139396403,-0.6747143788489899,0.02599187863969898,-0.6414773959003214,1.419451871657754,-0.8169243272627703,-0.8349691612682795,0.17291523265187395,-0.8305024587245173,-0.8982671523633581,-0.8514440311041274,0.1067885856210634,-0.7278400123212271,-0.3296764142551509,-0.7255292737391643,-0.5019281330384541,undefined,1495894279836
903d185fccf839df,-0.38400728509038834,-0.6796537578962306,-0.6313987902307004,-0.693162519275421,-1.06331598484106,-1.6741231271951993,1.8263074613186034,-1.2317208975867402,-0.1840662540554509,-0.5951895342539196,0.01781511555401726,-0.1871916357959389,-0.7390819964349377,-0.756745088997663,-0.8202322956837212,0.023390361635022814,-0.8834527326047759,-0.8224111521650574,-0.8188458894376683,0.023344410716923003,-0.7100781530660977,-0.3300434505936066,-0.6682006602092404,-0.5187213865677162,undefined,1495894281410
903d185fccf839df,-0.5697332740837575,-0.6080378696694367,-0.523574581877138,-0.4505680651376827,-0.7325588236706345,-1.7044311887007335,1.8880737123591937,-0.763736666557238,-0.2542607246724534,-0.47504423064749995,-0.06409663517425088,-0.03781095013264752,-0.8870460115864528,-0.6373125539952396,-0.7991796789433173,0.17493584932977035,-0.6464611589226549,-0.7321603717742511,-0.7698962016332718,0.2909232007507067,-0.6055699391275919,-0.32371460200621494,-0.5168811669759644,-0.34389630819223616,undefined,1495894282852
903d185fccf839df,-0.3521290482422455,-0.28224422420415096,0.3237042841052079,0.3438367423076162,-0.9045973914438273,-1.757356162159076,1.8731259010916554,-0.9172237803832555,-0.2248127970103944,-0.3861283293343826,-0.13727820302291657,-0.03507534227284754,-0.8174158868092692,-0.5438033189127885,-0.7676006728481398,0.3648730256398277,-0.6267532452272687,-0.6553924283009758,-0.7593170232941169,0.29679000977158587,-0.5713316899148818,-0.3198779030488783,-0.5071125658267425,-0.37738581138137894,undefined,1495894284336
903d185fccf839df,-0.4865724761908124,-0.4536527351815616,0.6529183711272685,0.611021911800721,-1.054501140910684,-1.8547369953720458,1.931378727372162,-0.6834221739736394,-0.2948413539649417,-0.5116231328478803,-0.1790663341728123,0.0038184560005817447,-0.6563962232620321,-0.5317674777351544,-0.7865480735603528,0.898313567426751,-0.5530459387575133,-0.6472862606984308,-0.8181322154745289,0.8381069612595885,-0.4918806233724727,-0.3365551845414218,-0.2843154167446467,-0.20764405619909432,undefined,1495894285838
903d185fccf839df,-0.6196298563357538,-0.5358349518305252,0.8564439470729981,0.8513254986116415,-1.2206254338410059,-1.880025545081031,1.962452515476734,-0.5835308520817675,-0.30583968747246665,-0.5792168019844831,-0.0696811117822885,-0.06933417484635335,-0.7303782308377896,-0.4308515910830433,-0.7318111316253073,0.9144783595263143,-0.5325187001581004,-0.5316023780728951,-0.7869544249968772,1.1807685663353356,-0.3571015712533328,-0.3010247506861795,-0.27454875356609376,-0.04658688690175696,undefined,1495894287336
903d185fccf839df,-0.36321718913338125,-0.5657727313487121,0.4060080599976725,0.25880984638242494,-1.037642879825686,-1.8254864081819353,1.9602250756093522,-0.44720941162710265,-0.3496506877578726,-0.7170873944943557,-0.11705000205208042,-0.005394445241669228,-0.7913045900178254,-0.3984474062857453,-0.7486532721359267,0.8841692789461977,-0.5824526432881518,-0.4540618159637413,-0.7561474662297367,1.315058408655069,-0.28402310859265145,-0.34503418307216854,-0.4169187523717127,-0.1431648206984754,undefined,1495894288841
903d185fccf839df,-0.39648147378514953,-0.5188115022710088,0.6478142846350489,0.5580564926171817,-1.0501502872644222,-1.8486833015874686,1.9031346214122555,-0.8538781539702688,-0.32727810716233435,-0.6986393411611092,-0.060969802340358786,0.07418677079996726,-0.6607481060606061,-0.36604322148844737,-0.7402322092428508,0.8639631686966769,-0.5845642788604023,-0.41182741668868394,-0.7669575389913835,1.0212252712354868,-0.32557929344566366,-0.38389063393558115,-0.3726187148029393,-0.09949062583505346,undefined,1495894290336
903d185fccf839df,-0.3964815082905593,-0.44660859904609346,0.9004665659999171,0.8944513178495115,-0.9750338413143619,-1.8483874876269268,1.9361649853888243,-0.5826203222842657,-0.30732933334491436,-0.7503258710281736,-0.22389335683821204,0.004197220365233878,-0.5301916221033868,-0.36511739651762715,-0.739179579142054,0.9468081698432135,-0.6225820117076031,-0.39186597884872443,-0.7730307707650517,0.8408170842252459,-0.3472787480069195,-0.4164137451439175,-0.3892988035018955,-0.292066156907372,undefined,1495894291836
903d185fccf839df,-0.6029975932409356,-0.484764603151976,1.328572201740257,1.3112135536582308,-1.167263235816965,-1.8837150592496417,1.90845734048011,-0.9054372957969483,-0.280070563841933,-0.5752435205278489,-0.128437436120646,0.02278501613084984,-0.5301916221033868,-0.2688306670965536,-0.796021751829758,0.9649936068853948,-0.4844529674338854,-0.36859874274262977,-0.8028161942939257,0.8462219410808822,-0.3423428024229682,-0.40747460751442194,-0.3817229736122386,-0.23009417929634005,undefined,1495894293343
903d185fccf839df,-0.6903165690501669,-0.46480607860185263,1.533374053445991,1.4635137431321226,-1.1054050528153516,-1.873056460769933,1.8767471357472478,-1.0835315831766277,-0.26247423405172676,-0.35682556706715945,-0.1549122802773834,0.046659347277450594,-0.7477857620320856,-0.3780790367645325,-0.8676007753775524,0.6558406401386029,-0.5966274440954036,-0.40923090855735006,-0.835421333340148,0.5031291747131325,-0.44050562833138324,-0.47287914283535937,-0.4330213455628372,-0.3688201416155393,undefined,1495894294885
903d185fccf839df,-0.7221948404037195,-0.5557934763806486,1.294119617917775,1.3294228043335938,-1.1489135530105221,-1.8720618762286976,1.8679215142757306,-1.1628919575060341,-0.24112758145919477,-0.4960110506300966,-0.12310438767686835,-0.06660902509076365,-0.8217677696078431,-0.39289239170695106,-0.9254956002527546,0.5123774495671116,-0.6116745070280034,-0.4162034803102185,-0.8795012417592243,0.2239399612284863,-0.5171500656739463,-0.46798862752863934,-0.5207135844667312,-0.5182201646573962,undefined,1495894296335
903d185fccf839df,-0.6917025478429729,-0.5017880380974962,1.1295128285436942,1.1442688723385026,-1.1391524240743782,-1.8890466884222974,1.8802737226186719,-1.1132772854677626,-0.2964707876202328,-0.3760085385609931,-0.028623198861538923,-0.061352136224949436,-0.8217677696078431,-0.31419650509153146,-0.9107587346681963,0.7710152254842662,-0.5336092040638802,-0.36373504045919963,-0.8419773447829221,0.8252646522513011,-0.3578250998709564,-0.504480805787206,-0.5423599066032281,-0.13864570732204337,undefined,1495894297850
903d185fccf839df,-0.4713262954050294,-0.5205725034233845,1.1269610394345337,1.0613285332512565,-0.9886212525876075,-1.894809225510658,1.8896410846512228,-0.999769393369174,-0.22915361671677062,-0.47472508803416896,-0.10023898707144209,-0.03002990201105527,-0.6607481060606061,-0.2290198307295955,-0.8107586321387837,1.409527325756814,-0.2658212148053105,-0.3416140677788196,-0.7444278078216735,1.507677558475115,-0.1683680631047977,-0.43276620339634736,-0.540643836031374,0.07837313310815619,undefined,1495894299341
903d185fccf839df,-0.3812352584939568,-0.5182244434308989,1.1033545123395436,1.0485819946786907,-0.9223505069128441,-1.8848493985661692,1.9126887068233775,-0.8090160235541035,-0.24926870420404426,-0.6600766286143015,-0.07723588165181923,0.042445553763893605,-0.6085255124777184,-0.3188256558471818,-0.6918111141726904,0.9872203055480904,-0.25573237919338854,-0.3975466275999052,-0.6798822268114497,1.3441306638570962,-0.1982665450655567,-0.47777628338542555,-0.5294386581847628,0.06597197038104076,undefined,1495894300843
903d185fccf839df,-0.4034114712654088,-0.48300354354361563,1.0274308445623535,0.9495964189555288,-0.9260739306031247,-1.8561811219946114,1.9551074764978147,-0.4762678908349391,-0.25034251982812217,-0.737150480629832,-0.09711553036211817,0.05792523880619244,-0.3343568961675579,-0.3827082004709574,-0.6928637442734872,0.9306433494789285,-0.24934462762657755,-0.405519804215725,-0.634151071068297,1.2897125572998998,-0.20293098049515487,-0.4896122771023743,-0.4876494272560521,0.005712909144781536,undefined,1495894303597
903d185fccf839df,-0.4034114712654088,-0.47243727357743065,0.9176934932535317,0.8083898979698857,-0.9232762211687028,-1.8525475090430779,1.8924733871716564,-0.8682121607949385,-0.26765801780255105,-0.7230758558235753,-0.15866796503837655,0.05476046757459075,-0.33000501336898397,-0.38270821342173195,-0.6728637060982436,0.8983135956914724,-0.21800191827234477,-0.40327160939296075,-0.6138883067388545,1.2972269979776478,-0.19361826464332538,-0.4729510483176758,-0.4810578218998847,-0.014117245856211253,undefined,1495894303831
903d185fccf839df,-0.3867793806976393,-0.4260629864278679,1.107820460951761,1.0329964461777548,-1.023345767165836,-1.8025317555739673,1.884733876101907,-0.8745994506852479,-0.21466377965760614,-0.7201078180577344,-0.16659622030874713,0.05692101204132917,-0.3343568961675579,-0.384559876314147,-0.6139162584844785,0.9569112249679739,-0.23900893162417414,-0.4265451775181096,-0.609935108299913,1.2577299862291236,-0.20603371884566837,-0.4715286047670821,-0.43453988119549647,-0.026374979463893635,undefined,1495894306008
903d185fccf839df,-0.44776403482995186,-0.31805219754554026,1.0306210256884654,1.0445887917652068,-1.0317800373610215,-1.7663307204491527,1.8350594770999888,-1.1606641986953947,-0.22352592746805952,-0.6388313465429084,-0.20124522398553596,0.0763370049208567,-0.5693585672905526,-0.4040024338153141,-0.6823374211788177,0.979137895365948,-0.22663982820519332,-0.44807718565582233,-0.6089835419595144,1.2189567026147208,-0.22746996370312683,-0.44851141789498916,-0.38218656095892173,-0.02516507020977282,undefined,1495894306844
903d185fccf839df,-0.5932955691642448,-0.4178447472261761,1.1748119773675667,1.0983740925179435,-1.2486231015058022,-1.7755661546723498,1.8026891906502296,-1.4678059501270309,-0.2613104339390297,-0.4376898079918192,-0.15418543601504262,-0.13870158265538524,-0.5693585672905526,-0.4817724436568153,-0.6823374285410515,0.9589317568517056,-0.35897609938243386,-0.5575674490215953,-0.6039808212895993,1.1403938339746913,-0.291257100217994,-0.3937567282731417,-0.2974262083669401,-0.014402044305930332,undefined,1495894308335
903d185fccf839df,-0.5226087874390122,-0.6174301096393789,1.074006015009281,1.075618468445577,-1.1784335061016016,-1.852847982694354,1.847193394995099,-1.2742269071730095,-0.22198304373418962,-0.586340255192197,-0.07448621274643795,-0.08640878870730054,-0.7042669340463459,-0.5632458181354703,-0.756021734377141,0.09007037282894514,-0.6903820911878998,-0.6247789812718927,-0.6380902762830942,0.12460458892752709,-0.5498252103296184,-0.4165687356104798,-0.4839850253312179,-0.41385837565236216,undefined,1495894309900
903d185fccf839df,-0.49904656136934444,-0.7131136712451344,1.0044627094843148,0.9877452018182549,-1.1573478282810297,-1.91326146038172,1.9027164779476877,-0.9950980834572944,-0.26157432935868236,-0.5847444275349674,-0.056020481379008585,-0.014154866323862716,-0.5954698640819964,-0.5752816334115554,-0.7528638072635816,-0.041269061145724664,-0.7658853584274508,-0.6576912885445522,-0.710738162471743,-0.0987806607503041,-0.6362556873425449,-0.4669027620225612,-0.5713339408972816,-0.47309509046312787,undefined,1495894311350
