UUID,iqrAccX,iqrAccY,iqrAccZ,iqrAccXYZ,meanAccX,meanAccY,meanAccZ,meanAccXYZ, covarianceAccXY, covarianceAccXZ, covarianceAccYZ,pressureDerivative, pressureIQR, iqrGyroX, iqrGyroY, iqrGyroZ, iqrGyroMagnitude, meanGyroX, meanGyroY, meanGyroZ, meanGyroMagnitude, covarianceGyroXY, covarianceGyroXZ, covarianceGyroYZ, class, timestamp 
903d185fccf839df,0.09278163454992783,-0.4266500452679778,2.8323657176060406,2.736923558680138,-0.16796663475593837,-1.8235065538943431,2.0468053259873837,0.510557607132171,-0.5050978514743221,-0.3646972338755466,-0.3936864916778838,-1.5863573738296364,2.4203849153297683,0.03854620189391565,-0.8444428689866197,0.10219412942576654,-0.3821156653921921,-0.07950552733409262,-0.841504240361303,0.43850485608084794,-0.3106580027394271,-0.33574997086297254,-0.3846096252025397,-0.761630050113353,undefined,1499137266648
903d185fccf839df,0.1350551436617375,-0.4744918406848517,3.2097491761587618,3.0928040826486387,-0.15763449191427278,-1.8135952671946072,2.14667289931521,1.284488112885815,-0.47798549160405523,-0.4299317772417336,-0.43274975450152064,-0.7865185967193806,1.3411179812834226,0.008919466107529384,-0.8391797037581681,0.3325434697054224,-0.5302215006895167,0.2002579193141704,-0.8429289099794303,0.5970904912899755,-0.1484075824947416,-0.35012890386853807,-0.37618081259624075,-0.6059304079617083,undefined,1499137268082
903d185fccf839df,0.012392794242594724,-0.44308650905736513,3.2694031235023404,3.177752989045339,-0.23845818936291113,-1.8378691657803388,1.9863035193472878,0.12810776004327798,-0.44341383840581444,-0.32764891233475374,-0.24423768695450493,-0.5456847405378576,-0.28213430258467026,-0.06885058258629546,-0.9244429627897239,0.44165620501739655,-0.5366293995697897,0.13509464522538422,-0.8859892822876712,0.5650429292631122,-0.19877879537488483,-0.40365947368046945,-0.47420803991342586,-0.5059541161392364,undefined,1499137269604
903d185fccf839df,0.08307961047323703,-0.45893594323463494,3.515037667145831,3.5121157598670836,-0.13088669234106334,-1.823811686055918,1.8258209403451766,-0.7760976008959176,-0.5349307233424228,-0.6741294567191161,-0.2448274279141491,-0.1508642644111285,-0.8696384803921569,-0.027188018573049547,-0.9244429480652564,0.4921713675823124,-0.5083557593585465,0.13123224770950767,-0.8941879506739631,0.6225929857452313,-0.19136065136936972,-0.3887754630396161,-0.4427515470590489,-0.49860810371702685,undefined,1499137271093
903d185fccf839df,0.009620767646163219,-0.484764515467999,3.280249434366782,3.1258312419665275,-0.22731509470878708,-1.795499783211993,1.745601346353683,-1.295091318191327,-0.5573640965790263,-1.3518162061890402,-0.20621721215427186,0.0026420996433239984,-0.8783422459893049,-0.08921878374743918,-0.9181271674604754,0.5588514635703994,-0.5683014432380997,0.10775218758219705,-0.8775678408882152,0.7620220352195182,-0.1721886224576615,-0.3626585637793295,-0.5517364252412869,-0.46999730368696335,undefined,1499137272569
903d185fccf839df,0.055359344508921986,-0.5581415363731341,3.2004979558573767,3.092783490948303,-0.12498269554723905,-1.7028938898837127,1.833644629480644,-0.5087546525820151,-0.5515720762189178,-1.386252757673969,-0.2801144112670896,0.038935140401835405,-0.9131573083778967,-0.08736715970734776,-0.8897060958410911,0.5669338172230988,-0.6013992853278727,0.12175475351991245,-0.8714968886543278,0.8173806543350779,-0.1593865831414707,-0.377206974185419,-0.5520356701868583,-0.43756032376474796,undefined,1499137274103
903d185fccf839df,-0.11096238929860723,-0.423127911437261,2.9376369932341704,2.810562999578738,-0.270587032722378,-1.6091187201850379,1.874369807295776,-0.171548466720339,-0.5143584633817275,-0.6876847149066881,-0.10272646491792439,0.02754131297801464,-0.9827874331550802,-0.15124978203577066,-0.9265482229913176,0.532583588081354,-0.6125680061816767,0.060344199449839105,-0.8783677576937405,0.7577270772415808,-0.20091431865190637,-0.4363999216940683,-0.5914132665962443,-0.4372687320809282,undefined,1499137275594
903d185fccf839df,-0.21352751138821185,-0.5399440129753864,3.26685133439318,3.3772699839855886,-0.3612863123464114,-1.5753610568026901,1.806420872861208,-0.5930503668922815,-0.4913866584259733,-0.18869434565462478,-0.0068464322283453075,0.04390967463643122,-0.8261196524064172,-0.22624238171868383,-0.8939166236065121,0.5608720519835741,-0.6098109007088396,0.07129385864172667,-0.8622890865927552,0.8330254746123342,-0.1819697502323207,-0.4167144935290791,-0.5771167844312729,-0.43553829926499593,undefined,1499137277101
903d185fccf839df,-0.15947292374697802,-0.5000269346471474,3.55395645371748,3.3645540393666424,-0.3383286354522619,-1.6094378262999194,1.6905779210834582,-1.3513206379953744,-0.7769581575853441,0.008242038127346842,0.0437495142399992,0.0847368640268657,-0.7434338792335116,-0.20124469308175155,-0.8802324102094522,0.48813013422651963,-0.7009340923915574,0.10938651612913568,-0.862359054995141,0.9049978092475435,-0.14459957814820748,-0.365721996001004,-0.7037505499547376,-0.4451457459424231,undefined,1499137278583
903d185fccf839df,-0.00008125643052757771,-0.6949162063033714,3.511209856413616,3.337902837320854,-0.24746478464960625,-1.6672844816307726,1.707800532511844,-1.374618735422971,-0.7719803487005994,-0.1643113171601189,-0.035304826909195536,0.026617257380503707,-0.8261196524064172,-0.17902471247122184,-0.8960218838081058,0.47398590227540954,-0.7076691627045817,0.09235089671786477,-0.9013662757733089,0.8697661680050125,-0.16776905610885678,-0.4077502732038906,-0.705979651338843,-0.49609265046898987,undefined,1499137280070
903d185fccf839df,0.056745288796318266,-0.5552064029265424,3.2725933046284523,3.1320979412305006,-0.20923284931376365,-1.694972147411144,1.881020591254315,-0.3582898030506734,-0.8112099912430876,0.09312972268025836,-0.09227660722687563,-0.18112684128287124,-0.6520443404634582,-0.1632855584595321,-0.8718113399541425,0.49419195599548726,-0.6915728286376301,0.11145105316573262,-0.8786056492146112,0.8593876172550696,-0.16066100457056276,-0.3717070446692089,-0.6117117894391392,-0.4046785001530507,undefined,1499137281564
903d185fccf839df,0.18010057585374942,-0.4800684831670049,3.0658778016935604,2.973461707813583,-0.3226738072344095,-1.6250553755215855,1.9626576500983555,0.20781659466099509,-0.712685763769572,-0.004362647339527047,-0.07907876786760239,-0.13865397194849619,0.43157447638146174,-0.2308714547696869,-0.8654955151759588,0.5729956389920664,-0.7228024891435381,0.10339554902955655,-0.9002327913224502,0.8601421380663802,-0.16660003170002363,-0.3914611984238858,-0.6451739831548641,-0.3612176864316428,undefined,1499137283078
903d185fccf839df,0.055359344508921986,-0.500026993103132,3.0882083071654955,3.119591814708256,-0.4131982339818237,-1.648853211727495,1.8897778375738974,-0.3509685348239234,-0.6494310055818088,-0.0363463128821236,-0.07676053744803982,-0.1829805142917185,-0.13852217023172905,-0.12717804787740408,-0.8528639392419294,0.6093665696058721,-0.652137753213178,0.1296646005107117,-0.8747923858554297,0.890461675655802,-0.14558278883929046,-0.2381635133016912,-0.5703840320561524,-0.3053317065630519,undefined,1499137284618
903d185fccf839df,0.05813130209453402,-0.600406616237874,3.2323984964337487,3.0219871100248663,-0.45019587878525624,-1.6945319220438633,1.8045668666569465,-0.9907789544834095,-0.6698034810206778,0.38964145813728646,-0.1509425251669375,-0.07300952526649429,-0.8348234180035651,-0.15495310782060076,-0.9149692624336174,0.5911812173578553,-0.6440034813553994,0.11608676750572343,-0.8821880145605856,0.8666248822934227,-0.16015636360515367,-0.2355212155862169,-0.5400327449334312,-0.2892596075761772,undefined,1499137286079
903d185fccf839df,0.08030758387680553,-0.5006139496452687,2.714333463336514,2.768479935255954,-0.3145789636271249,-1.733285803176582,1.7913284161180387,-1.0825756690509936,-0.4545133162235509,0.6375558473162396,-0.49046340652060055,-0.017960561546079112,-0.6346368092691622,-0.1105130170917959,-0.9528640564958096,0.4396355318100571,-0.6553338272198942,0.17965685661553737,-0.8790884283087133,0.7443458231273163,-0.1407573798030615,-0.27341985255845525,-0.656412157446106,-0.2826100422925857,undefined,1499137287566
903d185fccf839df,-0.123436508982549,-0.4653931082139702,2.441902465608871,2.244690523810462,-0.30913781854081807,-1.7468396463778355,1.7844093783265438,-1.1184242571038947,-0.4427301189666029,0.2340506776587353,-0.45835418517517224,0.012568335774366675,-0.7260263480392157,0.001512892242516468,-0.9497061588311855,0.4153882447341866,-0.6117447251045048,0.23871155821770704,-0.883412458666146,0.7039556974907526,-0.11311661874522559,-0.2688573532039424,-0.6289690120929109,-0.3384334875585345,undefined,1499137289067
903d185fccf839df,-0.04997780417711413,-0.3550341131991953,2.633306217341003,2.5486885120425766,-0.18564774062915518,-1.7519756185066477,1.8065733920344036,-0.9017131425111381,-0.437351284862422,0.23543211246126036,-0.5172687648943238,0.09320604640082104,-0.2908380681818182,0.017252098057304398,-0.96233776421415,0.5487483519161959,-0.5433707997892552,0.29432747082170313,-0.8611695975681831,0.8897071464305477,-0.04536678761644301,-0.21305261858968158,-0.6900717444668494,-0.31193358984511393,undefined,1499137290574
903d185fccf839df,0.066447450894648,-0.5510973563956775,3.0824658286563245,2.9614805516095433,-0.15234264993363397,-1.8248085991491299,1.955396748069924,-0.03281041686214346,-0.5097742376811477,0.650197788876374,-0.43845417959451377,0.10141422582449826,-0.30824559937611407,0.03947207866783409,-0.9391798430987497,0.5487483519161959,-0.5584506971064767,0.30869058973962776,-0.8109534867810106,0.9937852350017582,-0.004932454461379792,-0.2226373537763841,-0.5980578185527937,-0.25777966378595063,undefined,1499137292068
903d185fccf839df,0.3242462004060558,-0.5252686087943593,3.3268243506767603,3.2674331337862013,-0.12795526791890016,-1.8056808862775586,1.8278774668185425,-0.8018664175344186,-0.46253930865234777,0.8231629748986173,-0.5436620308483056,0.04224063057680481,-0.669451871657754,0.12094537544184175,-0.9265482377157852,0.5709750505788915,-0.5098576724274164,0.27578461405969923,-0.8130105488851348,0.9986511476130052,-0.018429431020116575,-0.30583986882773884,-0.6236511151643134,-0.31088775043478417,undefined,1499137293569
903d185fccf839df,0.6097652848925982,-0.5364218937586658,2.741129663283717,2.657091841968135,-0.1225861324844081,-1.8008710084130157,1.8166534517560378,-0.9051554105133663,-0.4231089023879986,0.9517918275603926,-0.4796104364778141,-0.15080922788264892,-0.6389886920677362,0.10150286974377282,-0.9191798196479737,0.7649534037152985,-0.3963278318723487,0.2607755369573936,-0.7825394372113527,1.2585461122247956,0.016964541643461714,-0.24999757461787056,-0.5295796835535468,-0.34499445168477433,undefined,1499137295068
903d185fccf839df,0.5570966415387606,-0.5481623106330629,2.3736351817069594,2.30192342012549,-0.027669729999969254,-1.796086751183211,1.7808723159753,-1.1331978478834634,-0.4487397734195209,1.3651307688665992,-0.37443214127048174,-0.10280513105261864,-0.8565828319964349,0.06076623430754353,-0.9149692697958512,0.6982733642566546,-0.4387504672512516,0.2136394354335889,-0.7775926917624982,1.258361334002696,-0.004379143444718962,-0.2671540513731796,-0.560832107704122,-0.3535874983678665,undefined,1499137296572
903d185fccf839df,0.410178955884613,-0.48711260468847684,2.644790157811548,2.755440286902913,-0.1330158355190397,-1.8013368565623802,1.7722360314492296,-1.2572492338910217,-0.3712057848258435,1.0917748352374668,-0.36632742861508444,0.035466535237779706,-0.8957497771836007,0.12001960227411969,-0.9128640243187252,0.6315933247980108,-0.46818674864730175,0.2245574288329762,-0.7743741571259715,1.1554073281392314,-0.01835268948364272,-0.29007484902773545,-0.5793508455866837,-0.36673126279899104,undefined,1499137298066
903d185fccf839df,0.22583911821109845,-0.5287907572390724,2.9733658528166567,3.156940404846894,-0.11280444368919161,-1.868854514033193,1.8797819467521657,-0.6467773170561117,-0.538041682257921,1.216198805140775,-0.44796636277019974,0.07965426124759022,-0.7129706996434938,0.027436224539425354,-0.8865482055387006,0.532583588081354,-0.47401459621898495,0.22922480590369096,-0.8076789770824666,1.1566238063122365,-0.025149714118971992,-0.34130189621445506,-0.7408200177670465,-0.40753213082424766,undefined,1499137299585
903d185fccf839df,0.6430294660281373,-0.4606969151590182,3.361914818242295,3.388544491791646,0.015437630363313876,-1.8623256556067318,2.025857159739459,0.35990217379623146,-0.4780109267456438,1.4919914389321,-0.4030512752179747,0.05570309455919305,-0.43445020053475936,0.07372780980057614,-0.8718113399541425,0.32446083340550763,-0.48385217012059223,0.18999221958970777,-0.7944130247552407,1.12157694116476,-0.04574159310422814,-0.35891466444613834,-0.744741532516652,-0.39597012425272043,undefined,1499137301091
903d185fccf839df,0.38661679882576466,-0.42136691028488527,3.2930096505973308,3.1854258699560694,-0.14303410224993923,-1.8322248967802834,1.9034580914283712,-0.4797116873564056,-0.5335717945392415,1.8104462461833317,-0.37991236857542765,0.21851571026515096,-0.504080325311943,0.1015028956453219,-0.8918113339559833,0.37901722932621623,-0.5290175586539223,0.19205042567029024,-0.7904668231822294,1.1104746621999222,-0.050930720298047065,-0.4013390640859671,-0.6070404351551815,-0.40921911199685984,undefined,1499137302589
903d185fccf839df,0.4074071363206399,-0.4659801232120916,3.2138963099679274,3.034570486551483,-0.11891413817555341,-1.8085155716533268,1.8771626645974184,-0.6012399463310676,-0.45394038632169176,1.6973023359163397,-0.370851497029239,0.16012739918119204,0.17481339126559717,0.16260796535663674,-0.8602323720342085,0.5083362444760404,-0.5143084212206784,0.19446327832424654,-0.8031520414790398,1.0958153439659315,-0.050118951995774354,-0.40915233407982626,-0.6775822260849678,-0.3616149788028345,undefined,1499137304066
903d185fccf839df,0.7234183753462898,-0.5193984880411379,3.5080194211505544,3.4884831800207445,0.23284641138813314,-1.8456925579157417,1.820195792569601,-0.9259502942197773,-0.39895572789230394,2.781768241638793,-0.05445779770402218,0.13689883391777413,-0.20380041221033868,0.14131365430763274,-0.8560218516310213,0.5588514070409563,-0.49871972157515,0.2567414454788024,-0.8086375421544992,1.2284113565057593,0.004953655710173563,-0.37080298065213235,-0.6388912908303426,-0.32964288197508995,undefined,1499137305575
903d185fccf839df,0.672135745290668,-0.5804481063017468,3.917622870425073,3.9732181056563887,0.48057742366541556,-1.8893984028841346,1.950402748280835,-0.03171302507056667,-0.25846690285015606,3.0339241514870596,0.15273351114438674,0.09832937736488791,-0.9044535427807487,0.22834218582360194,-0.8297060107642954,0.6558406118738813,-0.4504651322453084,0.27833045031446835,-0.809330226700441,1.2429782830708613,0.02522477659171195,-0.377531405521268,-0.5845080305054619,-0.3377406589250602,undefined,1499137307073
903d185fccf839df,0.6832240587088525,-0.5962975404790166,3.3676570426145167,3.2853596454949257,0.5053350966630683,-1.879482830831068,2.080162645128723,0.8056888114899442,-0.18461921439459078,3.0521553919054094,0.2232853730115802,-0.03155055400448052,-0.8957497771836007,0.09502204314493286,-0.8360218281802452,0.6012841028942866,-0.46832250233975586,0.27055992733712186,-0.8298238848590205,1.271296024663914,0.01479968982860203,-0.3559228257613503,-0.6090825077737595,-0.32226990539074635,undefined,1499137308587
903d185fccf839df,0.38523071651672947,-0.614495034648772,2.864904014856991,3.0612598424005966,0.2202361425618619,-1.8910381881832505,2.0523208960871293,0.41826676894675036,-0.15114762495859818,2.7047547298277945,0.33836319834905,0.01348600721948959,-0.8826941287878788,0.12464880483286822,-0.8307586703140273,0.6699848438249915,-0.4458411961460663,0.28816551242127125,-0.8189438440130751,1.3285166491135354,0.036250506166075815,-0.2653050637897622,-0.5296376030713414,-0.25230765002549055,undefined,1499137310073
903d185fccf839df,1.057447994281203,-0.6931551320810149,3.378503353478958,3.467761534533131,0.26130693332311455,-1.8811785189894819,1.910534895079872,-0.3585818877489135,-0.08279010132342163,2.7647779253306783,0.06905684106326221,0.01191988754460114,-0.8826941287878788,0.15890466547335574,-0.8433902167991215,0.7790976356664087,-0.32708429191190636,0.33597290506686656,-0.7799716059557714,1.3460092829789692,0.07587443124474516,-0.1795048844885763,-0.5825043189580126,-0.296958442820891,undefined,1499137311623
903d185fccf839df,1.1406087231633286,-0.6773056686757527,3.1264887017201928,2.9093553528010783,0.4690985887872701,-1.8461118227580677,1.7621375706099078,-1.031641409974124,-0.1446685201914015,1.567120604852344,-0.1310347496908326,0.02920222832991974,-0.8826941287878788,0.057062934424262524,-0.8507586643158682,0.7710152254842662,-0.4122044841621258,0.2691793473318168,-0.731399744911049,1.4448211105714328,0.059021413806053136,-0.14068134196868234,-0.3037450352469251,0.02759074345344578,undefined,1499137313081
903d185fccf839df,1.1322926433740341,-0.571055895559797,3.26429954528402,2.9626292030096404,0.45571689683019434,-1.8467220828396822,1.8184811548619586,-0.5953655385482083,-0.2637964142295118,1.5697674097934673,-0.3938026235201002,0.07746971096413899,-0.9218610739750446,0.10150286974377282,-0.9054955620775109,0.8700250187303661,-0.4487495625245361,0.2637963449070538,-0.7176580083370209,1.4517658092119239,0.052018554839168195,-0.09533873439153992,-0.22443281459004397,0.05382610969637559,undefined,1499137314574
903d185fccf839df,0.407406860277362,-0.5199855322672515,2.3985179845619538,2.3792504874406024,0.32533539244029275,-1.8123611439915022,1.852952654367146,-0.5521251570697955,-0.49409485474294706,2.6105473485348694,-0.521410741117919,0.04256365747421844,-0.6999150512477719,0.1987153982341175,-0.8907587259418879,1.0922918922984364,-0.36074166834242766,0.2588503144942341,-0.6756631494062678,1.4752792352333939,0.06528534077665891,-0.057033149805779226,-0.030891074516357593,0.03844464115779739,undefined,1499137316063
903d185fccf839df,0.4780938145296433,-0.5340738629941725,2.6192699794873993,2.4591602078214705,0.31043142526759276,-1.8389377639483788,1.968125003119101,0.08076414715133724,-0.41731995390139853,1.7529824345692944,-0.3864722682438139,-0.042562814487085925,-0.5780623328877006,0.17927289253604856,-0.8318112783281227,0.9973232758786862,-0.31382051862545957,0.27340342119096067,-0.6994942865059489,1.4222623878849245,0.06464896788102296,-0.12829494850778128,-0.23250190347852648,-0.09772166177693761,undefined,1499137317575
903d185fccf839df,0.5418504262475679,-0.571055895559797,2.613527500978228,2.550660917044947,0.0713301079223137,-1.8302427135571524,2.068123389290265,0.6447258669715057,-0.43962626006639943,1.8225387663056047,-0.33747397083249137,0.036837865272024414,-0.6563962232620321,-0.051259752731416114,-0.8623376175113345,0.8195099126948934,-0.4786438701035376,0.12871465682748637,-0.7361785668193414,1.4071411137431689,-0.025525784969846508,-0.1785717338198528,-0.025071567521353325,-0.09088164245438508,undefined,1499137319054
903d185fccf839df,0.5584827238477958,-0.5364219522146504,2.6001294010046268,2.509648709379659,-0.10641701951665876,-1.8453152213391288,1.9978681290027003,0.0842452297668489,-0.5425904016352624,1.7109432385284848,-0.3615228988595804,-0.016200773705974402,-0.6825075200534759,-0.04292717258473929,-0.8191796876696258,0.807386156098072,-0.44689174944618326,0.053979590240170315,-0.8206930452763838,1.2993827912176739,-0.09175484527911337,-0.3348553385161201,-0.29114283511237515,-0.5129696715592229,undefined,1499137320585
903d185fccf839df,0.6125371044565713,-0.5628376563581052,2.378101384456126,2.3405918613960237,-0.18546260632861045,-1.7937458642711053,1.9000577571211597,-0.5151949152218691,-0.6392626893484907,1.651981639660478,-0.24496966061505343,-0.045226716635819716,-0.7782489416221035,0.022807047882225907,-0.7791796702170088,0.7952626256190228,-0.4742602408688356,0.042434634630514646,-0.817810358314336,1.0508210860353246,-0.13358503259110738,-0.3727522224242296,-0.3352103426668267,-0.5850491031826262,undefined,1499137322055
903d185fccf839df,0.32563228271509104,-0.5569675063768913,2.54079401432715,2.539621660317524,-0.3043858296898738,-1.7959353486919263,1.8924654930474176,-0.5837174978008085,-0.6347914862871875,1.130592121721463,-0.24646058035607515,-0.024980948913348525,-0.7869527072192514,-0.06051800243961863,-0.8602323646719747,0.8336541446460034,-0.5519467808759326,-0.05306615373237643,-0.8712659939626853,0.9498996732879809,-0.20493542820918836,-0.4063721783335086,-0.5032198864428935,-0.6323903266566764,undefined,1499137323577
903d185fccf839df,0.1288180838197666,-0.6056897804489588,2.692002703727629,2.663242263416181,-0.46093414113602205,-1.815559190067781,1.8763631933454907,-0.6752264154741164,-0.6487968823103241,0.5651396686237402,-0.363574289249552,-0.018229756672237318,-0.9131573083778967,-0.016077989415461062,-0.8676007753775524,0.5750161991405197,-0.507577842322151,-0.03687281895841493,-0.8850916929584615,0.7954686642033441,-0.2270764737238057,-0.3598567234692315,-0.553348126108342,-0.5791774812630157,undefined,1499137325074
903d185fccf839df,0.11079991094296181,-0.5622506121319915,2.782600493101476,2.9932683723026194,-0.5094620610958638,-1.8509473219627113,1.9895500533145354,0.0022900426309957387,-0.5285670079704367,-0.06121472548766828,-0.23905757586401327,-0.02802941810990181,-0.9566761363636364,0.01262276599081039,-0.8928639787812478,0.4962125161439406,-0.5498447211521115,0.018040135435710907,-0.8963635550605742,0.6717575551302799,-0.2221924076689834,-0.38185689715342885,-0.6795419779367883,-0.5862025476379098,undefined,1499137326620
903d185fccf839df,0.04565718241059225,-0.604515750452716,2.9523113689677762,2.8465848119544117,-0.384943418897765,-1.852829347649404,2.087084297927436,0.6661166410372029,-0.38860318912958725,-0.6249354923106016,-0.14718898797985516,0.06599654785516841,-0.9653799019607844,0.020029469363568777,-0.9865483227925809,0.40528521787414773,-0.5785286951979864,0.056373445330990826,-0.9520651671654974,0.6090550837113733,-0.22374177826569594,-0.3721225540040091,-0.7782422917546984,-0.5539872456443002,undefined,1499137328073
903d185fccf839df,-0.05690787066819289,-0.5704688805616756,2.5522784630715933,2.766832242878225,-0.44713074609310144,-1.8131670617421363,1.951567760511986,-0.22529993098902115,-0.41692355976237233,-0.6553097074644825,-0.09876731533780217,0.014967760599602316,-0.7738970588235294,-0.16884061189065,-1.02128518237898,0.3345639450597111,-0.6470584471250114,-0.03173046790616607,-0.9561722951990436,0.6705256789830094,-0.2681270974459675,-0.3569867547537813,-0.7731073518173898,-0.5280455938467018,undefined,1499137329569
903d185fccf839df,-0.0915582031235867,-0.5387699829791436,1.9633941028263373,2.061030906793188,-0.4508850236996705,-1.7743037058565232,1.871855710732563,-0.7425705098197881,-0.4421055273237049,-0.25400674007137447,-0.11446158107529836,-0.018493558882575697,-0.6607481060606061,-0.22253897822920646,-0.9507587594830471,0.23151286192837534,-0.6542649862299799,-0.03439030451643064,-0.9558014645834862,0.6850464112887572,-0.2820082683433106,-0.3840313665418203,-0.6743362654809518,-0.5016499362365745,undefined,1499137331070
903d185fccf839df,-0.1830352188274653,-0.5980585562453884,2.0297472272251915,1.9767478217048498,-0.5521374195128356,-1.769871164311274,1.8685842341762653,-0.8156407478192252,-0.4803364090147915,-0.1110286050981875,-0.1508851824314205,-0.031804365094018905,-0.6520443404634582,-0.20679982421751672,-0.9707588271072259,0.3002136593885233,-0.6545720316603529,-0.10816276566351951,-0.9698370675752412,0.7374165250727787,-0.3171267831025779,-0.3556146183155985,-0.6332275351180895,-0.46988525415849347,undefined,1499137332573
903d185fccf839df,-0.2509500084616761,-0.524094608026109,2.1930779949762176,2.2338323459575222,-0.42093305666315417,-1.7821485840677804,1.8918422395779904,-0.6258594763520214,-0.464897056444354,0.30915827988186656,-0.0771424667005036,-0.06794870007058337,-1.0045468471479502,-0.1855055649716109,-0.9412850738514081,0.22343050827567595,-0.6573979235578955,-0.15926328826837205,-0.957459708589981,0.8477001890166407,-0.3238217898447097,-0.3572760892175775,-0.595044268740662,-0.4400318016968922,undefined,1499137334070
903d185fccf839df,0.5709568435317376,-0.5516843129378142,2.327698657413933,2.313012552456481,-0.158380362307354,-1.7972024571359695,1.988776892143745,0.096041130578648,-0.44662098285962326,1.2534441459473922,-0.13849762814259978,-0.08944339017289821,-0.9740836675579323,-0.24846231052611534,-0.9160219293455832,0.36285252202081747,-0.6565906528386725,-0.172511806790286,-0.9208034166150492,0.9780172361941412,-0.3057697094638102,-0.3293072047682486,-0.5134567495433296,-0.3276980078435745,undefined,1499137335576
903d185fccf839df,0.5349202217348502,-0.42664997219799694,2.911478931166969,2.949735527499856,0.13204657543784584,-1.7283408282667831,1.9841195068051827,0.33788592248316296,-0.4699701302459841,1.689953468820088,-0.21605456507817203,-0.1543859786098503,-0.04713263146167557,-0.10866141895325358,-0.8897060737543897,0.46792396744755577,-0.5499468054094625,-0.09897999810643444,-0.8868548909754589,1.0933823864621623,-0.23596224209525102,-0.3301272294674045,-0.4557602856771487,-0.3353519352539195,undefined,1499137337079
903d185fccf839df,0.12050196952506234,-0.3738186515950644,3.401471996830895,3.2870958432223816,-0.06217823952497911,-1.7155090489412832,1.8628591431319728,-0.45710573872333626,-0.38391587702096514,1.7251093533643238,-0.255196281959427,-0.0853740130535408,-0.15157781862745098,0.12279707718658044,-0.8297060181265291,0.839715966414971,-0.3370500900871831,0.15408443207818487,-0.8578461127381998,1.106486462904224,-0.08323736811957967,-0.2555620021124691,-0.27802118891116795,-0.4114687973517825,undefined,1499137338567
903d185fccf839df,0.1302040626125726,-0.3832108915650066,3.5782011186924723,3.6539033365523745,0.11479747370951304,-1.7041772998433282,1.7958753531155744,-0.7607430984156849,-0.365792663653171,2.2937233376609867,-0.18897145185904296,0.033434347210828684,-0.47361714572192515,0.20241882762514396,-0.8223376074209514,0.8882105970961551,-0.3392681271015674,0.31715139816848725,-0.8252129873109765,1.1941344117593364,0.031056791668065523,-0.3377530223304725,-0.4200946773489697,-0.42850319325688746,undefined,1499137340068
903d185fccf839df,0.47532185694403123,-0.37147056237458653,3.6388122728560544,3.481389724470437,0.15695855034536144,-1.7456610505408032,1.824634907625127,-0.6502468302875083,-0.4865664417562633,2.1675062586407203,-0.05414294170967291,0.16928616430987448,-0.12546652183600712,0.2829663771329787,-0.8823376556865782,1.1488689614264844,-0.1550931240254267,0.3153845080009014,-0.8436006065028642,1.0856523595246301,0.010126841181068777,-0.37771245619857885,-0.24655549790152453,-0.4384132882659852,undefined,1499137341578
903d185fccf839df,0.3602826841813043,-0.43252020986318784,2.8330034742806185,2.9510951446895013,-0.10934842861483038,-1.7803061549272639,1.930487221641062,-0.12261750467268764,-0.45351358115725965,0.8460630985897508,-0.0382449061254641,0.16970926887877447,-0.09935522504456328,0.2524138422773212,-0.9297061280181756,0.700293924405108,-0.17644297902292452,0.27979969833581936,-0.8512761076981407,0.8088345030038885,-0.06120997466146941,-0.37838882961577164,-0.15022580880467773,-0.501603649944108,undefined,1499137343103
903d185fccf839df,-0.16917508584530777,-0.43193313640908176,2.8215190255361753,2.71475855941109,-0.5482494151514603,-1.813076221950382,2.115315234443349,0.8108638372840729,-0.4620385963673453,-0.01815698442860262,-0.0712204059002249,-0.0015122775932394294,-0.6128773952762924,-0.0373721450551705,-0.9718114572080228,0.4618622022080312,-0.4173214504094653,0.06380832069887578,-0.9002467867059171,0.7313495304319177,-0.21222539635417176,-0.46372254239404936,-0.04030353894109403,-0.46041077243923545,undefined,1499137344585
903d185fccf839df,-0.2772841576115462,-0.39729928074791226,2.6358580064501633,2.615468202982707,-0.7196708484402562,-1.7953134436541558,1.9338086558211134,-0.44539099396739024,-0.42292962080082974,0.12377903837475179,-0.16421874818540508,-0.071875206832081,-0.2516711229946524,-0.21142897497316707,-0.9854956706050827,0.16281223405655662,-0.524810385495484,-0.11364076017826712,-0.9093846210440978,0.7040326866216529,-0.3130796086796824,-0.4607169202814683,-0.3735296206368132,-0.49629746868193947,undefined,1499137346079
903d185fccf839df,-0.20659744489713308,-0.35033802244221657,2.7768582687292542,2.8933701646404635,-0.7733827621321178,-1.7482628137656657,1.9653084862283408,-0.15473518511951953,-0.5214821889631801,0.04512782068326324,-0.28865066653044874,-0.11130121382181661,-0.22991170900178254,-0.371598197214918,-0.9802325127388648,0.1001733148948194,-0.5960566727142148,-0.23236445491630436,-0.9260650178070725,0.6116574176666054,-0.4012279955920566,-0.45107615935178175,-0.3847964739831782,-0.5124096175672961,undefined,1499137347587
903d185fccf839df,-0.06660996375570316,-0.2869403149611297,2.5758847360296344,2.6120268569350533,-0.5755888095947612,-1.7086261478557279,2.0131919971898107,0.2844115428284009,-0.5645203944018538,-0.016272737839432887,-0.23968578922372405,-0.07034469971742695,-0.7782489416221035,-0.3104932052082504,-0.9960220084242198,-0.01904236248302902,-0.5597281426756363,-0.22267505353156442,-0.9147091927877299,0.3397054744436883,-0.43335446562732516,-0.4490451481734461,-0.5644347705700603,-0.5269261809807372,undefined,1499137349081
903d185fccf839df,0.15792432857688765,-0.3068988248972569,2.558658571186868,2.493637758254452,-0.28367044278020215,-1.701657063997656,1.9555124680643792,0.11200218975371166,-0.5157619407097868,-0.8088889454971631,-0.27525168813947365,0.06677523589150072,-0.6607481060606061,-0.22994562979886665,-0.8844429158881718,0.14462691007326145,-0.5187686254119223,-0.19537373542565056,-0.8702234691542946,0.48868543611547,-0.37343400055010423,-0.4434468278597716,-0.5589700281043439,-0.49737496771703177,undefined,1499137350599
903d185fccf839df,0.801035120046372,-0.2065191433065303,2.959329614963053,2.4380710238552874,0.38848957879419244,-1.6275476609070851,1.8798135030843273,0.4328010955120103,-0.301114726794935,-0.6580701356908965,-0.909127251936436,-0.042009533220911555,-0.7521376448306596,-0.12810389874977343,-0.7497059095989573,0.643716911806503,-0.4362814653999742,-0.0683348827933515,-0.7388513485681149,0.8029215117320354,-0.2129569112271121,-0.16536160650448087,-0.32303277592860635,-0.248908326448976,undefined,1499137352072
903d185fccf839df,0.5917469049833349,-0.1918437683534956,3.064601525933556,2.5777268248543677,0.18254935662299934,-1.572805882109166,1.7859741388848602,-0.22913316719680127,-0.23847356602626724,-0.31834631791854945,-0.7379802407975322,-0.11027794000109467,-0.3343568961675579,-0.06514715319526898,-0.7602322253313931,0.57097502231417,-0.3795451316649449,-0.07658671016011633,-0.7274535434664959,0.6938081295343924,-0.2229178553677631,-0.17469325114356885,-0.3344272345655224,-0.22477312169250888,undefined,1499137353579
903d185fccf839df,0.4337413889867392,-0.31276903333445544,3.0492892664568974,2.686469020755691,-0.04634854533909761,-1.6077770804758487,1.9808822053855315,0.7272896175074125,-0.11930188159388506,-1.0063368116680975,-0.4577435177033751,-0.17571744842873538,0.37064811720142604,0.09594784221420402,-0.7223374533559022,0.4699446689196168,-0.31499381923373165,-0.004568477971741255,-0.7346182792478398,0.6053286599806836,-0.20117594769620104,-0.14418073438868656,-0.4038720576801527,-0.22115219373408018,undefined,1499137355075
903d185fccf839df,0.07337748288031704,-0.48652564814634014,2.861075695850877,2.7760535853748554,-0.5952756243639513,-1.6515201924019165,1.9807007468514963,0.14525952007830606,-0.27484710194313117,-0.8586340539358848,-0.06434775061389043,-0.20761087938486178,-0.3822276069518717,-0.05588885168396828,-0.7097058626974052,0.46590349209326704,-0.4194228849607706,-0.10321040621037196,-0.7452184475547281,0.598045196590434,-0.25846005791741367,-0.11716011399599738,-0.3270136135892947,-0.23083186959270988,undefined,1499137356582
903d185fccf839df,-0.11234840259682298,-0.5781000463092613,2.136933297698752,2.3172705158148164,-0.7086754344911398,-1.7029171832263408,1.881180990148325,-0.6802706201236506,-0.24347120428586433,-0.472262072278609,0.10037616843080177,0.12129665802388252,-0.6520443404634582,-0.05496300081159893,-0.8044427999983662,0.2577808222115853,-0.4263672809947102,-0.10681385184381804,-0.7995486837980292,0.3397978656683209,-0.3229289280603154,-0.10854386666934493,-0.27713137920627967,-0.1581756638185117,undefined,1499137358073
903d185fccf839df,-0.13036657547362776,-0.5945364662566601,3.0429094124785725,3.1058706259479347,-0.7902101568455829,-1.7432596045841833,1.9422687539903376,-0.3349445682541976,-0.07976421909676981,-0.979448447235753,0.0651153567079371,0.13439837590882997,0.15740586007130128,-0.12347473504334852,-0.9128640095942576,-0.182711663304041,-0.5782567398100863,-0.18686859273131304,-0.9188862897130264,-0.09017292577444858,-0.46630068058008356,-0.38899485201442946,-0.5176994280340956,-0.5185997642336582,undefined,1499137359603
903d185fccf839df,-0.2523359872544821,-0.6508900229882827,3.142438844939904,2.993495667711243,-0.7119360077922461,-1.7003224097165253,2.030130578321383,0.3122891392795162,-0.13502661423334483,-0.5340848491544398,0.1284041836464525,0.13653864821544967,0.2705548128342246,-0.21420644988562781,-0.9286534979173788,-0.2857626475088514,-0.6196464687326011,-0.19705196468073294,-0.9467056101379527,-0.1487332144797918,-0.49019150923905164,-0.406243717176728,-0.4696853428065637,-0.5260764352935163,undefined,1499137361083
903d185fccf839df,-0.156700966161366,-0.6068638396731939,3.2381409749429197,3.2909457021227233,-0.6348549946300781,-1.7071936661403917,1.9375324863324856,-0.27374137587032027,-0.07681749791488351,-0.2187429113284629,0.13070805946132785,0.09530214693163992,-0.7303782308377896,-0.18272812891147378,-0.9454956384279982,-0.2211031964633824,-0.5836226145315612,-0.1947721016847023,-0.9691024007877008,-0.109066819414027,-0.4877113334291306,-0.4436069721826871,-0.3909779178685858,-0.5251209012431616,undefined,1499137362577
903d185fccf839df,-0.033345575587705636,-0.6150820496468934,3.4104038940553303,3.469838954692166,-0.4129925103145209,-1.7144236252706184,1.9451825950834496,-0.11435999710005026,-0.14611459678889907,-0.12289996574828707,0.08581616997815311,-0.02033740312887284,-0.8696384803921569,-0.20217062165876817,-0.9644430170535099,-0.12815521085388934,-0.5658571385752145,-0.15730640841737126,-0.9785690860506544,-0.02998040516352713,-0.454666787053763,-0.43392351139986884,-0.311610686709787,-0.5376551611833962,undefined,1499137364043
903d185fccf839df,-0.0014673387395627991,-0.6121469746562864,3.2572810451517937,3.212010442296934,-0.47522097761731297,-1.7273113042316801,1.9803220635329055,0.028063339419930427,-0.15784683666291885,0.16574230492728742,0.021216954270422517,-0.05586666308752049,-0.9262129567736186,-0.21328059901325847,-1.0033904301731482,-0.004898158796640457,-0.6257565978873618,-0.22606317604588608,-1.012272724783773,-0.005312095114319925,-0.49412166493337323,-0.4451118943425391,-0.3030673036392214,-0.5128949937450713,undefined,1499137365575
903d185fccf839df,-0.2911443941099329,-0.6274093646074425,3.1551993153074025,3.2278485935615358,-0.7330731175929206,-1.7635589244933065,1.9282703112008721,-0.5098468488030355,-0.10626771814171145,0.09384689708071887,0.04874548476553622,-0.022509115953627885,-0.8043602384135473,-0.21050311115002315,-1.0128641268481378,0.029452183403990438,-0.6410034072795825,-0.22016720708786716,-1.0041634201396665,0.008700489353288317,-0.48527473092647266,-0.4314024187738415,-0.35097786309970985,-0.46511312472034283,undefined,1499137367080
903d185fccf839df,-0.08185611003607643,-0.5739909120944192,3.7542918485370977,3.807757678201255,-0.575660805587018,-1.7826051126657914,1.978796771762621,-0.11689291857760102,-0.05785393251434375,0.5272400968575257,-0.060809431945381826,-0.044499310795164844,-0.8130640040106952,-0.10866144485480268,-1.020232559640417,-0.03722785605465343,-0.5435315228814683,-0.15885798249186178,-1.006668278617029,0.0001851508658282114,-0.45152821169752577,-0.42602210223729087,-0.46499993261330613,-0.45332265519462955,undefined,1499137368581
903d185fccf839df,-0.004239296325174835,-0.5147023680561668,3.441028158871698,3.3539908321361995,-0.6159395936592623,-1.7667197023470609,1.9799223339301926,-0.060721000875988064,-0.023834097094531524,0.00670301258785395,-0.11112381178437679,-0.03547454264159045,-0.9305648395721926,-0.14662059242779665,-1.0297062599965234,-0.027124829194614567,-0.6133243114211584,-0.1661345365655283,-1.0234116471856098,-0.06327184297986631,-0.46767889479276165,-0.4577062723251679,-0.57483082670211,-0.47270809916994666,undefined,1499137370082
903d185fccf839df,0.14545024339835563,-0.43662928562204517,3.6266896862316087,3.396757813903423,-0.5282437347357233,-1.7820950114620266,1.9814134471593845,-0.05048674314941936,-0.08568502201425991,-0.10453129638528856,-0.22329013746969875,-0.009502961708543443,-0.9088054255793226,-0.13273307540697288,-1.0402325757289592,-0.025104184251996644,-0.473075730469328,-0.10597790228733904,-1.0213755748351219,0.037203012628254095,-0.4178432669262481,-0.4472628890698749,-0.6085570775647544,-0.47469440256323264,undefined,1499137371572
903d185fccf839df,0.16346845078057012,-0.3873199380958716,3.107348631511319,2.957255091599028,-0.5928481958178191,-1.7660581992001732,1.9525355465182392,-0.25069724558592177,-0.00031785920496703275,-0.16833429102891348,-0.17072279472624757,0.023287064187688073,-0.9044535427807487,-0.11977138335696934,-1.0181272920765896,-0.012980625508226004,-0.4436842130737529,-0.08979723085940258,-1.0080046690112263,0.2141927454359969,-0.37605543844243555,-0.4542530980523288,-0.6603504109316705,-0.48549174410469315,undefined,1499137373073
903d185fccf839df,-0.02225743469656988,-0.54992326794345,2.5873691847740776,2.5473132025116447,-0.6908194633880863,-1.7623686847683542,1.9815081017524447,-0.09198859905433539,-0.048486746965410096,-0.5673855946856947,-0.039823672229816476,-0.027743324686790437,-0.9175091911764707,-0.05866637839952722,-1.009706214459046,0.13654449989111897,-0.38140297961237773,-0.06485810024131954,-1.0047861362465202,0.39346144694471996,-0.3319600103514309,-0.43478810662566814,-0.7168051262431168,-0.52258697829554,undefined,1499137374574
903d185fccf839df,0.06921947749107951,-0.5100062480711957,2.2919697978314466,2.253265562993822,-0.6626263709364593,-1.7692795372581889,1.9877775560904614,-0.03395908525951857,-0.22322201812834638,-1.0468259281570818,0.19568924296016926,0.0009949059284555376,-0.7347301136363636,-0.1419914157705972,-1.0402325904534269,0.43357385136469717,-0.4005318011154254,-0.12750357747583763,-1.0137350576147068,0.6959947049779314,-0.30625898115634187,-0.4287404102260043,-0.7716476865301422,-0.5528134350388595,undefined,1499137376114
903d185fccf839df,0.023481004144549945,-0.5287907864670647,2.1618155922798477,1.9810315488143095,-0.6233967235000187,-1.8165141800996467,1.8984561939796574,-0.6646142521659237,-0.21899218800494055,-1.0458714521993568,0.09333481219481782,0.08028037512383807,-0.6563962232620321,0.08483787781048827,-1.0349694105005076,0.45984169858902096,-0.30975494175474083,-0.12071466153808348,-0.9921079150847906,0.7278694904038596,-0.28898728432396087,-0.4196396503246642,-0.8095144230622242,-0.5772921981395721,undefined,1499137377565
903d185fccf839df,-0.11789259381132493,-0.5763390597708817,2.708591238964292,2.6117786135947947,-0.5931156262334165,-1.778319314342407,1.9487433458306607,-0.20449480462106892,-0.08511109727359843,-1.0451495522564844,0.0024747665285459065,-0.02709219920988073,-0.517135973707665,0.0366945130999515,-1.0170746398890913,0.6255315312937647,-0.40245439968231506,-0.08972757062164095,-0.9838656723124934,0.8196750205929919,-0.2511110516057122,-0.401911807652276,-0.8369271290908383,-0.621393585729011,undefined,1499137379088
903d185fccf839df,0.15238027538402465,-0.42665000142598924,2.9905922717963724,2.7008449369846326,-0.4662106963768446,-1.726973563412978,1.8574312193553115,-0.6010949903482267,0.1860911167862391,-1.0046414411307971,0.03503918707905177,-0.008151855586394577,-0.6476924576648841,0.07650537536845872,-1.0202325522781832,0.6780671974776908,-0.4599424766696609,-0.05539668247588251,-0.9846003374545444,0.8459755660749025,-0.2242286127327635,-0.3445339247862986,-0.8476246552373962,-0.6482409527992951,undefined,1499137380585
903d185fccf839df,0.6735218966105228,-0.48828666391271197,1.993380229762703,2.028734756366599,0.0063965076658021635,-1.7412820794150023,1.8852466788733828,-0.2334359026275676,-0.009143878719446347,-1.6740213103803498,0.267344577375733,-0.05966205179824988,-0.32565313057041,0.03206534939352661,-1.0244430800436042,0.8781073723830655,-0.46066983270141354,-0.12487540666360998,-0.9935072783122607,1.049327435709663,-0.2178884959908807,-0.37230950393028767,-0.880622430582555,-0.5929472525530969,undefined,1499137382071
903d185fccf839df,1.0699219759435057,-0.5047230546321185,0.7843488524388715,0.635039678407966,0.2700909226450217,-1.7797075389202164,1.8360798356062744,-0.6083022908749242,-0.2961163790070299,-1.055938105427795,0.2664119183761765,-0.14846374664934786,-0.6172292780748664,-0.06051802834116773,-0.9981272907125148,0.7831389255516445,-0.4327612118408457,-0.17049159854340437,-0.943298163332767,0.7627161728122883,-0.2837780424781266,-0.43327282479722456,-0.8037746713630887,-0.5183442480356755,undefined,1499137383606
903d185fccf839df,1.0948704223438477,-0.5452272356424559,0.4060080599976725,0.2078413535812504,0.7024399164851882,-1.7886215383714532,1.8889047480615762,-0.14182706796987748,-0.634222054581925,-1.6255008158641597,0.19433150007822134,-0.1676949644733197,-0.04713263146167557,-0.14939810619258106,-0.9233903400511609,0.8599220201350488,-0.43407130235551267,-0.24465036976972412,-0.8931870032590011,0.8728612487681747,-0.28018685419090134,-0.47003666760120855,-0.7833491019803794,-0.4367501252513597,undefined,1499137385063
903d185fccf839df,1.313860592472756,-0.5399441006593634,0.18908387580444228,0.18925916038883117,0.40788840930828085,-1.7871843984549332,1.8465806460742216,-0.5523626243506806,-0.5663147817569745,-1.5199616405876732,0.07027514476327469,-0.07471895513190718,-0.29954183377896615,-0.39104072881453605,-0.9002323894868255,1.4176098489978424,-0.3484839257318146,-0.38076432459032017,-0.8449649824216742,1.568085656608782,-0.2003065571948909,-0.4949744282723048,-0.6236214245963784,-0.27231750207616223,undefined,1499137386593
903d185fccf839df,1.4704801641819556,-0.4190188356784036,0.42387236272044093,0.5039643612104397,0.3651719120561847,-1.7221124423626564,1.8809995389469423,-0.19983627546891541,-0.2994629424992765,-1.7675459433690046,0.13393254390156736,-0.10101896289587464,-0.9566761363636364,-0.48547578239241995,-0.8918113413182172,1.9247823174426697,-0.048826757772337546,-0.42070620108893453,-0.8529763300863686,1.7835099097620237,-0.17499570162089104,-0.4677353065201629,-0.44847780690120437,-0.27289872723185193,undefined,1499137388084
903d185fccf839df,1.4413740229410636,-0.4207798514447754,0.3511388760693628,0.40295720522064693,0.6348628901412826,-1.7555859396775886,1.8590538112349464,-0.2667059714898947,-0.482444511087363,-1.821093077168984,0.24109288534875836,0.07485188766684497,-0.9697317847593583,-0.474365766185606,-0.8244428602603112,2.1308843706464553,0.16354612686593126,-0.4412122730153097,-0.8108065505656115,1.9353385768678923,-0.15197313654767272,-0.41004872732566316,-0.02508511098541391,-0.30559379035270234,undefined,1499137389579
903d185fccf839df,1.3942495017909087,-0.4759593197241705,0.33199829758659,0.5276234975429269,0.879199628829546,-1.7908925481052111,1.8497390347964513,-0.22579874832128818,-0.41663426048897106,-0.9621214177256129,0.17187712423728702,0.04353372867901402,-0.6999150512477719,-0.4502941097318867,-0.784442783909824,2.1915026731302962,0.2797662947716773,-0.4003077907553415,-0.8511291720455112,2.2353772896735884,-0.08615210857420219,-0.3931718900806055,0.012332187717357229,-0.3844145598250333,undefined,1499137391105
903d185fccf839df,0.9077582130198043,-0.6491289779939184,-0.1758583083892563,-0.0540919070367246,0.9815731722916421,-1.8621719266129615,1.8540492931485846,-0.3708877023295117,-0.3880779222100773,-0.1838509454209473,0.06414009594472794,-0.017811667435721035,-0.7260263480392157,-0.466033276694351,-0.9570745989856984,2.092492823354753,0.2849960440063809,-0.457076298078803,-0.9038571394422077,2.2183158107997967,-0.12930718586861845,-0.372388961811942,0.09690426295149764,-0.3384595722118922,undefined,1499137392570
903d185fccf839df,0.40740699829900096,-0.762422931087331,-0.4393571547555153,-0.4621745243042729,1.2675566924691493,-1.89439229199736,1.8427174537871467,-0.4173398122837945,-0.41001767739639833,-0.12672475318211632,-0.0017874048843828808,0.050973453591184666,-0.6607481060606061,-0.5113991341154907,-1.031811520198117,1.326682352874999,-0.1261674829998597,-0.6005048074865127,-0.9955083655378795,1.2354792397346503,-0.4280154992710969,-0.30843799525731197,0.2578527329068254,-0.39570247879983883,undefined,1499137394067
903d185fccf839df,-0.792881760150591,-1.0060344183596377,-0.8400284526686497,-0.8989664096847301,1.1816093978610611,-1.9465323116838962,1.8474774053889984,-0.662658694508743,-0.39765068931128256,-0.6951653315959726,0.06933426337323603,-0.08651139766478012,-0.8957497771836007,-0.6400900386207812,-1.0486536533465027,0.9811585685732874,-0.3117783669518589,-0.7669409001004143,-1.0584166924114689,0.5925633448285668,-0.6672312468978838,-0.3130567848737251,0.41913446213128047,-0.23206578406038314,undefined,1499137395618
903d185fccf839df,-1.0090998346722484,-1.0453644524617631,-0.9287115742655404,-0.9707927275183713,0.9478257803612314,-1.962086971667304,1.8599084963131096,-0.8524518034970741,-0.249796863739741,-0.7029249481809537,0.09399034262132035,0.054334286802032575,-0.9088054255793226,-0.8900651831109275,-1.172864329178814,0.2395954134341255,-0.5721364583788205,-0.9389563156234816,-1.1530205726359277,-0.0677527879930475,-0.9057588781583116,-0.4286624335523772,-0.19852119711842062,-0.3683548172655889,undefined,1499137397072
903d185fccf839df,-0.8122859463256116,-0.8146673243761191,-0.8744812906280811,-0.9138052662377449,0.7584866634035724,-2.005317651653137,1.8879132990617589,-0.702481649125132,-0.24415987175162798,-0.9843137752688345,0.10684994259480782,0.07062595532207686,-0.7608414104278075,-1.007646081122485,-1.1739169629607276,-0.4615555565368967,-0.8726013821753825,-1.0189793912001663,-1.1393418071456927,-0.2038596500929346,-0.9585374384933404,-0.3989846628322405,-0.382198218014122,-0.2641392147849643,undefined,1499137398584
903d185fccf839df,0.3921607830078082,-0.7612489303190805,-0.6569192226917983,-0.7622931677610312,0.10218719674912319,-2.0674943637056744,1.9264425878421811,-0.6468847304998415,-0.18473908864566976,-1.052676065517158,0.11548711544388629,0.011031542505925944,-0.9131573083778967,-1.026162769943968,-1.17286432181658,-0.41912275469086063,-0.9535249544765483,-1.030872659099645,-1.1487944990315753,-0.05132265275989921,-0.9246835346857174,-0.38987410399325206,-0.367715011020392,-0.17700263018412202,undefined,1499137400089
903d185fccf839df,-0.08740016322893944,-0.8187764366699669,-0.5274029008832521,-0.6065324870750401,-0.41861878101110894,-2.054473916384976,2.009273593957185,-0.2209107557287156,-0.3528710698812702,-0.9849710593630496,0.21835470762263073,0.025473370755290124,-0.9262129567736186,-1.009497753727981,-1.1739169592796106,0.15472983800677492,-0.6955284455838319,-1.0119751553379444,-1.1447223545997505,0.17882251332455545,-0.8615819335974472,-0.3531024142808079,-0.3462943294107274,-0.20144180613218338,undefined,1499137401578
903d185fccf839df,-0.059679828253804926,-0.669674502928167,-0.31685907894224585,-0.3485565639591055,-0.4857740961970676,-1.9764583785706467,1.9780683133061385,-0.29925637911579345,-0.19766273757643094,-1.2757270494260098,0.22720040443163012,0.010159241470711605,-0.8870460115864528,-0.8178501457582034,-1.0433904917991679,1.0862300422647473,-0.23947116490077228,-0.8447601111610968,-1.0836122084517883,0.7579272486453639,-0.6473943617196948,-0.32829476059006557,-0.2824022804466654,-0.25622764662482295,undefined,1499137403069
903d185fccf839df,0.426811115463202,-0.6432587695567199,0.5010715438467871,0.44256459931637876,-0.052705104872549174,-1.8987689340180387,1.9390524988384419,-0.34963774884237847,-0.3506702943940392,-1.147272166757514,0.28554477999353356,0.038330247398491134,-0.9523242535650625,-0.6512000580652888,-0.9897061983705038,1.1508895498396594,-0.31359611016330624,-0.7163026819576882,-1.0273158681563945,1.1912087083092253,-0.4815458806941149,-0.36305414754243764,-0.47547620922783157,-0.3703690195231138,undefined,1499137404576
903d185fccf839df,0.38523092354918786,-0.6737835786870244,0.21651897604249598,0.154881188201329,-0.315340094417161,-1.876198605613279,1.9187293635462093,-0.595723907825804,-0.37972856149991235,-0.9560801132270725,0.2760573919206578,0.008235832738568923,-1.035010026737968,-0.6215733611312262,-0.9897062057327376,1.0680446052225658,-0.3694349691704812,-0.7122749300169435,-1.0315559355537782,1.3596677007511728,-0.4462670875094999,-0.3787212283898396,-0.4758116264549273,-0.3744473172878081,undefined,1499137406101
903d185fccf839df,-0.1262086045898,-0.9479198750896357,-0.48018984669327175,-0.4984728345253847,-0.6643852234275941,-1.9158539037299562,1.9028953077257817,-0.9118054966352114,-0.3397741523081147,-0.8608713991255459,0.1999965275106423,-0.07849036584264897,-0.8739903631907309,-0.7215634033863553,-1.076022102227324,0.9488287582563882,-0.44560696840242214,-0.7617922173059446,-1.0922532696520362,0.6995825450958958,-0.6396569673314076,-0.3783658463912731,-0.4355270066285354,-0.4717673661393329,undefined,1499137407569
903d185fccf839df,-0.8663403959452064,-1.0207098225406648,-0.7896254714895068,-0.8434991348323466,-1.0258143355053417,-1.927539696697039,1.9549128715652655,-0.7485888202916973,-0.3051004489402422,-0.8211005740389145,0.12328262924006354,-0.015572844609802442,-0.504080325311943,-0.7585967907424017,-1.0928642353757096,0.9589317709840663,-0.26151575372008345,-0.8084533466476318,-1.113635523623874,0.26234368663512736,-0.7699480834733812,-0.3618120976996913,-0.27465777472336306,-0.3515417505219448,undefined,1499137409080
903d185fccf839df,-0.729124941400208,-1.0089694933502447,-0.7672949660175715,-0.8322070505158048,-1.0887627991241817,-1.9542467533578916,1.9821576584941172,-0.6006590694674893,-0.2510552086707862,-0.8262180087822284,0.08349833354091386,-0.021885092074135484,-0.6476924576648841,-0.8771035072493922,-1.1665485375306823,0.16281231885072123,-0.7353773137559987,-0.9187542266103277,-1.1706105547822852,-0.14620786744764114,-0.9248101742704489,-0.4162332275749415,-0.3577815723547259,-0.36928574776556916,undefined,1499137410610
903d185fccf839df,-0.740213047785934,-0.9285483509236376,-0.6479868171934645,-0.6979612716885595,-0.8451152086371886,-1.9830897227883377,1.989581600480881,-0.48218080396989543,-0.2575856364167294,-0.7701190254744065,0.06805354618502328,0.05799414965462562,-0.5954698640819964,-0.9428377180032765,-1.0718115634185523,-0.07359882906554148,-0.7538018569762587,-0.930451173244734,-1.0582347763685758,-0.2648836870002769,-0.912421759793453,-0.2585933476164229,-0.4609345448138979,-0.2763317577374763,undefined,1499137412079
903d185fccf839df,0.5931329872923702,-0.9080027967613967,-0.4374435035263571,-0.5467242064096681,-0.3162452347322793,-2.027799468632832,1.9606563707100426,-0.5154346327307842,-0.2286679072088259,-0.9197291674870113,0.054998518481194275,0.12560352242497974,-0.852230949197861,-0.9835744084802976,-1.1644432478801534,-0.16654680054267376,-0.7829600496370187,-0.9800761201942206,-1.0899793070591437,-0.2751852472057773,-0.9300530105478356,-0.2658011845174306,-0.6180703876615953,-0.34420153313184504,undefined,1499137413576
903d185fccf839df,-0.35351499252964175,-0.8610415530696972,-0.7845213849972872,-0.9046855354929788,0.245734395204748,-2.0057928161292136,1.93177057699218,-0.5804341339441434,-0.178777892054647,-0.736059929235222,0.0760426040230011,0.08790896584511051,-0.6085255124777184,-1.0326435884485736,-1.1728643181354632,-0.07764006948751463,-0.7282910544400057,-0.9986949743732132,-1.11121462808821,-0.34233786803935445,-0.9581429571264256,-0.25380534368941327,-0.5967742398086224,-0.30729214621894146,undefined,1499137415077
903d185fccf839df,-1.0645406426441564,-0.9907720284084817,-0.9204175607841584,-0.989232970031796,0.5938023803938489,-1.9978966956305293,1.8712324331701342,-0.9137762749059457,-0.27138421623616166,-0.7358901663385787,0.09570289611469564,0.06801757584869719,-0.4692652629233512,-0.9354310405320672,-1.165495885343184,0.0840085581261579,-0.6911103798610702,-0.9493106801250405,-1.0915395962088468,-0.25516726572931364,-0.9147150752710048,-0.2636354178560496,-0.5954530346798503,-0.3214885780524989,undefined,1499137416577
903d185fccf839df,-0.9245530234810875,-0.9479198458616434,-0.9274358067794349,-0.973184118747876,0.625574900296134,-1.9976661015894466,1.8915213799861852,-0.7889033027662123,-0.27336849993820045,-0.7523577004081502,0.09377744161960065,0.09230733088985142,-0.8130640040106952,-0.9141368687038895,-1.0970747668222476,0.14260622273356122,-0.6639084129764118,-0.9389943148136656,-1.0557439120084489,-0.17410984651723255,-0.8837091969491252,-0.2752921410689073,-0.6100221633063825,-0.3275892461455177,undefined,1499137418084
903d185fccf839df,-0.346584926038563,-0.9226782009424237,-0.6345887172198629,-0.7308364058767344,0.4325020770239564,-2.0574040997070204,1.8854412806633667,-0.8821037350774779,-0.3035541619421079,-0.7235358946519873,0.09748518347070492,0.024895559229717194,-1.0088987299465242,-0.9048785315779588,-1.1160221638533436,0.312337274661737,-0.6867115224937965,-0.9952688516831808,-1.1035111387257506,-0.07191036876165043,-0.9074043420183696,-0.40450994211344116,-0.5784086751624581,-0.38924057634109055,undefined,1499137419575
903d185fccf839df,0.07476359969476198,-0.9537900250708496,-0.5918418657790494,-0.687087857088738,-0.19822714726898394,-2.082364226742463,1.9165887043124425,-0.8625808018117693,-0.3235442163309884,-0.7452759667763236,0.08606484956789365,0.05562087002520574,-0.9914911987522282,-0.8400701587456694,-1.0107588519220767,-0.008939349755350927,-0.7249259864559776,-0.9450676067206347,-1.0433665522402045,-0.30130100800367976,-0.9312927209833389,-0.3633030230287126,-0.5089487573708171,-0.3494609139677615,undefined,1499137421073
903d185fccf839df,1.2376298610708898,-0.6602822337302325,-0.42021708454664136,-0.6526442015376795,0.40717870004962586,-1.9619844838587477,1.8568053208933548,-0.8013847424898117,0.11157154612323594,-1.0464021196701299,0.0005176356892289978,0.08376142776327551,-0.6389886920677362,-0.782668456909202,-0.9212850945740348,-0.04531028036915667,-0.7454644917226173,-0.902320236715529,-0.9476641732464087,-0.1042009059815789,-0.8392672162548888,-0.38448321478530434,-0.548323692270141,-0.39097010258421605,undefined,1499137422602
903d185fccf839df,0.9631990209917123,-0.7530306911173887,-0.7507069390548073,-0.9657178904686787,1.214585359278744,-1.8717707189086634,1.802023832042296,-0.7641484576621633,0.1402869903487916,-1.136573754690193,-0.0024741447356989854,0.13090098471334372,-0.09935522504456328,-0.8761776758031846,-0.928653523685197,0.011266682766185645,-0.7109589709885209,-0.949766650109833,-0.949098519323201,-0.2544127449583899,-0.8905116144242399,-0.36452666021994484,-0.5275036131888275,-0.3496062525018512,undefined,1499137424064
903d185fccf839df,-0.38955133828325134,-0.9755096092293333,-0.9280736905224877,-1.0748539530767016,1.9875143481913096,-1.773127437636421,1.7594998786094873,-0.7327531505372534,-0.3955061852030006,-0.7911603359021369,0.0511700972532047,0.12133984293962542,-0.5867660984848485,-0.8808068556980777,-0.9054955915264461,0.0718849852500265,-0.6396885012411311,-0.973508855995132,-0.9649952730477738,-0.3967405766492102,-0.9308237244271803,-0.34684427139984353,-0.49119743710175395,-0.3263896340149859,undefined,1499137425618
903d185fccf839df,-0.3050045270920904,-1.013078569109102,-0.9453001095022034,-1.1047482399318334,1.5431105095880178,-1.7961938953020191,1.7905447456848516,-0.8522809052075349,-0.3668026253884336,-0.7533291402040044,0.09993286204652059,0.07855432334618324,-0.847879066399287,-0.9650577309907425,-1.0254957285499855,-0.673719364380936,-0.87383796949131,-1.0421389665162955,-1.0508671333715442,-0.8046145987553976,-1.0715651840862073,-0.3772540207439032,-0.5165692804203104,-0.33580782417426086,undefined,1499137427083
903d185fccf839df,-1.0298903101887624,-1.0958478007561872,-1.0346221313899446,-1.1117277751785344,0.8692121965018527,-1.753200798109634,1.8350410517153941,-0.8458052741560417,-0.31121373518619516,-0.7012867892179867,0.09418984014720592,0.04379232054044542,-0.5911179812834225,-1.1354111687511894,-1.1791801245080622,-1.1162324771737293,-1.2417322393922712,-1.1280580137584288,-1.1326248683187077,-1.013910270257535,-1.1799002606868845,-0.39930678177802326,-0.5671950327762434,-0.33112025574170467,undefined,1499137428593
903d185fccf839df,-1.0201880790796134,-1.106414070722372,-1.048658115106599,-1.114197253850569,0.5169270703456305,-1.73657934860216,1.8544095599865162,-0.84032981540738,-0.2983345699614979,-0.6886747981728674,0.09317107929743325,0.09781020713184845,-0.4083389037433155,-1.1742961850038678,-1.283390775049039,-1.2152422633536488,-1.347514302579628,-1.202153454916795,-1.2550130843203546,-1.290004397607558,-1.3088882902817152,-0.46775695037779735,-0.6711956591964581,-0.5225699356342082,undefined,1499137430080
903d185fccf839df,-1.3154091876428464,-1.0876295907824876,-1.0575905206049325,-1.1077021711742143,0.3414427989198152,-1.7202490523220795,1.86136276243944,-0.8382850580475434,-0.2947927184359471,-0.678817952295256,0.09164793025636707,0.08275388064289199,-0.8696384803921569,-1.1835545237486453,-1.2865486763947802,-1.2273659086581292,-1.344187944919398,-1.211925187055304,-1.2584904991425514,-1.2920677889069534,-1.313294845214733,-0.47113893023306225,-0.67206001114027,-0.5237486968097791,undefined,1499137431575
903d185fccf839df,-1.2059138610405242,-1.0782373508125453,-1.0537622015988184,-1.1054981074435135,0.44036033615785514,-1.7175634395641413,1.8543385631494114,-0.8442857114761868,-0.2999767535055463,-0.6801305810783319,0.09166079049260235,-0.028864357670598594,-0.8826941287878788,-1.1835545253674922,-1.3012855309359876,-1.2354483347391776,-1.3620440398498252,-1.215110657791472,-1.2802225940007785,-1.29693369749297,-1.326454541492081,-0.4739043709481177,-0.6716468312360725,-0.5249811286592869,undefined,1499137433066
903d185fccf839df,-1.3043209432354814,-1.1175673556866783,-1.0563142448449283,-1.1127929546187039,0.5427853264759283,-1.7189237148723315,1.8495417953465905,-0.8429221760097595,-0.29709839692963647,-0.6797993002056335,0.09275274797721601,-0.07724543143214518,-0.7347301136363636,-1.1872578608654032,-1.3118118650740078,-1.2475719853432932,-1.362930268907684,-1.2199870244119904,-1.289451387577701,-1.3042479589857199,-1.3337277372700782,-0.47383278658926004,-0.6713855453592215,-0.5247700099097677,undefined,1499137434567
903d185fccf839df,-1.3459013421819541,-1.1240245791219983,-1.0595041718340907,-1.115761995729463,0.629144054182914,-1.7346390921329935,1.848597693284337,-0.8403141477742174,-0.28874503576638394,-0.6779196457038881,0.09233540440039266,-0.04933533915854251,-0.7564895276292335,-1.1807770245534823,-1.3118118650740078,-1.2455513792646673,-1.357733652751255,-1.216041600423462,-1.2906688326763598,-1.304324951280263,-1.3324544427652378,-0.4729373820831057,-0.6716331375179733,-0.5252670767505951,undefined,1499137436065
903d185fccf839df,-1.2322485277715403,-1.0952607857580656,-1.0537622015988184,-1.1165106192873293,0.7368970150215626,-1.7573515044335701,1.84645441760301,-0.8197649240906274,-0.36807096050417015,-0.6999683713201896,0.09515570387109765,0.015309540956565143,-0.8957497771836007,-1.1779995221206256,-1.3118118650740078,-1.2394895574956997,-1.3568467039953191,-1.211152567827002,-1.2807053742938246,-1.2744673658426218,-1.3209837157012756,-0.46488445245087645,-0.6597335959732218,-0.4967114120083543,undefined,1499137437579
903d185fccf839df,-1.2544244644997145,-1.0934997407637015,-1.0556758528279766,-1.1156963808211473,0.8543493736136967,-1.776304524073865,1.8418838160406277,-0.8261530854646998,-0.36487960384598317,-0.7002381720711429,0.09483577843507894,0.01766803232366351,-0.8391753008021391,-1.1779995205017788,-1.3223381900092357,-1.247571981810203,-1.3697516717429858,-1.2109752453874252,-1.2928448411954447,-1.2789483138309734,-1.327209587569121,-0.46549076657067745,-0.6599184535412799,-0.4965776288779258,undefined,1499137439059
903d185fccf839df,-1.3209531028140704,-1.1163933256904357,-1.0633324908402049,-1.1209084985697018,0.8789219045247767,-1.7789505398036067,1.8398615039859758,-0.8334188858834944,-0.36168512323729396,-0.6998729977907132,0.09494338763247541,0.05737020375912588,-0.8783422459893049,-1.1798511866318875,-1.3297066200406773,-1.2475719853432932,-1.3767104057897446,-1.2154906341685023,-1.297280819279024,-1.2820587998515103,-1.3313224634677256,-0.4655956810775402,-0.6596274215062791,-0.4961691523284182,undefined,1499137440577
903d185fccf839df,-1.3666915416551904,-1.1334168190919405,-1.0639703745832576,-1.1177674803918316,0.849669360405709,-1.7653081847790781,1.8380863819341664,-0.8612734146047292,-0.2878733080224426,-0.6788505217116254,0.09249434357747587,-0.011223445732566444,-0.8696384803921569,-1.1779995205017788,-1.3265487214557738,-1.2354483382722676,-1.3785572442587173,-1.2111145700708144,-1.2926279400154486,-1.2718958260319713,-1.3259839993367653,-0.46568020621594397,-0.6600289631915259,-0.4968048304775156,undefined,1499137442080
903d185fccf839df,-1.3514453953748171,-1.1246115941201198,-1.0595041718340907,-1.1117253895362966,0.8767824590874477,-1.7708517740614054,1.8372237980179162,-0.8580449749134043,-0.302661558138805,-0.6828956425734165,0.09320244266699193,-0.0025795942307751036,-0.8261196524064172,-1.168741184994695,-1.3191802914243322,-1.2010980066709074,-1.35603946788245,-1.2017988100819343,-1.2797258206303974,-1.2392203242968458,-1.3117061121143616,-0.46338446596669985,-0.6584012397361593,-0.4934889369001594,undefined,1499137443620
903d185fccf839df,-1.2267041985353992,-1.1011309357392796,-1.0429156365974277,-1.1050408513404821,0.8084237287609611,-1.763521656789044,1.8399246025087548,-0.8577323273641961,-0.30722002884950245,-0.6850726277400943,0.09351612756185076,-0.04390525471822808,-0.8304715352049912,-1.1761478511339765,-1.3233908201100326,-1.2213040851226165,-1.36595448974832,-1.2109245820096426,-1.2944471103601367,-1.2883259667712041,-1.3303404402393446,-0.47115560868768924,-0.6702018797975393,-0.5231602235503269,undefined,1499137445077
903d185fccf839df,-1.2391783182193412,-1.0981958607486726,-1.0499338825927045,-1.104859537051685,0.7024502040707181,-1.7460546926440836,1.8439455714809083,-0.8491135386314074,-0.3154957005511207,-0.6857569234563909,0.0935580628558964,0.002945922396989412,-0.9392686051693405,-1.1779995205017788,-1.3244434538919463,-1.2354483347391776,-1.3703055922244314,-1.2115135456609067,-1.2948809126711929,-1.293669227179518,-1.3317705912509767,-0.4709222753995611,-0.6702173300893022,-0.5231923805914677,undefined,1499137446575
903d185fccf839df,-1.1407710980027448,-1.084694457335896,-1.0288796528807733,-1.0874035611998125,0.756943829297128,-1.7425165782336494,1.8619018883860754,-0.6929953482106452,-0.327531166617651,-0.704244090705679,0.07406865110064285,0.11447257854332434,-0.847879066399287,-1.153927841384204,-1.2749697158370799,-1.1586652330895928,-1.29580401601742,-1.1803934600647827,-1.25043717004371,-1.2175085163387427,-1.286734571770949,-0.45308804399560737,-0.6608068578283746,-0.5066816881800561,undefined,1499137448071
903d185fccf839df,0.08030772189844447,-0.9402886508860654,-0.9216938365441626,-0.9651651202864856,0.18954362899273702,-1.7645045965136552,1.8573970271964362,-0.8689016004534635,-0.2311526470121736,-0.7983144015165881,0.056462472514287335,-0.0647526102617093,-0.7042669340463459,-1.0891194661236443,-1.2076012034896804,-0.9222541169711419,-1.121979030283617,-1.1047781131934393,-1.1829599256125969,-1.0493882897235378,-1.195101530264375,-0.39876137632222136,-0.630753075964355,-0.4746294109819211,undefined,1499137449577
903d185fccf839df,0.07199150408751101,-0.881587092617942,-0.7066838118539895,-0.7876207161434845,-0.1917985825008682,-1.805855580059715,1.884002775549948,-0.8467812118067254,-0.24025828168907953,-0.8097613114332958,0.04891698580666172,-0.00421931352189452,-0.4300983177361854,-0.9817227455878825,-1.1697064241519557,-0.6555338814085823,-0.9590448496412425,-1.0672617551973793,-1.1541960359701187,-0.904442722266462,-1.1378584020382985,-0.40284516563719824,-0.6210208506506293,-0.47992336733634794,undefined,1499137451078
903d185fccf839df,-0.6085417154446181,-0.8768909726329709,-0.7526205902839656,-0.7859050576792882,-0.8493940535478741,-1.7976356952082706,1.9210462363723888,-0.8004849033049726,-0.2426026027532609,-0.7085755963723206,0.08195530721466779,-0.04194709103335527,-0.5867660984848485,-0.9817227391124953,-1.1254958421227488,-0.5423798491451919,-0.9789019369473745,-1.049757498756798,-1.1301759845730412,-0.7138715602519989,-1.078865701090395,-0.41104917949426983,-0.6489764937214221,-0.49932208824265445,undefined,1499137452580
903d185fccf839df,-0.698632579828642,-0.8933273925803696,-0.7902633552325595,-0.8450541351269488,-0.7461050884367577,-1.7773852899764395,1.9105559466895785,-0.8381321369308906,-0.28726927238040234,-0.6763989638569808,0.0790259861476641,0.03805762875597121,-0.6607481060606061,-0.9974619060749595,-1.1339169160591753,-0.6514926551189698,-1.0746765961927418,-1.0333298430071332,-1.1214719516956455,-0.6530015057124614,-1.0560755944024156,-0.4194429643726023,-0.6688109869509633,-0.5158352400355171,undefined,1499137454076
903d185fccf839df,-0.9536593717544377,-0.8903923760457474,-0.8336480904164257,-0.875947482755255,-1.002311519118792,-1.7152598220143747,1.9103928978273106,-0.8063153567424308,-0.2794498334665591,-0.7146457550522678,0.0856987303824811,0.08171285839530745,-0.7042669340463459,-1.0020910859698526,-1.1549695659296315,-0.6211835321417709,-1.0712498766695893,-1.0195620237348528,-1.131827231615733,-0.6058360663277372,-1.0441840949812564,-0.4199023633900611,-0.6601150353026731,-0.5206568298585076,undefined,1499137455570
903d185fccf839df,-0.6917025133375632,-0.8117323078414969,-0.8208883824597757,-0.8644191036406402,-0.572348814737568,-1.7651451379604377,1.920099512363085,-0.6984641342095032,-0.4511518266630708,-0.6836832404170271,0.10172646626629969,-0.0041969639315355065,-0.8783422459893049,-1.0159785997529829,-1.1833906559546004,-0.4029578989956738,-1.0510498668444541,-1.0442921680753021,-1.1470452952174524,-0.4666187197958659,-1.029817868404766,-0.44924224607048874,-0.6323443499895168,-0.501263173665839,undefined,1499137457060
903d185fccf839df,-0.3313387797581897,-0.7436384511474465,-0.5873761713037814,-0.6367772740135116,-0.08548562676156213,-1.8047538503812688,1.8538704717506658,-0.9932275739750965,-0.44506357989384493,-1.0395142665628403,0.09783159620297334,-0.005448504569839362,-0.852230949197861,-0.986351912532001,-1.1823380258538034,-0.6131011290258088,-0.9815012886355294,-1.0227221611737283,-1.1347379053319224,-0.4923957169883064,-1.0222025862656365,-0.4278808123436167,-0.6161771370281973,-0.4991686935095881,undefined,1499137458559
903d185fccf839df,-0.6431920479000118,-0.8269946393366683,-0.4310631412741332,-0.4795763602704639,0.2693503465307082,-1.9060105371743585,1.8777043999208423,-0.8625726968759384,-0.25411154545325587,-0.8755598097333536,0.06720398680361861,-0.008603748831515315,-0.852230949197861,-0.9085818670758699,-1.1560221849870775,-0.10996973848080607,-0.851652610799186,-0.9743384715559671,-1.1193869019565226,-0.3728575847195379,-0.9778954351845591,-0.42432219716594194,-0.5666132999912408,-0.48428334794049893,undefined,1499137460120
903d185fccf839df,-0.7000185931268578,-0.8528233284820016,-0.4144746060374702,-0.42014765687066774,0.25341780706948824,-1.9632166527355333,1.9097643648480425,-0.7342173915952508,-0.34903321152847766,-0.5424191473654354,0.07831070978351129,-0.05119226398989011,-0.865286597593583,-0.8585868329975308,-1.0581273389781416,0.768994594674009,-0.520381831658475,-0.9264677497448948,-1.0561987039752683,0.7968853184515536,-0.6559777317894026,-0.4405417102338262,-0.4428558767426426,-0.3506131312651089,undefined,1499137461603
903d185fccf839df,-0.21075562281341928,-0.825233594342304,-0.33344710590501,-0.4275677793331961,0.14813340647823775,-1.9668875341705345,1.8946587653726856,-0.8054536848150116,-0.33519797230089876,-0.7156868164223948,0.052158340713868885,0.04225651757676057,-0.852230949197861,-0.8539576628157186,-0.91286399486979,1.0922918075042718,-0.41898667323805733,-0.8802182617311646,-0.9258481170613876,1.4372758706199635,-0.4564527045047303,-0.4487030309677635,-0.5297738697707433,-0.27527469910472935,undefined,1499137463071
903d185fccf839df,-0.09294435444344139,-0.6561731287433828,-0.3462073221355589,-0.37696315093181115,0.06797697753155539,-1.918863281144635,1.8921078560129492,-0.7822123467284133,-0.2910961617135473,-0.8923569805802273,0.03589867470950388,0.021956893520861172,-0.8783422459893049,-0.8197018345521675,-0.8886534583780604,2.625933308612233,0.1813292310551848,-0.8604848103286711,-0.8360930273250015,1.8587467216841616,-0.3295656117756411,-0.4298983458798578,-0.48213142593437475,-0.22301699540804568,undefined,1499137464556
903d185fccf839df,-0.23570386218130282,-0.7477475853622886,-0.312392876193079,-0.4429435696309714,0.18899848815398562,-1.8446304273566614,1.8756926039374793,-0.7883966670931211,-0.26069905299838664,-0.9428190340287299,-0.006390692290968263,-0.04910503928843484,-0.7782489416221035,-0.8326634942252347,-0.8770744978203603,2.902756408512683,0.2841495614886698,-0.8890653854658676,-0.8546975471830525,2.086997876461271,-0.3000378958548287,-0.43418581620179636,-0.3998609964687311,-0.08947956347090293,undefined,1499137466055
903d185fccf839df,-0.2925304074081487,-0.6966771636137585,-0.2562479247786638,-0.32045618117699703,0.11429347007346091,-1.8108797521635676,1.8415235376799568,-1.0104782696252312,-0.25006189186938843,-0.7744168881018255,-0.022313750819887724,-0.022867940848109936,-0.7173225824420678,-0.8391443402502364,-0.8191796876696258,2.5309645226041537,0.10667380183845997,-0.8634866261134447,-0.8102747953246379,2.3206384898639674,-0.21980598889435132,-0.4525092661463329,-0.496592997850526,-0.2665519354153921,undefined,1499137467554
903d185fccf839df,-0.11512056721489343,-0.5804481355297392,-0.21477734909785462,-0.33022826215486545,0.4770391458046825,-1.8705059465105593,1.874730100059872,-0.7147652411598379,-0.4132647788466813,-0.7800427199027168,-0.014543986480273772,-0.0018323351377019458,-0.7129706996434938,-0.7697067810476665,-0.8433902241613553,1.991462215577706,-0.15351703469528075,-0.8500797846529226,-0.8418374086326762,1.792040653089527,-0.34777443534044566,-0.44255770157463314,-0.5211616613296184,-0.16553931772690883,undefined,1499137469063
903d185fccf839df,-0.11789259381132493,-0.6180171246375002,-0.2983563842025258,-0.40818693108153625,0.7599678074580704,-1.9066021652250078,1.8909113022458823,-0.5342640846770649,-0.4684739780393761,-0.7041894565766879,0.011830921275266543,0.09793546133983166,-0.4605614973262032,-0.7706326189692614,-0.8370744509188083,2.104616466892688,-0.03585875430915884,-0.8364956208081902,-0.8655635944990003,1.6304031785902782,-0.38690961439127786,-0.39804960721609234,-0.60174760710959,0.20355905163971566,undefined,1499137470555
903d185fccf839df,-0.40618377390511823,-0.2816572384340219,-0.09164088126763356,-0.388887916837412,1.016133089310377,-1.8262876657049987,1.8764684017206246,-0.3126083341258872,-0.4261157163716341,-0.5850177583876353,-0.18014618324637904,0.06080213305180047,-0.7086188168449198,-0.7585967713162399,-0.8381270736573713,1.7833397435490748,-0.2922019168110518,-0.7930959569343765,-0.8575732350280915,1.565159956860806,-0.3830466452560704,-0.28791873916527455,-0.387805859967859,0.5816703409657477,undefined,1499137472070
903d185fccf839df,0.46423368154748573,-0.2951584957068368,0.3364645003357568,0.07909964970087341,0.44723119463890143,-1.7875361121656528,1.8701384506420846,-0.4838325844763685,-0.20232460947779257,-1.0166103218383,-0.15021693289699428,0.0015686555499821817,-0.8261196524064172,-0.6419416853247281,-0.8191796655829244,1.4519601911984734,-0.46082041139598384,-0.7147384447198823,-0.824107488666115,1.782847780633064,-0.29263329971075264,-0.34205663132655795,-0.4401187303856579,0.3476991545983813,undefined,1499137473574
903d185fccf839df,0.6042211626889157,-0.31746515331942654,0.46598082214430286,0.38402251811815263,-0.1027450209707005,-1.833522283361682,1.9078314577309798,-0.5079606924188954,-0.3527152714061012,-0.9780207898013774,-0.07148549308198802,-0.04833102104904014,-0.852230949197861,-0.5604683367476222,-0.7465479972098655,1.3610327798697943,-0.4938203931546102,-0.649692780070973,-0.8128426236317956,1.52946636076057,-0.31340624556628605,-0.3224965192811848,-0.5121237896254257,0.3454200382976024,undefined,1499137475055
903d185fccf839df,0.5307623198618419,-0.46480602014586797,0.44556447617542466,0.38989284005815233,-0.017106307888531014,-1.854515716834073,1.9270264094487197,-0.39119469303763316,-0.3236845452654483,-0.9918912505197129,-0.05623085887785571,-0.054459360569471135,-0.8870460115864528,-0.5762075166608611,-0.7454953671090687,1.3044557955359108,-0.500617202297815,-0.6508833733660525,-0.8135982791697745,1.5471437760252085,-0.3111219152117615,-0.3218261585253638,-0.5132311450714464,0.3405056258984418,undefined,1499137477033
903d185fccf839df,0.6139231867656064,-0.1296201493246362,0.2988222436610617,0.06989830863361715,0.03000218633211976,-1.6916762714692672,1.8566370176617686,-0.2896032764000205,-0.21643187275124703,-1.1795585781535003,-0.35234751694258704,-0.010897728091089638,-0.9088054255793226,-0.3558590691047773,-0.5012845652965688,1.268084751863219,-0.11821778200418112,-0.45045204043732084,-0.6524687218455649,1.4929258484106882,-0.17620911575435372,-0.09980029399545928,-0.7871607818561894,0.07987774916084409,undefined,1499137478111
903d185fccf839df,1.0782382627652587,0.0805313661427822,0.4130263059929491,0.15120708751725723,0.19812189988670603,-1.5975587032263836,1.799838466935289,-0.41206112912331394,-0.3879184409234594,-1.2969856162067768,-0.34230419808468937,-0.03288588551062004,-0.8957497771836007,-0.26975649206737384,-0.5560214704204454,1.2034254138766363,-0.17942586757754808,-0.3283338879823248,-0.5864538111690621,1.5844388042591957,-0.08576427724286255,-0.1917114253973881,-0.8072847248777181,-0.17057270595789012,undefined,1499137479568
903d185fccf839df,0.8578616652732178,0.11927444370277078,0.09593455145838471,-0.23352275738493455,-0.33026464424687124,-1.6370346493003747,1.7965880298542225,-0.6476110808067441,0.2993601135507141,-1.4265150482330748,-0.31376380112654484,0.016428653802239554,-0.7173225824420678,-0.3169740059055413,-0.653916327472732,0.48408890087072687,-0.2770343436944753,-0.421352164765688,-0.7070718354074825,0.6042199644235068,-0.38429520900272707,-0.15290460065787825,-0.4512794188569856,-0.5399662038838681,undefined,1499137481066
903d185fccf839df,-0.5336968938247383,-0.8481272084970305,-0.43808087899551096,-0.43233109477680104,-1.18971691778133,-1.9338565923559226,1.9174749527935395,-0.8619403881190153,-0.07776137403582291,-1.2161764424155679,0.06163049090876453,-0.07263066499001991,-0.7826008244206774,-0.3095673737620429,-0.6465478873182191,-0.017021802334575706,-0.1981460139832583,-0.5083921426234699,-0.7953645920560181,0.016522896624444415,-0.5758160023533914,-0.02471576023446029,-0.28583956164924607,-0.2645509391836677,undefined,1499137482566
903d185fccf839df,-0.8760425062854216,-0.9150469913528495,-0.5133664088926989,-0.5496944746977812,-1.5616065757511177,-2.015291453579907,1.9562645915931018,-0.8579956375159897,-0.2917793947030541,-0.7157587694021527,0.08258592497017644,0.03236807543329016,-0.8000083556149733,-0.4502940708795631,-0.7844427986342916,-0.3382984408840244,-0.2461628788027825,-0.5289678762437496,-0.8439574429277813,-0.1401254897083668,-0.6312293062375569,-0.015485711264581845,-0.24548739107790035,-0.2384397486890261,undefined,1499137484068
903d185fccf839df,-0.6348760026161271,-0.6508899937602903,-0.2166910003270128,-0.3443022186930062,-1.263917931147522,-1.8624071799819042,1.9050832926847951,-0.8325682569428475,-0.017085932925313064,-0.7943677035283128,-0.05369210911344563,0.022338100293993537,-0.7564895276292335,-0.6049083432963925,-0.8128638739347929,-0.3160717422213287,-0.5455868826458354,-0.6629982945378534,-0.9161295477813493,-0.15530835523561667,-0.722234270032157,-0.30818207334043257,-0.3170622008713996,-0.3146731298681216,undefined,1499137485559
903d185fccf839df,-0.08324215783970192,0.6511106457885869,0.1769615433169461,0.03774670533413325,-0.7498902236825848,-1.4745213000119433,1.784356790375565,-0.5524006342227469,0.2960743662499139,-0.8736507354726533,-0.29596291673084846,-0.051789624052761614,-0.49102467691622104,-0.6623100483705536,-0.8181270502065952,0.19716260452190906,-0.48556127076791156,-0.6894003377199638,-0.8466861979952097,0.11029943737547898,-0.6631594366508704,-0.31748842619360346,-0.2833025015262057,0.4055773344425234,undefined,1499137487068
903d185fccf839df,0.022094921835514723,-0.11964086512858027,0.48512140062707565,0.2957349580672316,-0.6056024661310792,-1.2798691077336546,1.7806435110274625,-0.2370395699947661,-0.07988951332859177,-1.0342950822776937,-0.3109939696885755,0.10252861213726927,-0.42574643493761144,-0.6113891957967815,-0.727600614903237,0.6740261337102272,-0.22302571451031492,-0.6463743182484194,-0.7913134359280856,0.5200520733532387,-0.5440916408435567,-0.32581120998828655,-0.2442445706294794,0.6222145533621678,undefined,1499137488563
903d185fccf839df,0.12743203601614111,-0.2065190848505456,0.3945238653901785,0.0744458167455634,-0.5573111195177252,-1.287686034320462,1.7581507773861367,-0.34943259908974206,-0.2337484938188694,-1.335477080716034,-0.3055314364797248,-0.007929719078327332,-0.19509664661319073,-0.557690803556676,-0.6391794618881738,1.3610327516050729,-0.18107652692104118,-0.5439706187524515,-0.6965976069742823,0.8880903161475211,-0.3872888696656922,-0.3825012019802145,-0.465277781321991,0.5611811543065999,undefined,1499137490063
903d185fccf839df,-0.30223243148483947,-0.24291424855801033,0.11060892719199067,-0.12740306894956446,-0.6538012410009647,-1.298603181718886,1.76039400759704,-0.552001030403469,-0.38013145140898236,-0.8908613364020332,-0.19770406248699315,0.11034125564850786,-0.6041736296791445,-0.5484324631930517,-0.4939161472287573,1.397403653954157,-0.25437135395849714,-0.5659079363873137,-0.62061923640433,1.2488142979606212,-0.2993820226695752,-0.4095057618739087,-0.512493666289597,0.39045332479886374,undefined,1499137491574
903d185fccf839df,-0.08047013124327042,-0.17305922995762651,0.02192504318425166,-0.1892277744212051,-0.7444490873985709,-1.1522710585494673,1.7119740175146276,-0.45386714300652214,-0.6106251527316959,-0.8644105779007716,-0.11207597308116972,0.0014581341133862787,-0.9044535427807487,-0.5845399996767288,-0.5939162276714687,1.466104394884862,-0.20187750433211302,-0.6173821023867624,-0.6534762597857242,1.2770088506304105,-0.32239557434765226,-0.4018798602055683,-0.4577741194320206,0.3888802375017473,undefined,1499137493067
903d185fccf839df,0.3422643387774509,-0.362665191262804,0.06148196763590268,-0.002489027216172472,-0.5284391653180635,-1.1254848079916873,1.7068774657347345,-0.5025032203353439,-0.6711758544535249,-0.4717300446489724,-0.018303155734327153,-0.01771791934889248,-0.9610280191622104,-0.7039725735314759,-0.8139165077167065,0.9286226480068674,-0.41700895767269014,-0.680192236749316,-0.8251290217389418,0.9245230348290183,-0.4741138930156578,-0.4184426372650198,-0.5334602166268232,-0.05228009624213921,undefined,1499137494598
903d185fccf839df,0.5848170110193048,-0.33155351327433985,-0.10822941650429656,-0.21454192125835167,-0.3888828268678531,-1.2400857066385402,1.7174834767214018,-0.6600807228113863,-0.6547381984441839,-0.8403792199784995,0.009124635853281854,0.06269437282508737,-0.9218610739750446,-0.6900850435598775,-0.7949691217289612,0.7366649398130783,-0.5421661030109424,-0.6869748194056561,-0.8190627879078067,0.6059445968561733,-0.5314539448296425,-0.43145333470825487,-0.7739524797730474,-0.2037685935293165,undefined,1499137496076
903d185fccf839df,0.2646474905611395,-0.47243722973544217,-0.06739672456654007,-0.19238537038032136,-0.1504192289365734,-1.2682462080711951,1.7249836772472418,-0.6555613343525664,-0.45575617892989945,-0.8301843765706152,0.02055043951559131,-0.03504473936974336,-0.7913045900178254,-0.6086116820319971,-0.7265479884835571,0.7427266767878814,-0.543484133623108,-0.6738466275444525,-0.7166154832166599,0.8380915593812536,-0.450330025011047,-0.4351422589277099,-0.7905113817837676,-0.2977088626264721,undefined,1499137497569
903d185fccf839df,0.18010061035915917,-0.4219538229850335,-0.06739621629264123,-0.22222960505686346,-0.44331474147896127,-1.259204099435059,1.7145933143346808,-0.7693766820849822,-0.4901366127846619,-0.7852527810708683,0.004470141270616291,-0.021746035755184242,-0.6259330436720143,-0.7132309138951003,-0.8265481278241387,0.4679241653006065,-0.7365366562862802,-0.7391962735618535,-0.7935384224413945,0.4129096857781233,-0.5935041705257142,-0.4355879909696455,-0.7082586723643057,-0.4095210747747034,undefined,1499137499059
903d185fccf839df,-0.3188647290850674,-0.48593857469223406,0.05829178650979074,-0.1846218364734277,-0.8206146796078992,-1.2131177711986552,1.7504086391317284,-0.5309774654525468,-0.4379451612392269,-0.5116031788653322,-0.08741018609128329,0.029948643726137966,-0.6085255124777184,-0.7391542591427837,-0.8002322722329452,0.33052273996863984,-0.7835731947021137,-0.7263024006277866,-0.8353093837850004,0.4320191536825682,-0.6030312365128475,-0.44322940342378886,-0.7005812553775786,-0.43134749038861525,undefined,1499137500577
903d185fccf839df,0.25217340538260746,-0.25465443160846873,0.29371815716884214,0.18594783576304455,-0.5321523045336236,-1.3639173751924563,1.8150676844575464,-0.4271292482447696,-0.7375144450557523,-0.14369571453992835,-0.07324632661495434,0.02135114332679907,-0.6302849264705882,-0.7030467356098811,-0.7918112093398693,0.22140991986250108,-0.7896843428405942,-0.7162266879789694,-0.8632406530004416,0.49487560715964657,-0.6009642411365936,-0.4432853202901262,-0.6583516354307172,-0.4085649710474739,undefined,1499137502072
903d185fccf839df,0.3755287614508581,-0.3497510366720875,0.6695069063639314,0.6127537318139755,-0.2899447127363039,-1.5396561451594561,1.848326831383995,-0.5554468557308873,-0.736228841432361,0.20511565117405103,-0.024688136703821736,0.10434646272159755,-0.4866727941176471,-0.7428576108291629,-0.8423376014227923,0.294151752825391,-0.8292520682820976,-0.7424640742046807,-0.8781578546153208,0.41115425467753924,-0.6345121129844651,-0.4656586511023535,-0.5753944044005371,-0.4147604211495574,undefined,1499137503554
903d185fccf839df,0.2577175620916997,-0.4366293733060222,1.0503994879142908,0.9686796960065512,0.019150767192252616,-1.6358537251886174,1.951551975406074,0.014754503918585125,-0.6594475402133262,0.22445222307227825,0.06924952087667217,0.058998116436467754,-0.865286597593583,-0.727118405014375,-0.9591798665495257,0.11835897805477302,-0.8883864552828513,-0.744851595537934,-0.9634209917260607,0.15261435444970514,-0.7150968233308466,-0.46872398095074363,-0.5312040007736617,-0.5475636096359238,undefined,1499137505054
903d185fccf839df,0.0595172463819303,-0.34329381323676755,0.4608767356520833,0.52500618274842,-0.24452307706306445,-1.6690220930136226,1.9011306975551743,-0.4270365430955017,-0.5483777974005839,-0.050646911513627074,0.027964179608934547,-0.040170218410681996,-0.852230949197861,-0.7373026092011432,-0.8739166222424375,0.21736862997726525,-0.9046962226092591,-0.7344908999031874,-0.9192221372835154,0.25635368235023687,-0.6763076114879878,-0.4704313550124693,-0.5365002086880426,-0.47093143751094396,undefined,1499137506560
903d185fccf839df,0.09555379916799828,-0.13255525354323547,0.17568577583084063,0.10291952066579342,0.011241068468269033,-1.661698965184492,1.8936567961114927,-0.32184861169398987,-0.5368040184109286,-0.2826903338490066,-0.011983349060000916,-0.09317995381925699,-0.5824142156862745,-0.7261925735681675,-0.8602323573097409,0.15472988040385724,-0.8795165954546689,-0.7405831908903386,-0.9074535015112857,0.39165982419646994,-0.6512936728875873,-0.4608139113893543,-0.5358155857818644,-0.4612943867400299,undefined,1499137508063
903d185fccf839df,0.024866844915717026,-0.21356344019595627,0.23502116250831717,0.24050286082358266,-0.13103069168749465,-1.6850472608258034,1.936117641593826,-0.11988387388447586,-0.3190364319511062,-0.8789889991307632,0.06597355735670707,-0.007030181184134646,-0.7434338792335116,-0.7178601035030743,-0.8044428147228339,0.44569732531430317,-0.7135106087298178,-0.7357194895536784,-0.8327695415407566,0.7197391041674324,-0.5579735174394588,-0.4471478812660832,-0.5192375648952201,-0.2533181426070638,undefined,1499137509602
903d185fccf839df,0.009620767646163219,-0.22765171246689256,0.7779687443235971,0.7569662114717473,-0.13794267625634493,-1.646861712574503,1.9156630124457175,-0.21729110411402164,-0.44984205021153484,-0.6905102947149705,0.1761647107398653,0.008981453297678804,-0.8913978943850268,-0.7039725864822505,-0.7433901289941764,0.32041968484387945,-0.6018899313251855,-0.7288102472708038,-0.7564833120935656,0.6400829503163543,-0.5420889618689646,-0.40702921968383476,-0.5351351593448089,-0.307873799600975,undefined,1499137511079
903d185fccf839df,-0.015327471721720323,-0.32392237675474644,1.3158122396466574,1.396913656508956,-0.37650913014574594,-1.6466101548531369,1.8724894834158445,-0.5944957516619068,-0.5540404310248624,-0.054267894682090485,0.2017519831530154,-0.03978100871564545,-0.9175091911764707,-0.6937884146724186,-0.7476006641218313,0.2638426157158314,-0.5373743895520976,-0.7136238468375181,-0.7729188204269202,0.6253774339593268,-0.5492335142597172,-0.38676488286901334,-0.5108316310581379,-0.24528452039862725,undefined,1499137512559
903d185fccf839df,0.19673290795938714,-0.365600353937388,1.3655770829457983,1.5046600931130996,-0.150213507467843,-1.692924746179872,1.8427726854212532,-0.8201652312959473,-0.6150704899061031,0.9369406963701444,0.1303305259369023,0.01962218345847551,-0.8826941287878788,-0.5299157954165775,-0.8128638923403774,0.07996731770418475,-0.5604199140464532,-0.6617633708584986,-0.8084976037776431,0.4615995693503818,-0.5690093415994292,-0.40044870926723686,-0.5022482487169645,-0.31428051261907036,undefined,1499137514065
903d185fccf839df,0.518288338199539,-0.2763740742229371,1.3898217479207906,1.5400074525087246,-0.04868339704843452,-1.6758886893997362,1.9069320659939348,-0.33501777319441844,-0.6677319244786917,1.0410746663340256,0.14083444680178903,-0.021817660866351892,-0.7434338792335116,-0.5049183075166507,-0.8097059799512855,0.15877111375965,-0.5665334816385219,-0.6284964181142619,-0.8382620369962283,0.4371622369521552,-0.5677906245346701,-0.3953856780513867,-0.4300534414783643,-0.29223297393951353,undefined,1499137515578
903d185fccf839df,0.1939606743304972,-0.48946078159293177,0.9042951391429807,0.9314974277503201,-0.32197437062139367,-1.6767505091235486,1.9629416798714079,-0.09095221018061037,-0.5189121321036567,0.4190102509227752,0.15762712278958435,-0.09477551930120379,-0.5388953877005348,-0.5160282913465283,-0.9202324350243029,-0.05137217279992814,-0.7411846449044346,-0.6467732933180652,-0.9221048214500663,0.0848150075905738,-0.6762941409998849,-0.3556058117557065,-0.37866265371192254,-0.4488055590825698,undefined,1499137517073
903d185fccf839df,-0.18164927454006902,-0.5681207913411976,0.15271738661585263,0.12944566156271653,-0.6900994744659644,-1.6396620322670603,1.9409906878386372,-0.29520594343300044,-0.4259910659987647,-0.13434559584062497,0.11002116481276825,-0.11328796702221053,-0.8043602384135473,-0.5030666251980739,-0.9665482698928697,0.10219398810215885,-0.6750067890551881,-0.655012453922682,-0.9670033578489019,0.1395102838637485,-0.6870627950579151,-0.40996899041839796,-0.41474369265409217,-0.41575700678549193,undefined,1499137518593
903d185fccf839df,-0.4200436998548173,-0.7001992828304792,-0.29070025446419645,-0.20624861523892268,-0.7336079734228125,-1.6553191810103802,1.9343478011469022,-0.41959728279251474,-0.35487625081912416,-0.5489237706454676,0.05747221499855792,-0.014101531776131444,-0.9653799019607844,-0.6410158668292951,-1.0044430713172958,0.19110081101766296,-0.8604450585086691,-0.6931241086299536,-1.0100547358459733,0.1709077123382397,-0.7105598859289086,-0.4376611754883437,-0.4960683329568698,-0.4139376189436699,undefined,1499137520079
903d185fccf839df,-0.40341154027622833,-0.6479549479976757,-0.21541523284090736,-0.14733060600758294,-0.7319519755694549,-1.650877320922667,1.924170447077287,-0.47667245492592053,-0.3297679089242283,-0.6054988787149347,0.0851739440487278,0.05611672427268801,-0.8609347147950089,-0.7076759122670806,-0.9739167026851487,0.44367682169529293,-0.7470830371023033,-0.7289179068814595,-0.9984050457485398,0.3602623974586167,-0.6838135606064828,-0.44796257389724203,-0.5504223378970343,-0.3743953863109522,undefined,1499137521567
903d185fccf839df,-0.4477639658191324,-0.7072434628079358,-0.24093566530200514,-0.2603788762031028,-0.9108922422564707,-1.5851345443488072,1.8647657626896166,-0.7790838200461421,-0.3653671652902823,-0.6590272973003939,0.07769337241029182,0.01996663965803009,-0.852230949197861,-0.7493384503787773,-0.9202324092564846,0.4820682559281089,-0.6874603625968454,-0.7608549416859839,-0.959964566938885,0.5908387170000102,-0.6406390070731306,-0.4738873909880651,-0.6107772606862454,-0.30690964624272776,undefined,1499137523077
903d185fccf839df,-0.4754843007942669,-0.48300349970162715,-0.2817683572397616,-0.2603788762031028,-0.872639734336241,-1.4419049642785335,1.824669112092384,-0.6978711678102066,-0.07723632993832508,-0.8615599946762721,0.03131573530516296,0.09454004235239868,-0.8609347147950089,-0.7650776238166289,-0.9244429333407888,0.49217142411175546,-0.6010663217906859,-0.768283484331658,-0.9540172779445089,0.6173856359801219,-0.6359447770315992,-0.4674415985627868,-0.6429403113159613,-0.2853897242921583,undefined,1499137524570
903d185fccf839df,-0.4103416757781265,-0.7806204544850787,-0.5401626088399022,-0.4832000848242733,-0.8833882858609508,-1.3200578030931374,1.783283852560355,-0.7557139539664232,-0.11644155251054915,-0.8220262096231424,0.05079687903781434,0.0029532126841317224,-0.8261196524064172,-0.8030368037665593,-1.0012851810149053,0.36689372711188867,-0.6768470347274288,-0.849547817976445,-0.9937101858521524,0.22424792600448293,-0.7602173508321279,-0.44575052965973055,-0.6094625058231004,-0.2875581386244394,undefined,1499137526066
903d185fccf839df,-0.6140858376483005,-1.04829952745237,-0.8291823959411578,-0.8877010584714726,-0.7084491521990858,-1.2800507881380467,1.762337438118044,-0.8080393289012522,-0.17035704038515453,-0.8238124410190205,0.08487659674825253,0.0425528417467936,-0.8130640040106952,-0.863216003179343,-0.9854956669239658,0.44973850214065286,-0.5018484543634689,-0.9366447923882266,-1.0371253974275734,0.04978354227516158,-0.8505013266355511,-0.40215493260846713,-0.5029507723511337,-0.18824315277017287,undefined,1499137527592
903d185fccf839df,-0.971677613642062,-1.0976087872945666,-0.7966437174847834,-0.8316619377694248,-0.9310110654656635,-1.3371730519943372,1.7519234017367011,-1.130387271729334,-0.2832386534574171,-0.6865117822740283,0.09737433820006434,-0.020048538069174584,-0.8826941287878788,-0.9520960616045945,-1.1244432046597181,-0.37062818053911967,-0.9929050126205525,-1.0353690503729533,-1.1279370058816056,-0.42645957886453284,-1.0208237046564066,-0.40310516041047006,-0.5016372301755705,-0.20249528184913465,undefined,1499137529052
903d185fccf839df,-0.957817411649085,-1.0676710223903758,-0.6811633793928917,-0.7722590046396977,-1.1349970091145674,-1.4209557865981812,1.765001426407913,-1.220938985201509,-0.14951936965289744,-0.775414025412821,0.045359439750058135,0.10316856929887398,-0.843527183600713,-1.0770836289931272,-1.2349696634138525,-0.8596152967359301,-1.120564218567713,-1.0748992847463308,-1.2096457631526323,-0.869888610684995,-1.153082335889674,-0.4334569440902796,-0.5973695734202519,-0.4288156697965955,undefined,1499137530552
903d185fccf839df,-0.7914956778415558,-0.5205725764933653,-0.47955196295021907,-0.6933596263495662,-1.2129111647831237,-1.4996910617101236,1.8215080726162542,-1.0065752726995711,-0.14263181239335776,-0.7812647213978652,0.0014198546410188137,0.3481475426244726,-0.45620961452762926,-1.1233753194793212,-1.2570749581095728,-0.9101304734332066,-1.1734377972534868,-1.1099267965581856,-1.2314128416492824,-1.0033777342050036,-1.2013908671068894,-0.45706574334625494,-0.6610007606600031,-0.5110890744348134,undefined,1499137532209
903d185fccf839df,-0.6293319149178543,-0.5516843713937988,-0.4144746060374702,-0.6329024276454697,-1.424981666682362,-1.5161587845940616,1.8381521149742575,-0.949514596517977,-0.20337638404707956,-0.7037144870249885,0.015617802092181469,0.23680796879967028,3.0601116867201426,-1.1400403308387674,-1.2581275882103697,-0.7201933253878708,-1.1491480471154278,-1.120610471943986,-1.213354072709291,-0.8913540432467114,-1.1800850737521176,-0.4505816825018911,-0.6474035693137428,-0.47355278686922875,undefined,1499137533563
903d185fccf839df,-0.2869862852044662,-0.4301721498707023,-0.4935879466668734,-0.552639568920611,-1.0288691844869755,-1.5057843509132944,1.8823170793861639,-0.5013885128480186,-0.39564955309169614,-0.5364521294364248,0.035917959962923476,0.40261565948167494,2.781591187611408,-1.040050275632864,-0.7360216998830142,0.20726565964666946,-0.6352019923411565,-1.0653618710698785,-1.0027220779615769,0.4772135900308214,-0.7831446219320756,-0.4278072482705192,-0.5455301756439924,0.5856059275698257,undefined,1499137535060
903d185fccf839df,0.3076139200585327,-0.5135283965159086,0.03659916478090819,0.0007127582762646068,-0.829018093358138,-1.4027667599256737,1.8469146232576907,-0.4358831378560402,-0.6594294994886298,-0.48532524493340123,0.11399752611258632,0.3121208108539268,0.005089962121212133,-0.9048785315779588,-0.7612848775188913,1.9348854149645125,-0.10055866881996929,-0.9627238526301636,-0.9307318912612883,0.9903975806922477,-0.6008761264732507,-0.45210040542639834,-0.6256150242124653,0.38732817801910163,undefined,1499137536549
903d185fccf839df,0.11634392963041508,-0.4031694015011338,0.5718908709948082,0.42944976445870675,-0.706402299268634,-1.458062898415809,1.8096371261635735,-0.7307272539787139,-0.7091676913881004,-0.49876888547998394,0.13448584781606257,0.057210740516072486,-0.4779690285204991,-0.8576610047890169,-0.7823375310704641,1.5731966265778259,-0.21479969420486641,-0.8739739799407293,-0.8783817524838525,1.449563823812664,-0.44473848322140636,-0.46135303177777126,-0.7993238464085428,0.18070530992892994,undefined,1499137538075
903d185fccf839df,0.28266569794335406,-0.30455076490477134,1.0995261933334295,1.0375574184720784,-0.4308896174719742,-1.5145026947286937,1.8825221967236758,-0.28973563902458765,-0.4063013512573573,-0.13829517813390008,0.13496249166318314,0.044153613422053054,-0.8304715352049912,-0.7947042883737552,-0.7802322487821691,1.5267224712509304,-0.31822159326656496,-0.7950021722448949,-0.7295525891946748,2.1463434804859887,-0.21393430786500547,-0.4994788695719777,-0.9796729482218431,0.3319550284727543,undefined,1499137539558
903d185fccf839df,0.3741426791418229,-0.49356976966781213,0.2656451731877357,0.18422113452475716,-0.2023722838016496,-1.5743222140484434,1.8792954210648907,-0.4224950705679545,-0.27020656485381866,-0.14996269814030067,0.09217917705779739,-0.029521632242194902,-0.9262129567736186,-0.7854459609609054,-0.758126979854267,1.2276726726877851,-0.49385030469016705,-0.7690814343823629,-0.7936223864229931,2.1084325083087987,-0.22813831005442659,-0.4926472650622978,-0.9800952965912361,0.2860569338006939,undefined,1499137541087
903d185fccf839df,0.3311761978863151,-0.39906035497026876,0.2343827704913656,0.22570519728975455,-0.14331181013843297,-1.5866858168406746,1.9023535619271392,-0.2570403028538944,-0.27091923792043127,-0.2548703968261955,0.033993189098216164,0.006238286017087014,-0.8609347147950089,-0.7354509204071791,-0.807600749198627,1.1266422344990672,-0.6229819203934438,-0.737993013482479,-0.8131015074142975,1.770990976764373,-0.3009730903729445,-0.47862274018318257,-0.9255508723264027,0.14564827589974574,undefined,1499137542711
903d185fccf839df,0.3478083574649041,-0.3474029182236173,0.26436940570163026,0.2726190856715803,-0.12880897502959732,-1.5726824308278122,1.933961198563549,-0.012501022570991473,-0.29271741215112324,-0.31342607652974247,0.042316321483782365,0.04420079220192583,-0.9566761363636364,-0.7271184244405368,-0.8086533792994238,1.1286629359711282,-0.6574454416316281,-0.7219769989832581,-0.8289842690035627,1.6453550582814636,-0.32979915931609816,-0.4585425766233792,-0.8821095945794305,0.07771331089031858,undefined,1499137543635
903d185fccf839df,0.10664183654290482,-0.41549677491766757,-0.06994876781264986,-0.09403295944411738,-0.3591571613283929,-1.5618374934426242,1.8705381692458187,-0.5107274380983322,-0.3335923197867018,-0.48027264179886603,0.05933016292577247,0.11195673222457599,-0.8783422459893049,-0.7113792574780725,-0.9697061896441953,1.0114676208886824,-0.6180800897628594,-0.7498799489088971,-0.8931100394526629,1.2056832484153523,-0.455493350636244,-0.43902934901386237,-0.7912146015305013,0.0162548460078511,undefined,1499137545057
903d185fccf839df,-0.3313387797581897,-0.6843498194252171,-0.22753756532840352,-0.3121128009954927,-0.6323658453880187,-1.5978824711222634,1.87641579308109,-0.6609569064002786,-0.3447188585911724,-0.8232349136425613,0.07301268689927129,0.10267564171835057,-0.27778241978609625,-0.7882234617749152,-0.9665482809362204,0.8033449227422792,-0.5463237473882818,-0.7917470396985521,-0.9409402389175981,0.8458215777163699,-0.5728805687947258,-0.42993055432293803,-0.6594151550812443,0.14121463493511005,undefined,1499137546504
903d185fccf839df,-0.5198367953479904,-0.6368016630333694,-0.3340849896480627,-0.319085169011394,-0.9364213399973483,-1.5640386259001808,1.8337945301112353,-0.9813013785094548,-0.2920537247129278,-0.773710308874229,0.13439660522813818,0.15004957385729914,-0.4823209113190731,-0.8965460064720738,-1.0265483623318992,0.5548102726116889,-0.6170674320578411,-0.8710228275558847,-0.9940040521842408,0.39390800334351644,-0.7260214636229272,-0.4257435510549761,-0.5206213615514255,0.2676072716459234,undefined,1499137548002
903d185fccf839df,-0.596067630266086,-0.6761316679075023,-0.2039307840964639,-0.20316306069967582,-1.087271373415698,-1.5988607523240426,1.8838002927297477,-0.7692570610857028,-0.300753498781273,-0.6630065306488127,0.05853551886795831,0.06934100247040326,-0.7608414104278075,-0.9308018735879486,-1.1149695079847286,0.19716264691899135,-0.8671675741179292,-0.8948600277126147,-1.1009992836454916,-0.02639256006450838,-0.857819959799711,-0.4408177146781077,-0.6383576263631296,-0.4307073188972086,undefined,1499137549512
903d185fccf839df,-0.4463780215317361,-0.5622506413599838,-0.02401198938267381,-0.10079943685862784,-1.0470645866070836,-1.4750523715803958,1.849252528488329,-0.6845429579284068,-0.2647006915611862,-0.7343780633018943,0.058771501331384646,-0.0043698789990181805,-0.7608414104278075,-0.8752518508323645,-1.0707589296366387,0.6356345581538037,-0.7124111596552499,-0.8068574440381124,-1.0583817089993768,0.4460317437235726,-0.7203519134134019,-0.41038911200091094,-0.23986790077328415,-0.16355630245989913,undefined,1499137551894
903d185fccf839df,-0.32025063886705396,-0.5510973563956775,-0.08781307053541831,-0.18303384653258464,-0.8904031368926584,-1.4270304467041857,1.8498889440690967,-0.5458048677512625,-0.23415227066996122,-0.7825956465908096,0.04032530164179315,-0.046333334276656174,-0.8391753008021391,-0.8854359902652599,-1.1044431738467084,0.4800477381767379,-0.7544159214127166,-0.8233484296176545,-1.069611590450327,0.3457570654561138,-0.755194571898043,-0.4063096902358948,-0.20112456739781182,-0.14654328416952916,undefined,1499137552511
903d185fccf839df,-0.3410408728457,-0.527616756470822,-0.4923121791807679,-0.5445550205722195,-0.9903183959838364,-1.42553274386434,1.8355670207882977,-0.6677191279238662,-0.13117365689848554,-0.8159404733719607,0.0708186103194273,-0.058725384546244784,-0.6520443404634582,-0.8780293386955997,-0.9833904104034891,0.328502151555465,-0.7865647018205894,-0.8405740368464839,-1.0058146684730582,0.32130433437011924,-0.7435174374092439,-0.4295446240071027,-0.18730402083341213,-0.21018393748385059,undefined,1499137554026
903d185fccf839df,-0.19135136762757926,-0.2223686651677771,-0.5848236197837727,-0.6577448853926152,-0.8656248876156561,-1.5510670914224707,1.839927232835979,-0.7804989406395888,-0.23481457820177956,-0.7989048348062948,0.040894075032658087,-0.0434010196008911,-0.6389886920677362,-0.8271084990726022,-0.89917978147273,0.46792405224172035,-0.7144531183606366,-0.7766556358399501,-0.9170041473914543,0.4200545657845064,-0.6583869438348563,-0.4129436629581081,-0.2123402215385757,-0.28632858866171457,undefined,1499137555534
903d185fccf839df,-0.2592659847347414,-0.2634597734922589,-0.6684036714362417,-0.7097203457755595,-0.9049265364797696,-1.549557743625563,1.856944710428385,-0.6868712775148997,-0.20110947276900695,-0.7316432229939669,0.020438833716462525,-0.008537045182141574,-0.6868594028520499,-0.8002592900017749,-0.9054955841642123,0.46590343556382396,-0.7566431890388207,-0.7724695600858041,-0.9083560891478814,0.46839028564999285,-0.6449910075237885,-0.41867135692779517,-0.21356086438982277,-0.3194684634567758,undefined,1499137556997
903d185fccf839df,-0.5032046702748112,-0.5927754797182806,-0.6435206144442978,-0.7249686132317826,-1.058965134767729,-1.7313921306989766,1.9209646972759498,-0.6701587170946851,-0.24688557053360832,-0.7118951801847868,0.060436384930466054,0.04315994036620662,-0.5519510360962567,-0.748412599506408,-0.8160218047294692,0.9306432364200423,-0.4193236488084758,-0.7473087747614025,-0.8344137922925218,0.8298533949850222,-0.5385839908625802,-0.3975145067369204,-0.18055924811366184,-0.17157304033320658,undefined,1499137558525
903d185fccf839df,-0.45192204021918936,-0.5734039263242902,-0.3761939573458235,-0.4051260818206203,-1.0362954588270306,-1.8335316005514093,1.925506377809123,-0.773443267579928,-0.3759527929602506,-0.8014851946904342,0.026928543780157375,-0.01865603316108027,-0.8000083556149733,-0.7956301392461246,-0.8276007505627017,0.9569111119090877,-0.5418013574782332,-0.7951921616680866,-0.8584058567213602,0.6392514378566916,-0.5962867100803545,-0.391502898599641,-0.31461727460007255,-0.1693587133468503,undefined,1499137560008
903d185fccf839df,-0.2828283143206384,-0.5328998622259221,-0.05144658134682866,-0.12252838428093829,-0.8694511686384158,-1.8323040912611617,1.9296904019286758,-0.6864570063433628,-0.42789788185942496,-0.6916002241805722,-0.058058786003862495,0.09951039827190365,-0.7347301136363636,-0.7595226092378347,-0.8402323338589649,1.106436152514268,-0.4451578678612488,-0.7499622783172564,-0.847497827928446,0.9948477391670525,-0.4889829057968413,-0.3920031627344732,-0.5808420510328506,-0.22974069494264235,undefined,1499137561532
903d185fccf839df,-0.1899652680658392,-0.4783074089446484,-0.28878660323503824,-0.24671834811968468,-0.9451333295240082,-1.7639642132814914,1.944220086491994,-0.4844383674914467,-0.5611831380030471,-0.6656008778695744,-0.045439925855914054,0.10673220483382456,-0.5954698640819964,-0.7872976303287077,-0.852863953966397,1.4418570230148269,-0.4047521827469793,-0.7945272031467003,-0.856096909070886,1.6017004713242704,-0.3825700102577515,-0.395448687787669,-0.6778071284960887,-0.12986635511632938,undefined,1499137563008
