UUID,iqrAccX,iqrAccY,iqrAccZ,iqrAccXYZ,meanAccX,meanAccY,meanAccZ,meanAccXYZ, covarianceAccXY, covarianceAccXZ, covarianceAccYZ,pressureDerivative, pressureIQR, iqrGyroX, iqrGyroY, iqrGyroZ, iqrGyroMagnitude, meanGyroX, meanGyroY, meanGyroZ, meanGyroMagnitude, covarianceGyroXY, covarianceGyroXZ, covarianceGyroYZ, class, timestamp 
903d185fccf839df,-0.5683473125436563,-0.3051378383588774,-0.5452666953321218,-0.743887563622165,-1.3188285997993818,-1.372044944102254,1.7772960203855843,-0.9366907984817455,-0.19290978230753045,-0.7386989118323039,-0.08827996980350722,-0.23041354959537702,-0.689035344251337,-0.5873175134415132,-0.8633902696988328,1.0720858385783587,-0.7739091870035443,-0.6087722296820498,-0.9217076175856111,0.5107691784214285,-0.5685058727877158,-0.5483528527815386,-0.664478641563861,-0.4007886496903748,undefined,1496336727519
903d185fccf839df,-0.37014725562446,-0.5599024644555289,-0.32100608568293687,-0.415098886618543,-1.0852965192025656,-1.2307552500542167,1.6784088165769804,-1.1639376888080688,-0.30414122440696073,-0.5607803400172483,-0.016984586797478694,-0.9229305373341542,2.0548267602495547,-0.6002791795899676,-0.9097061119296334,0.3972028995523503,-0.7961503576862727,-0.7107697097752789,-0.9045978460917345,-0.15378950380181294,-0.7344824374131768,-0.5008927271606296,-0.6929740360957909,-0.34071915338990166,undefined,1496336728855
903d185fccf839df,-0.37707732211553874,-0.27637398653896006,-0.14395802194983348,-0.3240474532677485,-1.053745791516636,-1.3676491902006525,1.7874162050002027,-0.7320167946301392,-0.39259511918227913,-0.4931252936013205,-0.0964484438177043,-0.4901741098938656,3.175436580882353,-0.6224991990528209,-0.8991797520237949,0.3891203127156982,-0.8007122129985553,-0.5890252238061208,-0.9049861082975955,0.019374598614037414,-0.6519304964396376,-0.47069487981090286,-0.5129221158294741,-0.4198802696154309,undefined,1496336730375
903d185fccf839df,-0.18996528531854406,-0.23939210011329734,0.3741075194213002,0.3609631597686593,-0.7835655924296565,-1.4789212339414217,1.820377261316974,-0.6698683380718533,-0.5386474679843788,-0.3031659626837223,-0.08092873577233406,-0.4377295658534005,1.1061163101604279,-0.37252409989038554,-0.948653514005921,0.35072882195343913,-0.8111981442617396,-0.47093304002541475,-0.9026123514149517,0.07397024590211317,-0.5819738217097382,-0.44379643406532576,-0.6301899332646127,-0.45808880900359406,undefined,1496336731893
903d185fccf839df,-0.24124784636334637,-0.2881142865013878,1.2226624070267011,1.2520076909286377,-0.6131007380778117,-1.5956836670898364,1.8879685291245831,-0.4368815442865905,-0.39146187854615383,-0.17132730823908796,0.0494583669195755,-0.15256910063819987,-0.8348234180035651,-0.3003090010214822,-0.9286535126418464,0.29819302857826613,-0.8080006131252278,-0.4025861873506791,-0.9128270513057412,0.08013726567502874,-0.5530946023788431,-0.4729501686736422,-0.599425684946677,-0.4742471785606321,undefined,1496336733388
903d185fccf839df,-0.16085900605601325,-0.21238929328774414,1.7745423943403147,1.7364397978806732,-0.2793504438784446,-1.6148439883550252,1.8693731673589455,-0.49995096623426766,-0.4662696004769358,-0.20477022329968708,0.09016181225188667,0.015410900279720651,-0.9088054255793226,-0.2966056752366521,-0.9549692946107019,0.13856503177485074,-0.8016615730083461,-0.35835837035800744,-0.9459989319519064,0.01376658268423656,-0.5541025090073362,-0.4619630490360515,-0.6046660151660125,-0.4805918326119473,undefined,1496336734866
903d185fccf839df,-0.3063904713794867,-0.3104209733419699,1.8064431890536363,1.772965263678739,-0.2775195944348029,-1.586001019219499,1.808887624843782,-0.8702677664828541,-0.4786362503644481,-0.033959538589052325,0.12845860554606306,-0.02597519529241583,-0.9566761363636364,-0.3317873608479599,-0.9739167026851487,-0.10794918539853314,-0.803174218275017,-0.30284378590481603,-0.9543741155500188,0.07760853714105795,-0.5239048999281058,-0.4468756973878835,-0.6264530827761756,-0.5297108214399329,undefined,1496336736397
903d185fccf839df,-0.14838488637207148,-0.37851471312405083,1.4108759776327215,1.422399487790306,-0.1609415029724803,-1.609142011539786,1.859372011168917,-0.5837137086320177,-0.49905446592934166,-0.2045631059173839,0.03384154055590057,-0.025692867345040952,-0.8696384803921569,-0.29938317605066195,-0.9865482786191782,-0.09380486865325843,-0.7632248069327705,-0.2847315688588682,-0.9560883343799654,0.07877881592556926,-0.512807013051717,-0.4386731067657492,-0.6958197320340973,-0.5354366204984246,undefined,1496336737903
903d185fccf839df,-0.38816539399585503,-0.49356976966781213,1.0031866878612599,0.9106584520735724,-0.4151113588671334,-1.579646856579383,1.8675980489734632,-0.5931024018730541,-0.36448486208078956,-0.13514152522195721,-0.012782924357174041,-0.01828861232115776,-0.9001016599821747,-0.28086652122496236,-0.98970619100827,-0.061475199659967,-0.7218601203323255,-0.38111264004157963,-0.9470344612768228,-0.06779898538911967,-0.5831871471382938,-0.4787751988187185,-0.5855797186198443,-0.5514775277069379,undefined,1496336739336
903d185fccf839df,-0.2703541256258772,-0.3573822316476655,0.4060080599976725,0.31516724792061035,-0.7637964849903109,-1.4413995233390344,1.8458127455578803,-0.4910754069606987,-0.6117489025874218,-0.31112876335065887,-0.08289197514051762,-0.03556232712309405,-0.9914911987522282,-0.3790049005876764,-0.9486535360926224,-0.027124857459336103,-0.6536810611152885,-0.4767210898532995,-0.8491420797812821,-0.07942481157990523,-0.6083642309620046,-0.43476881918193555,-0.5175731215438917,-0.5025382784894841,undefined,1496336740858
903d185fccf839df,-0.42697373184048637,-0.3597303500961358,0.3600712815676964,0.31736057701869524,-1.0813879532153048,-1.2814460068714675,1.787736107205503,-0.5429159928406787,-0.5585809712852349,-0.4976362333532082,-0.08213595958814102,-0.03001353855145058,-0.8739903631907309,-0.4252965894550236,-0.9170745373596786,-0.23322682586895685,-0.7324237217733939,-0.5570671454910915,-0.8878834217155508,-0.19143310500818841,-0.6780262142026267,-0.4370538210192801,-0.5109578923499487,-0.4541267144560396,undefined,1496336742351
903d185fccf839df,-0.4394479377879525,-0.39084214499656933,0.6950270846880798,0.5510168793367672,-1.1708940890721178,-1.202060875345563,1.7298225145728285,-0.7105906174705381,-0.5732338722729684,-0.38523266355458,-0.07525638494693546,-0.0018772122750650732,-0.8217677696078431,-0.4141865732482096,-0.8770744904581266,-0.21302077214887913,-0.7172569936464741,-0.4353416340436573,-0.8700275607681137,-0.040281963188133534,-0.5933190061516003,-0.43797817003750167,-0.4718847177410101,-0.4457857021989679,undefined,1496336743962
903d185fccf839df,-0.7138788468779493,-0.32040034522200284,0.4002660897624002,0.20963751427069396,-1.3679783331770343,-1.183776344623155,1.6706439901404664,-1.1016691036751374,-0.3597485277527279,-0.5155878245265564,0.02975988572739002,-0.08845276585631036,-0.8130640040106952,-0.3382682003975744,-0.844442861624386,-0.26151528977117705,-0.7445432046748245,-0.4604707554912452,-0.8908220826079594,-0.12762194900388713,-0.6251648621931333,-0.42966616960662757,-0.491468799435751,-0.3932722076350158,undefined,1496336745397
903d185fccf839df,-0.5406269775685218,-0.24526230855049588,0.2969080841580046,0.3583460482070005,-1.251173961173114,-1.3207053298968532,1.7536880035271336,-0.8760512153096373,-0.41473807251149103,-0.30857989010815784,-0.05418168017648966,0.08293687622698176,-0.8043602384135473,-0.3401198891915385,-0.8528639097929943,-0.26353599124323807,-0.719234105895792,-0.4715027441136385,-0.9073905305926534,-0.220135809393262,-0.6399567149231556,-0.4239947403131951,-0.5550854119362975,-0.4036346626078698,undefined,1496336746842
903d185fccf839df,-0.37984924519574104,-0.4466086282740858,0.05701551074978643,0.10771699600063389,-1.0686645518822568,-1.4890278019260004,1.8184890603350325,-0.8425623726284377,-0.38589940433344166,-0.31228900029191514,-0.011024608869745016,0.05152090534026528,-0.5475991532976827,-0.4354807418386936,-0.8497060194906039,-0.20897952466072559,-0.789482032390433,-0.5137498116125236,-0.90871992395576,-0.3106786664096081,-0.6788155506995294,-0.4088647469661585,-0.5576683735236351,-0.40326771815527074,undefined,1496336748383
903d185fccf839df,-0.21907163359189433,-0.41373567146731877,0.020011137818144037,0.09511600758298318,-0.9536704584980497,-1.575945692483558,1.8809311776746709,-0.6134333268918698,-0.31707648409717953,-0.4176670300065497,-0.017296390316358056,0.01434087846349014,-0.4779690285204991,-0.5975016723005705,-0.8591797492956454,-0.4393288366756599,-0.873787352469244,-0.6391674298661305,-0.9251414387958194,-0.47902987102581335,-0.7712208453736994,-0.3864562597197821,-0.623802573855043,-0.3957960422070835,undefined,1496336749851
903d185fccf839df,-0.19966741291146406,-0.4806554397091416,-0.0667583325495885,-0.031230857652442438,-0.9683481456832962,-1.5248445138877555,1.8495418299148096,-0.7297853772304997,-0.39885671993756067,-0.44673801252334666,0.03162287548639649,-0.01301448782365242,-0.8609347147950089,-0.7132309138951003,-0.9728640725843519,-0.5019676851755933,-0.9666872925374785,-0.7583217639326572,-0.990659575588108,-0.5513717668708797,-0.8621938621379568,-0.420334871180584,-0.6561902545589849,-0.4964233029742062,undefined,1496336751330
903d185fccf839df,-0.35351497527693687,-0.2957455983889352,-0.05974059482821074,0.009428362493773015,-1.138957001166037,-1.449465675255379,1.8220550832594327,-0.7313844851878033,-0.38760520490467276,-0.5426463560896718,-0.02759185869635596,0.04379155011997207,-0.7869527072192514,-0.8613643273361533,-1.0339167877619444,-0.6514926833836914,-1.029369610863098,-0.8111828425821082,-1.0442761368406035,-0.6128423617924955,-0.9168453352398289,-0.4581044096371145,-0.6653282830217545,-0.5451282480614442,undefined,1496336752846
903d185fccf839df,-0.08878624553797466,-0.33448870517691615,-0.1369397759545569,-0.19852578245709387,-0.872557451734708,-1.2976947793363163,1.7534960336356575,-0.7677376703987745,-0.39303896304215813,-0.36879915876708336,-0.061977322813309824,-0.04807176506382323,-0.499728442513369,-0.8622901523069736,-1.0791799962108313,-0.6514926833836914,-1.0635007393080687,-0.8342220912375268,-1.0763215318119095,-0.6126729783944811,-0.9425660419794705,-0.45886427520477235,-0.6468463426423555,-0.5397035705426678,undefined,1496336754391
903d185fccf839df,-0.3188646255688382,-0.5552064613825272,-0.34748308962166435,-0.3723577418300848,-0.8280615294170929,-1.1845473278532452,1.7463850356422626,-0.5940578056607828,-0.3662069751252729,-0.4326030302707173,-0.005156935871546556,0.034502602037397676,-0.6041736296791445,-0.8678451798365424,-1.0760220948650903,-0.778790968796733,-1.0816998559850917,-0.8541265327726365,-1.078840384186293,-0.6819197871356376,-0.9693587001215782,-0.4539281552120586,-0.6485327012659927,-0.5364791919553281,undefined,1496336755828
903d185fccf839df,-0.21629953798464335,-0.6209521411721225,-0.2390215057989481,-0.23238745441921718,-0.9243459347269813,-1.263503877460353,1.7587188295995888,-0.7862177589239356,-0.33225621310701603,-0.4004635934252853,0.05924360715560077,-0.01449100677159236,-0.7390819964349377,-0.8076659804237587,-1.1002326497624042,-0.7444406407284629,-1.0262111066011188,-0.8673687194415962,-1.0607956098896039,-0.643254291696997,-0.969750894776961,-0.4258464972431412,-0.6455685237083345,-0.5128655329860082,undefined,1496336757322
903d185fccf839df,-0.4131136678691483,-0.4818295866173537,0.05829178650979074,-0.01383802250556533,-0.9729664256460874,-1.2174524872780987,1.7315792295716748,-0.7627007295670457,-0.43537845684243415,-0.23669387666095593,0.005288033764439743,0.01404066987498098,-0.7390819964349377,-0.8446993289274816,-1.0865484253219935,-0.7242345728760244,-0.9975318622939805,-0.8880331144173128,-1.0446539671359392,-0.5631207820522404,-0.95288764045679,-0.4510137103534592,-0.6540839067107391,-0.5434852801649206,undefined,1496336758880
903d185fccf839df,0.08307961047323703,-0.40199542996087567,0.1201787081594782,0.08079212379277209,-0.6298972897658252,-1.1673924765890105,1.6701048835729844,-0.8986127612189978,-0.42163084468405454,-0.15994180487426735,0.011846394963332202,0.0660254718853748,-0.9262129567736186,-0.7882234488241406,-0.9454956237035306,-0.6939254357664647,-1.0397754401850237,-0.858458267864679,-0.9927096426614205,-0.5883280373958968,-0.9184342229888665,-0.4686922022227559,-0.6651166026861545,-0.5589628505483426,undefined,1496336760420
903d185fccf839df,0.002690701155084458,-0.3837979650191127,0.11443673792420592,0.06392303200627908,-0.5026632184122325,-1.1735579719057665,1.6692580805725596,-0.8848054811981022,-0.43737149821085375,-0.08413617878565723,0.033984577483093956,-0.0014454319139057576,-0.9175091911764707,-0.7687809560768463,-0.9097061192918672,-0.6514926409866091,-1.025037875743748,-0.8250646561693812,-0.9647084055207241,-0.49613754502054713,-0.8757094377371699,-0.4852893564641836,-0.6468714726896732,-0.5428031851473142,undefined,1496336762781
903d185fccf839df,0.002690701155084458,-0.38203680311277916,0.1055048406997711,0.05659633777010987,-0.507754638616319,-1.1692418916572733,1.6629176197078614,-0.9128309239115168,-0.4415878326487871,-0.0855515037357494,0.037827322547885324,0.028333004821622005,-0.9044535427807487,-0.7687809560768463,-0.9097061192918672,-0.6575544627555767,-1.0281051414898161,-0.8241463793084761,-0.9648413449212639,-0.49504425535347385,-0.8750695097894192,-0.4857974954022474,-0.6474959515564241,-0.5431346253637893,undefined,1496336763799
903d185fccf839df,0.04288512130875101,-0.3638394550829855,-0.03230600286405588,0.0022786112905993,-0.5127534878931491,-1.1666937045753945,1.6452321741307325,-1.0167159308263363,-0.44812215931306826,-0.07093264925419056,0.04267276514743344,0.058728328679293576,-0.8391753008021391,-0.7706326189692614,-0.9076008517280397,-0.6636162703921835,-1.0349179814922267,-0.8236144120174285,-0.964953293919759,-0.49033233128923176,-0.874317628708722,-0.48573907851073356,-0.6488545675649272,-0.5434075833360896,undefined,1496336765806
903d185fccf839df,0.04288512130875101,-0.3732316950529277,-0.03932424885933249,0.0022786112905993,-0.5139672002437145,-1.160039068106869,1.640519562133792,-1.0267791654000753,-0.46733740241287536,-0.058575645576825416,0.05157596125879558,0.08029674357569473,-0.6041736296791445,-0.7771134520434886,-0.9076008296413384,-0.6615956961113695,-1.0349179814922267,-0.8226581375055322,-0.9670243498474996,-0.4866828998665473,-0.8741858448369052,-0.48486998702615486,-0.6500054668784635,-0.5434104182395918,undefined,1496336766783
903d185fccf839df,0.05397336571611597,-0.3532731851168005,-0.04761826234071457,0.0022786112905993,-0.5054403572407828,-1.1562028111345366,1.6387628513250332,-1.0244294053278769,-0.47468257857383106,-0.04844154163615712,0.053655292482723306,0.12410163288082057,-0.5737104500891266,-0.7798909722836602,-0.9149692918825526,-0.6575545192850197,-1.0263698992137045,-0.820789919148385,-0.9702009019610428,-0.4849274773818414,-0.874650656426817,-0.4830060546068407,-0.6500223539931951,-0.5408107419822488,undefined,1496336768786
903d185fccf839df,0.05397336571611597,-0.3532731851168005,-0.07186241904180805,-0.014009957873755403,-0.5026529332373301,-1.1556321476172198,1.633845113610406,-1.0544370405148298,-0.47693548099448324,-0.028814343738879835,0.05615593560009168,0.1062081547042986,-0.5824142156862745,-0.775261802101848,-0.9233903326889271,-0.6555339167394841,-1.0233026334676363,-0.8217018630157826,-0.9715932672459798,-0.48742202551721514,-0.8758050640009286,-0.4826592587840159,-0.648896624524686,-0.5402558084399133,undefined,1496336769818
903d185fccf839df,0.05397336571611597,-0.3485770651318294,-0.08908909215847322,-0.07453407797416,-0.5061912126504674,-1.1454277507854462,1.6193180646119205,-1.1147475058615974,-0.4901466566363538,-0.01051403576972311,0.06312405972341485,0.09897843104701662,1.0060230057932265,-0.775261802101848,-0.9254955781660532,-0.6434102732015489,-1.0196274391013913,-0.8226391387021834,-0.9742030777090973,-0.4880995576014949,-0.8770433522414934,-0.48238392711406136,-0.6489892585889346,-0.540454506329259,undefined,1496336771840
903d185fccf839df,0.05397336571611597,-0.3538602001149219,-0.041876292105442275,-0.07126534804367848,-0.5051215001104541,-1.1417918086549472,1.617172142890542,-1.1182505108350873,-0.5028926828811954,-0.003481374974023474,0.061672986385128296,0.06977965155781984,1.0930606617647058,-0.775261802101848,-0.9254955781660532,-0.6434102732015489,-1.0196274391013913,-0.8234054248705378,-0.9739931734439676,-0.4867906898327968,-0.8769409548062306,-0.48242434696112174,-0.6495946780047132,-0.5402797285664057,undefined,1496336772880
903d185fccf839df,0.05397336571611597,-0.3444679601449797,-0.07888091917403409,-0.02102756715305081,-0.5119306320980631,-1.1357357865471716,1.6319648015150945,-1.0034536613494085,-0.5111651056479685,-0.031189069518803902,0.0444360352506208,0.051570706558821997,2.002604166666667,-0.7687809690276208,-0.9276008383676468,-0.6434102732015489,-1.0168732198268646,-0.8216005358947979,-0.9719571015339081,-0.4807237016538444,-0.8743698287329359,-0.48317760617674643,-0.6437155327089275,-0.5395572449404242,undefined,1496336774837
903d185fccf839df,0.05397336571611597,-0.3444679601449797,-0.041876292105442275,-0.01074122794327388,-0.5206631885856453,-1.1367303718857333,1.621771673862307,-1.0726210354596317,-0.5007780244754484,-0.014694010571494267,0.06067771046883418,0.039878147890239656,2.8729807263814617,-0.7687809690276208,-0.9276008383676468,-0.6434102732015489,-1.0168732198268646,-0.8216005358947979,-0.9715792737098652,-0.4790452708713399,-0.8738704544333198,-0.4833853699659299,-0.6442652927058669,-0.5394725161687492,undefined,1496336775832
903d185fccf839df,0.06506147210184199,-0.3444679601449797,-0.019545786633506982,-0.008358185795001619,-0.5436928647769125,-1.1386450069803695,1.6240674949048741,-1.0613940246668898,-0.4733544837219518,-0.0315421567131995,0.04511076724603645,0.04409003627229465,3.2559464126559714,-0.7641517923704214,-0.9297061059314742,-0.6434102732015489,-1.0196274391013913,-0.8214738771762766,-0.9708306149154755,-0.47893748171282896,-0.873801495951876,-0.48256587369482723,-0.6443224584100206,-0.5396455757034061,undefined,1496336777848
903d185fccf839df,0.06506147210184199,-0.3444679601449797,-0.019545786633506982,-0.008358185795001619,-0.5459762893474078,-1.1367443477713488,1.6268314209639705,-1.0394959150006877,-0.47253586037341316,-0.03053567299639477,0.04514430398188451,0.07542435966777758,3.2646501782531194,-0.7669293061352058,-0.9276008383676468,-0.6555339167394841,-1.0182194694103248,-0.824570686640058,-0.9714113502610592,-0.4812318499900895,-0.8757228290812089,-0.4817299771033455,-0.6453393106009363,-0.5392820807425521,undefined,1496336778790
903d185fccf839df,0.09416775136437279,-0.3303796001900664,-0.010613381135173327,0.0065227842620411945,-0.5360917348875421,-1.14364355435186,1.635780650007171,-0.9952426901056791,-0.481976285670922,-0.02161397644184857,0.03294375614426567,0.08243445381543253,3.443077372994652,-0.7687809690276208,-0.9297061059314742,-0.6636162703921835,-1.0167768118999643,-0.8252356457095741,-0.9710685064913995,-0.4865597121414293,-0.8771503968963564,-0.48221186190668,-0.6451541645454437,-0.5383118844149795,undefined,1496336780748
903d185fccf839df,0.09416775136437279,-0.3303796001900664,-0.05782618118820426,0.005547341221080822,-0.5359065925208965,-1.1452414127570263,1.6420054005669913,-0.96349073929949,-0.47898693199171116,-0.033890392010049855,0.03585440057762078,0.0967790389776362,3.443077372994652,-0.7669293061352058,-0.9297061059314742,-0.6636162703921835,-1.0152504787845207,-0.826356576746009,-0.9710265255894371,-0.4884075255949836,-0.8778637368180228,-0.48187362194009126,-0.6444931388460874,-0.537899808997757,undefined,1496336781748
903d185fccf839df,-0.06522391595207767,-0.3233353033006404,0.01044084857675765,0.07869641780644078,-0.6591395260480873,-1.322484870636304,1.7515841539473254,-0.7565351105799721,-0.12947987109822393,-0.4626180028876394,0.001356894994738985,0.06712994083919803,1.1931539661319073,-0.8178501328074288,-0.9149692477091499,-0.538338615789399,-1.0145377157948372,-0.855070142869931,-0.9787160197825268,-0.43867054637268427,-0.8812641783089579,-0.47798549685214364,-0.6338390334300372,-0.5187990789156173,undefined,1496336782876
903d185fccf839df,-0.17749113112919254,-0.29926768837766354,0.09465827569838041,0.040069072467287435,-0.7562365034985555,-1.4039989241571265,1.7602335833006268,-0.9196943616842181,-0.17439778280895396,-0.39830939897650797,-0.06424309169515076,-0.43703477286024,0.3184255236185384,-0.8085917924438044,-0.9107587641171315,-0.1988764695359652,-0.9807669438134585,-0.8307389742967476,-0.9340483788277324,-0.18833801575030906,-0.8087164163309679,-0.4661436338573398,-0.5673612145031952,-0.45766079177105695,undefined,1496336784350
903d185fccf839df,-0.3050045270920904,-0.24761031008699674,0.0563776270067337,0.08399343022504936,-0.7540970771061872,-1.4094586629967014,1.8376708541315183,-0.4022229407130758,-0.2578046084872228,-0.5692149156884119,-0.1058270479732096,-0.46145861522363973,3.168908756684492,-0.6743458960235751,-0.8812850182235475,0.06380255386934287,-0.7652019048531602,-0.7219706670915473,-0.8706082939299066,0.12505114489552957,-0.679986056046055,-0.4477388332067066,-0.3573503786108704,-0.38257684506098083,undefined,1496336785862
903d185fccf839df,-0.07908415245046439,-0.2493713550813609,0.3396546814618687,0.44989289557066486,-0.4968723658882487,-1.4090347397837597,1.7875888293076037,-0.5995107481401851,-0.08460726844993119,-0.4061812540830106,-0.06343388774341854,-0.4380773127829379,1.9025108622994653,-0.5141766349295005,-0.8897060590299222,0.9306433212142069,-0.44865367012086155,-0.6025060171016821,-0.8186779631016093,0.6498455616329688,-0.5175919091564801,-0.37700861360967397,-0.1741189151995628,-0.239075849039126,undefined,1496336787350
903d185fccf839df,0.31731620292579654,-0.1806905418451739,0.6573845738764352,0.713403959776194,-0.20074714577812097,-1.3363671351968707,1.72763451494851,-0.6670432161118972,-0.4661274008665541,-0.3477823921951369,-0.02286309264340478,-0.1956069704143142,-0.6215811608734403,-0.3382682003975744,-0.8128638776159097,0.8639631969613984,-0.40057542666439966,-0.493338734311926,-0.8182021786407101,0.8354430243951259,-0.427220551358546,-0.3784059596115704,-0.35053340085559764,-0.26446427020197827,undefined,1496336788874
903d185fccf839df,0.44760145295807724,-0.002237748592333426,1.3158122396466574,1.3323027413667643,-0.1529495084775336,-1.372337574858553,1.6958191254097548,-0.9522679953235925,-0.3523370390124549,0.18012033088450638,0.15189568874930154,-0.04303406504201973,-0.3909313725490196,-0.2929023235502729,-0.8086533719371901,0.6073460377221404,-0.45550996515393694,-0.4377228224055498,-0.8130245390018122,0.9196725205689816,-0.3850189642033777,-0.3934101187279426,-0.42419684425312465,-0.29014632260614404,undefined,1496336790344
903d185fccf839df,0.4919540165226203,-0.23821807011705456,1.7286056159103387,1.9692125747962672,-0.3940050996058678,-1.515779114679701,1.8134187893056664,-0.6198634751727027,-0.3840670176919177,-0.17557558741811607,0.1164391158393916,-0.11412886530037471,-0.1994485294117647,-0.2679048032734097,-0.8286533585767971,0.5042950393849692,-0.5631843202210831,-0.33069607424655223,-0.8506813757089754,0.7947603302201928,-0.36352456018190965,-0.4417954358626315,-0.48932674432409495,-0.27868617294992815,undefined,1496336791855
903d185fccf839df,-0.152542891761309,-0.4295850764165962,1.861311864708047,1.9840585243396376,-0.5746733702211241,-1.6554985318208346,1.8078804211161843,-1.0389511025230547,-0.18481358075283763,-0.2053018496727931,0.11222607550384865,-0.11240871935565092,-0.8130640040106952,-0.2456847579090073,-0.8539165619804925,0.20928627632456584,-0.6760519706850439,-0.27840495653613045,-0.8894227187137299,0.5070095833021545,-0.40256423564207877,-0.46566518171974497,-0.5740013281580798,-0.3196443213675509,undefined,1496336793389
903d185fccf839df,-0.13591069767731023,-0.4900476796790838,1.91171484588719,1.8493374527058268,-0.6360892685521621,-1.7417549190258304,1.9196103600149115,-0.4764943135771238,-0.3700183301115853,-0.44685261810905236,0.036786762617748346,0.04676708165917994,-0.7173225824420678,-0.2623498145961646,-0.890758718579654,0.029452183403990438,-0.7790528017397933,-0.2793548991784624,-0.9278282140011858,0.09123615887049427,-0.4913655540591924,-0.5141090069739035,-0.6417626257642721,-0.5183800176431367,undefined,1496336794849
903d185fccf839df,-0.17333312573995502,-0.5182243995889104,1.8689679944463764,1.8628585940076596,-0.5682756742611755,-1.7423744950114828,1.8746091233391742,-0.7790860212374462,-0.34664270080341464,-0.8132543464629205,0.017908817838228463,0.0560562284221159,-0.7869527072192514,-0.23364895558369675,-0.9170745447219124,0.001163634707605631,-0.7237292215790024,-0.2903488886992583,-0.9584252695430969,0.050491871627278646,-0.5205237680164087,-0.5090285335327955,-0.5590621468351783,-0.5020667164702183,undefined,1496336796361
903d185fccf839df,-0.3410408728457,-0.5152894415102728,1.8855562755460902,1.8139428671587021,-0.3670360092809072,-1.7396190053479186,1.8844577430718983,-0.6591327707969977,-0.35444192088504234,-0.4710517062917602,-0.008948164289690653,-0.053128050344526424,-0.8957497771836007,-0.22439062817084696,-0.9370745902593899,-0.13825826597864974,-0.717784638217754,-0.26164165507054393,-0.9663526559666362,0.04280804872273722,-0.5096889123232297,-0.528474353083808,-0.5402866640638504,-0.4908783184764138,undefined,1496336797864
903d185fccf839df,-0.44221998163708887,-0.4894607523649394,1.8721581755724885,1.94689180358009,-0.42527362542058805,-1.7479390479192773,1.9010938928769445,-0.5766197752325886,-0.33240050510679664,-0.5652145286857595,-0.0697010068816953,-0.06107676640164358,-0.8826941287878788,-0.3003090269230313,-0.9360219527963592,-0.12815523911861088,-0.7481030204370045,-0.2540357901070994,-0.9670663296178057,0.020572693390600836,-0.512470821142207,-0.4908000243615061,-0.4991648826194004,-0.4436947680059784,undefined,1496336799337
903d185fccf839df,-0.3576731014351085,-0.5252686087943593,1.8102715080597505,1.828400879317781,-0.3788131331481513,-1.7906642833115007,1.9467499506151298,-0.29789878717113344,-0.41139512262152655,-0.46121092580766315,-0.10952670406650553,0.04126519637765318,-0.9218610739750446,-0.29197652448100175,-0.9633903722282454,-0.0412690894104462,-0.7154663516263781,-0.2618823099809876,-0.9599015949191816,0.042915838312041904,-0.5134341763441956,-0.49848192657144413,-0.4772932798652065,-0.4125940120982546,undefined,1496336800849
903d185fccf839df,-0.3632171546279715,-0.4900477089070761,1.921285389265526,1.88620397198811,-0.5862756453868363,-1.7851579611635289,1.9273104318891194,-0.4754805478589579,-0.441639312000173,-0.6601099309613321,-0.0793645767486659,0.04137139779043154,-0.5911179812834225,-0.30308652773704114,-0.9623377274029811,-0.08774304688429081,-0.7225310069167722,-0.2377854581977881,-0.9781912579880462,0.09685659606249886,-0.4999662555282354,-0.4933341785033957,-0.4696206714203528,-0.4074350739362164,undefined,1496336802357
903d185fccf839df,-0.45885214121567786,-0.48887362045484867,1.9066110135319199,1.8721578636946945,-0.7029360201928853,-1.824480178519189,1.9228345006326242,-0.5730645835199081,-0.44894646773297014,-1.0268957438837567,-0.13734030986910617,0.05231938869100122,-0.8000083556149733,-0.2614239896253443,-0.931811395582003,0.007225456476573255,-0.6496834666541755,-0.20654504709811677,-0.9497562182120893,0.1754348628383411,-0.4611194029220128,-0.5259006405008805,-0.45688666825004337,-0.3783788340213704,undefined,1496336803859
903d185fccf839df,-0.43667592844422587,-0.47772042317451935,1.9525477919618959,1.8596716082614357,-0.6814080527564498,-1.841164520532148,1.9030452080944922,-0.7367523500299354,-0.3874742125247255,-0.9498381442785495,-0.1483375539155892,0.018324134564927184,-0.8826941287878788,-0.2327231306128765,-0.9012850343120898,0.023390361635022814,-0.650510253248968,-0.20271361412472824,-0.9520511718248499,0.23385656406727598,-0.4526911716990305,-0.5211873834833339,-0.44392981609828336,-0.3885454600089896,undefined,1496336805368
903d185fccf839df,-0.4061836013780696,-0.5904273612698104,1.701809161826186,1.6947128415773456,-0.7209051257352186,-1.8689849524029467,1.8542886015974505,-1.1248249748707189,-0.37412630226830146,-0.7619174686405238,-0.18336590339945516,-0.05705186884025638,-0.7129706996434938,-0.2382781581424453,-0.9370745534482209,0.09411163444945946,-0.6175932277597951,-0.18717890284668928,-0.9618607014447009,0.2786968364664353,-0.44334808239877693,-0.5350672550181336,-0.45386520659292784,-0.3871981051455498,undefined,1496336806855
903d185fccf839df,-0.04166175889322935,-0.6491289487659262,1.6526824564070473,1.6758633453511118,-0.6137178777475594,-1.8737366001210647,1.9170620746972686,-0.6919937895621036,-0.4595797695505033,-0.1657087606514189,-0.16736278233363455,-0.030471834331094468,-0.7913045900178254,-0.21328065081635667,-0.8918113339559833,0.06784373069569256,-0.5884269746248934,-0.19291655021704635,-0.9658768705820606,0.2761714893131242,-0.4428489745928173,-0.5229530203385901,-0.47818017590601863,-0.3897243762746788,undefined,1496336808345
903d185fccf839df,0.03595515833390145,-0.5411180721996215,1.48105742103769,1.4410473599688203,-0.5867076394891046,-1.868800940793655,1.8793585499658019,-0.9516201852832318,-0.4863551994705713,0.18460389383284892,-0.10977310750435619,-0.043650440475017226,-0.9784355503565063,-0.23920393131016734,-0.9360219233474241,0.11027659613735208,-0.5421107070615666,-0.29067186842262865,-0.9651771904425374,0.24266447036614044,-0.49404423368218864,-0.5216879315870728,-0.4841595160140564,-0.3915256794740941,undefined,1496336809843
903d185fccf839df,0.17871466607176287,-0.43369421063143826,0.5769952116239772,0.5013794838832506,-0.36486572413299,-1.8083269042375494,1.9176169716082725,-0.5513621130558659,-0.5837229737037866,-0.19433306015652455,-0.000779854161097346,0.06100819307811913,-0.9914911987522282,-0.31512239481622445,-0.9297061280181756,0.22949233004464356,-0.5771027925517712,-0.39047272874266187,-0.9598176339227089,0.4116778049325066,-0.5056200245464965,-0.49426112217552925,-0.5622337307177568,-0.3508416493179341,undefined,1496336811348
903d185fccf839df,0.24940127526994676,-0.5375959529829009,0.3058404896563383,0.2321042813237514,-0.36498915729070014,-1.7976636467548004,1.9233420521773472,-0.5180771667425311,-0.5323828975450396,-0.7980316924859941,0.04046139626706827,-0.042283016420693334,-0.9523242535650625,-0.4391840546727491,-0.8181270649310628,0.8255717061991394,-0.5529614128282107,-0.47033114935061104,-0.8703983914264904,0.9632963188472907,-0.4025535382572378,-0.3983570922648817,-0.35810234620773834,0.10578343579209443,undefined,1496336812844
903d185fccf839df,0.6180811576494343,-0.49122176813131124,0.20631029478415802,0.19467601954379668,-0.2320876637300938,-1.7805763480881658,1.9130700251830408,-0.4735680385535857,-0.4398990754266248,-0.9859466468481125,0.0548770795438832,-0.03364642625534238,-0.865286597593583,-0.40770574664936965,-0.784442783909824,0.8760869535582199,-0.5952681478122615,-0.47953291622041827,-0.831188263028909,1.1542524411363229,-0.35771707433274075,-0.3763278539509205,-0.3624464098953092,0.01993395364834056,undefined,1496336814353
903d185fccf839df,0.1745564881554767,-0.5927754797182806,0.5642347412564789,0.5517815009457541,-0.22584424523164018,-1.8001652479668706,1.9431313321452182,-0.35344840632383917,-0.10632376676777008,-0.4380480294664531,0.09534500067208558,-0.049925244666094076,-0.7956564728163993,-0.47529161705797535,-0.8202323177704226,0.8962930072782976,-0.6249542842994739,-0.5171632680165612,-0.7968199280026707,1.1018361319351888,-0.3815215024314682,-0.34552879853106055,-0.3067511607090111,-0.04709611350419989,undefined,1496336815883
903d185fccf839df,0.09555359213553986,-0.4665670505262359,0.9495937796929546,0.9997775129322481,-0.16511748669968393,-1.7612949045878519,1.8566554236672097,-0.8508192203634488,-0.21598114306179936,0.038120233885911396,0.15345499300897827,-0.002898895192754145,-0.847879066399287,-0.3614140577820225,-0.8139165003544727,1.0660240733388342,-0.6522893296207963,-0.4322384918299819,-0.7843726007067805,1.0346989091566514,-0.33931279785653706,-0.371106040301011,-0.4816707358251588,-0.0345207604366448,undefined,1496336817355
903d185fccf839df,-0.2869862161936467,-0.5622506413599838,1.013394860845699,1.147557563955364,-0.4183513545885517,-1.8063936347978893,1.9237259971979086,-0.6057533835601113,-0.19614234656438578,0.17104936285435995,0.2302532966570554,0.09634930748981421,-0.5954698640819964,-0.3697465213717284,-0.823390208072813,0.39720269463311914,-0.7159472554357084,-0.4023279989634663,-0.830068772028526,0.5072713579248016,-0.4421234547676647,-0.41236543469462444,-0.6624931009395638,-0.2557818819881069,undefined,1496336818866
903d185fccf839df,-0.30223243148483947,-0.5375959822108932,0.8621864255821693,0.895938337032109,-0.44181303152381696,-1.9082303030794938,1.918424312367677,-0.7677056114304509,-0.375061754998413,-0.007778057985456784,0.162327226612811,0.015438294030145298,-0.08194769385026737,-0.41140909833574885,-0.9697061601952601,-0.08572251500055902,-0.7472466132400117,-0.4321624971923998,-0.9256801927623098,0.007838176408296291,-0.5884442943574402,-0.4290271643287883,-0.6348619972972767,-0.46076566303060884,undefined,1496336820363
903d185fccf839df,-0.48657240717999295,-0.567533747115084,0.725013465761395,0.7050738327850086,-0.4630118492791001,-1.92056828180803,1.8758635333062026,-1.078895899643043,-0.2723255581882813,0.02481753307059312,0.0971936187213337,0.10654875375467746,-0.27778241978609625,-0.48362413245077945,-0.9760219702489762,-0.40497848034266826,-0.8291943107045441,-0.4576082648770874,-0.9254283079622414,-0.24963922801433747,-0.6439156403161024,-0.43930483029504963,-0.7012432769263474,-0.4906599780704409,undefined,1496336821848
903d185fccf839df,-0.4255878220584998,-0.4929828131256754,0.7511720361024949,0.7729991351796321,-0.443849590325034,-1.9071099369675717,1.9543974321814348,-0.5163244789076551,-0.2649813902743954,-0.3646427823921287,0.10245579913642353,-0.16997226461310921,-0.29954183377896615,-0.4364065797602884,-1.0054957014180925,-0.33829849741346746,-0.7698360448905269,-0.43904640725209476,-0.9562772475090031,-0.16239163591374325,-0.6280894456465475,-0.4253104160240616,-0.6683773441690434,-0.5351281056622719,undefined,1496336823385
903d185fccf839df,-0.5295388194246813,-0.3573822170336694,0.9955305581229306,0.8850019817422368,-0.5333763005166899,-1.8746380132370835,1.9676332440129434,-0.3735747615525389,-0.23040864519285484,-0.6834389787500808,0.06062133724423414,-0.17761860544719146,-0.1863928810160428,-0.48454997037237424,-1.0044430860417632,-0.3686075355965017,-0.8325532904506233,-0.4535868459243135,-0.9433751280872497,-0.17703555933711126,-0.6358195051137822,-0.43900855920947923,-0.6185915380305893,-0.5555969746853111,undefined,1496336824860
903d185fccf839df,-0.33965485954748426,-0.2528934158420969,0.8315616524919025,0.7294209521989172,-0.7309028281238777,-1.779299923528068,1.9427263570771214,-0.4376429124348993,-0.4075683021900754,-0.7184158979052592,0.02097546371065751,-0.08441702777790139,-0.5127840909090909,-0.5178799671897178,-1.0107588519220767,-0.275659592384091,-0.7960330141137698,-0.5565415116641679,-0.9629312141694752,-0.11040648524483859,-0.6809697747498905,-0.41848843595606033,-0.6006532938153484,-0.5383862289236837,undefined,1496336826350
903d185fccf839df,-0.49904656136934444,-0.289875419179729,0.5776333495039794,0.49706771112254433,-1.0813879587067352,-1.6954263480153067,1.8823696880256988,-0.8041347603635602,-0.4844236281495693,-0.8232982748706448,0.013564573533561266,-0.08160910435849376,-0.7782489416221035,-0.4928824598636293,-1.0297062599965234,-0.3665869471833269,-0.7433517484174229,-0.6104538612451722,-0.9865524476034986,-0.19092495568919468,-0.7284005407063974,-0.40209994976524216,-0.5721230979561044,-0.49497234335251983,undefined,1496336827855
903d185fccf839df,-0.5877515159713818,-0.2710909684678369,0.12592118666864935,0.14516881596868136,-1.2708813513074155,-1.6162508485907285,1.8465201705460144,-0.9689603553851426,-0.5388630264268349,-0.6369679090038916,0.029335049585504928,-0.03035879577155785,-0.6999150512477719,-0.5456549882805909,-0.9939167261359249,-0.32011296144476076,-0.7440497324671304,-0.6186233589488912,-0.9729996251188867,-0.19497474673386947,-0.7281800597702361,-0.3984295035867216,-0.5383106703599456,-0.5021549300223531,undefined,1496336829345
903d185fccf839df,-0.8316900462371077,-0.41549677491766757,-0.006147686659905346,0.05936171971099089,-1.395235429986887,-1.5780257025573963,1.8630537538258916,-0.8647633190108177,-0.4041377695840907,-0.6137454887011721,0.03410007545158598,-0.07833331046670129,-0.8826941287878788,-0.6937883887708695,-1.0139167569489347,0.015307951452880338,-0.8014108604356299,-0.7356561571271047,-1.0106214767378834,0.029549984972203507,-0.7511393977894073,-0.4188197632500638,-0.5675513027484702,-0.44193658960916604,undefined,1496336830855
903d185fccf839df,-0.7901096300379303,-0.4982659481087679,-0.2562479247786638,-0.2643672654566062,-1.4279542316680998,-1.6393359386297797,1.8850021029611768,-0.8514432377046756,-0.36813411989973677,-0.600744995519718,0.02906957095138404,-0.07243542594536372,-0.8217677696078431,-0.8576610209774851,-0.9454956384279982,0.9953028005243975,-0.3888550141149464,-0.8712191508086203,-0.9753015760624741,0.8562771324596031,-0.6041640876880153,-0.466841278418368,-0.7819279764696621,-0.11541152105450948,undefined,1496336832338
903d185fccf839df,-0.7651613906700467,-0.7500956745827665,-0.20584494359952096,-0.3175682683128384,-1.4327267956500942,-1.6792637559912478,1.8950663728630506,-0.8741310807796718,-0.3337409070789822,-0.7688686246324228,0.030797018596177117,0.055815436574638624,-0.673803754456328,-0.8826585153527992,-0.9633903722282454,0.7285824731014928,-0.3959354824228225,-0.8687873005250885,-0.9685076733435121,1.08902463582448,-0.5567057162641237,-0.46818441420331375,-0.7947898087519355,-0.16282723380097652,undefined,1496336833842
903d185fccf839df,-0.7554592630771267,-0.7213318227628491,-0.1809623948814759,-0.3028029262076273,-1.3508423577138524,-1.6714118925263475,1.902595510130926,-0.7831679759678104,-0.2774673903963424,-0.6009398114301372,-0.011194183933201794,0.04463129271762824,-0.33000501336898397,-0.8280343046172607,-0.9907588284713006,0.6760466655939591,-0.5395732722383956,-0.8530562684692035,-0.9360494686041657,1.156762396898438,-0.5260279491230256,-0.4727723787058763,-0.8195076539231534,-0.25739718608205964,undefined,1496336835408
903d185fccf839df,-0.8427781698755387,-0.6638042944909684,-0.005509294642953765,-0.011699105509428025,-1.2751601987567625,-1.6370649302088924,1.8948060259864759,-0.7647448400615825,-0.24903040162023798,-0.6187333496557166,-0.004402277816265646,0.05580238422668303,-0.2864861853832442,-0.815998476390401,-0.9739167026851487,0.4901507226396945,-0.6518033444898931,-0.8591612256482262,-0.9535484925210966,1.2703413302006148,-0.5117268489960959,-0.4765296335390849,-0.8349938737744621,-0.25687876903817336,undefined,1496336836863
903d185fccf839df,-0.7762495315611825,-0.5769259578570338,0.2713876516969068,0.299357390110248,-1.1341741500966422,-1.6822638185791854,1.8884024425059975,-0.8265127294094377,-0.289202997957906,-0.6734564826983317,-0.002343519076745505,0.09518758784046773,-0.8957497771836007,-0.733599257514764,-0.9739167174096164,0.5123774495671116,-0.679944810343674,-0.8032413321186719,-0.9437179730436192,1.0743499188488723,-0.5228011514126198,-0.4921788683028276,-0.8928207458251536,-0.279534835536852,undefined,1496336838348
903d185fccf839df,-0.6556662711001828,-0.42371492643538233,0.513831760077336,0.45853934479525615,-1.0506954360772502,-1.7572909431637906,1.9021747363391333,-0.8125557276094382,-0.3806274534708917,-0.7534169694160993,0.011154064652735139,-0.045630128489234686,-0.9653799019607844,-0.6243508748960106,-1.0086535769960154,0.011266689832366028,-0.8941155875781506,-0.6793372889763747,-0.9938641164071356,0.30886239228039386,-0.6659529780369376,-0.4833787775620239,-0.7132571142173002,-0.524610665776331,undefined,1496336839856
903d185fccf839df,-0.6251739440340266,-0.20710617291864783,0.5929451007067392,0.5866831652944406,-1.0343411796685757,-1.8027856430088698,1.944801271486177,-0.5471275432195658,-0.4428435638538698,-0.96868995714916,0.004807490054046659,0.04069621422692703,-0.9871393159536542,-0.56231999316465,-1.052864170068573,-0.08774310341373388,-0.9043146058624479,-0.6067237563450751,-1.0203610388423228,0.00029294251486646373,-0.6970326270447766,-0.4922448135485153,-0.6677086149458356,-0.5443382500620987,undefined,1496336841346
903d185fccf839df,-0.47548436980508635,-0.26522078925863074,0.7313935738766695,0.7740460571494654,-0.9391161956822243,-1.7781609262065174,1.9343214936845692,-0.5671833369307151,-0.44971445073684596,-0.8127912877572644,0.03494540278329083,-0.0085223680208559,-0.9740836675579323,-0.49843740968855077,-1.023390464667275,-0.09582551359587635,-0.8584308156730692,-0.5579980877521248,-1.0140359219076795,-0.043931391326014375,-0.6794112778142185,-0.4904107111257401,-0.6533590281197822,-0.5291873266060526,undefined,1496336842839
903d185fccf839df,-0.6833864680536784,-0.28987544840772134,0.8513398605807786,0.8376818717016283,-1.0969399310724943,-1.759899690861732,2.0097969243226896,-0.08964975584666564,-0.43965147859574494,-0.6944660791938808,0.04926123886062806,0.02781716538932848,-0.9349167223707665,-0.48269825567686103,-1.0265483623318992,-0.12209344561436478,-0.8277323309709681,-0.5212163515714521,-1.0135041636632287,-0.09385315399378959,-0.6729139756373852,-0.4913944742787235,-0.6226170902304564,-0.5009184772386254,undefined,1496336844339
903d185fccf839df,-0.5475570268068958,-0.3702965031503514,0.8111455606599737,0.8059193015721338,-1.0341560360936155,-1.7755708128613017,2.02693273730959,-0.008560492947437581,-0.3855861469330363,-0.484740329227006,0.03785945196053171,0.00469990069939092,-0.865286597593583,-0.4447390951530925,-1.0328641576611477,-0.11199041875432592,-0.7874902154325467,-0.49945635794304327,-0.9925347217043926,-0.10686483847079145,-0.657796768001888,-0.47033016472575595,-0.6087173332438816,-0.49647413004341356,undefined,1496336845856
903d185fccf839df,-0.5142927421551274,-0.4765463931782766,0.800298995658583,0.8087941888499494,-0.9946075304385625,-1.7654153290578043,1.9959430934881581,-0.211979026629966,-0.3168478291095846,-0.4112598099165224,0.03329539237766323,-0.014574816286527023,-0.8043602384135473,-0.4799208066659494,-1.03286414293668,-0.008939363887711695,-0.7826235616712192,-0.5199054330164385,-0.9683397501149201,0.031043638232648472,-0.6320614154738469,-0.49987786307613263,-0.5943502117099326,-0.509814372638549,undefined,1496336847419
903d185fccf839df,-0.5018185189549564,-0.4554137655619296,1.0216891284640306,0.9698210684825133,-0.8494043486933736,-1.8259895242656996,1.9473916137563243,-0.5793918164646004,-0.3208820869947327,-0.3129756001763514,0.05066396408596826,-0.10859666740439732,-0.7347301136363636,-0.551209951056287,-1.0360220332390706,-0.04531036516332128,-0.8102876262986285,-0.5487899895332,-0.9455721270511989,-0.06987777438007223,-0.661469433709061,-0.49318451527033375,-0.5163236550324756,-0.5095025749101028,undefined,1496336848886
903d185fccf839df,-0.45746605890664266,-0.5135283088319317,0.8194393200044063,0.8615107719759921,-0.7647222058178814,-1.8118557001209226,1.9252802105211626,-0.6878564391339228,-0.353154654930657,-0.3300871202094795,0.020961815916827612,-0.005458770806355343,-0.8261196524064172,-0.5697267094881829,-1.0412852131919899,-0.118052212258572,-0.8520201428532245,-0.5615952020862831,-0.9306619228650196,-0.08989575354101849,-0.6728106330495917,-0.4785345712141211,-0.5174898115400269,-0.5001050107359492,undefined,1496336850344
903d185fccf839df,-0.22461568678475732,-0.36970951738022234,0.9776665095371115,0.9746233593168669,-0.6120516033295418,-1.8263226045682537,1.9126308537659822,-0.7387477549778577,-0.4009391547573752,-0.3534990938904454,0.06317966809877147,-0.053399284443186895,-0.7782489416221035,-0.5632458051846957,-1.0360220626880057,-0.04328973435306412,-0.8072091389334689,-0.5479730399095497,-0.9339644178434937,-0.09868826690052125,-0.6659864826251977,-0.4817596157922223,-0.5370877928724402,-0.5049211231492616,undefined,1496336851858
903d185fccf839df,-0.4602381545138936,-0.32157425830627623,0.8806886120479904,0.9052494306060952,-0.5241397484831628,-1.8401326633278234,1.9240547315347998,-0.6421784079120552,-0.38264989516184295,-0.8086771056605315,0.05654352794079104,0.05984529010009561,-0.8957497771836007,-0.5104732897185086,-1.0339167877619444,0.34062579509340024,-0.7232537505883194,-0.5113306269561232,-0.9420247439244893,0.404055577021358,-0.5453696819388871,-0.4872187669158473,-0.3972055378529316,-0.48380521101861246,undefined,1496336853351
903d185fccf839df,-0.33688276394023325,-0.41725781991203176,0.3619849327968546,0.19908229945824543,-0.4059056557025801,-1.8630989640509004,1.8662726343129161,-1.0238714432192573,-0.38725028442533976,-0.8675275341533102,0.08265993376569138,-0.06229517939686269,-0.8957497771836007,-0.5697266835866338,-1.033916773037477,0.809406857570133,-0.5183770661527904,-0.5464657990817905,-0.9761621835128036,0.8372754410321733,-0.46796225313779616,-0.4782102663558953,-0.6007007281865048,-0.5088089165219216,undefined,1496336854859
903d185fccf839df,-0.4824142982745262,-0.46950215474483525,0.2943560409118949,0.09328658171004667,-0.580803649513056,-1.8732264964836423,1.8796609768403598,-0.9908447867256266,-0.36133027674980506,-1.1063888242985644,0.07253033715215418,0.03167029841136414,-0.9653799019607844,-0.5780592119302125,-1.051811551011127,0.9245814429157962,-0.5244409622843597,-0.5117169359667776,-1.0117129798035316,0.905351969521427,-0.4503196390154508,-0.4452926535712566,-0.6342336583403388,-0.4706347160955095,undefined,1496336856347
903d185fccf839df,-0.4560800456084269,-0.48300349970162715,0.17568577583084063,0.071716369211449,-0.7627987713153027,-1.878055010367595,1.8991715070687802,-0.926058837299832,-0.38573587125596603,-0.8840824329401319,0.0832491932861198,0.0021468034848001185,-0.847879066399287,-0.5262124696317474,-1.000232536189641,0.8902311289798869,-0.5350235095080891,-0.46036309687718935,-0.989225230227012,1.008244380714594,-0.3998752580558181,-0.44627989097086423,-0.6624395881792592,-0.49077670423418307,undefined,1496336857899
903d185fccf839df,-0.44914997911734816,-0.5634247005842189,0.4449265924323719,0.4027221031730037,-1.0949650738522256,-1.8604739107343273,1.901590918922682,-0.9704878561789949,-0.344148247841527,-0.8501543559883341,0.08738649359486002,0.04245874778296624,-0.7347301136363636,-0.4975116365208287,-0.9854956706050827,1.2175695610335817,-0.6254839300070505,-0.4746502183449055,-0.9830540428502709,1.2709264617443436,-0.3550462938332109,-0.4725507294591314,-0.6032998460449667,-0.5390228670300621,undefined,1496336859353
903d185fccf839df,-0.4838003460781517,-0.4595229582327563,0.3217906328760497,0.1810530131105406,-1.099387920621997,-1.7294937996133697,1.8526239344336797,-1.0540577197754084,-0.3332570302512551,-0.7438315704351655,0.016984650983056675,0.03492913624780741,-0.4126907865418895,-0.5549133545457644,-1.0212851897412139,1.350929724745034,-0.4306214768802531,-0.5359657788190212,-0.9716702317129606,1.163861069977434,-0.4029882427485283,-0.4713352817973704,-0.47459744696209866,-0.5337312914725052,undefined,1496336860897
903d185fccf839df,-0.6431921169108313,-0.45893588477865027,-0.10759102448734498,-0.27975752580185564,-1.219967147630127,-1.6097848786391764,1.8617519890648861,-0.83624067606879,-0.3618176642226478,-0.6605966902595138,-0.041632856975166256,0.014633571166457844,-0.6825075200534759,-0.5743558149161224,-0.8602323793964423,1.375176983556183,-0.4071765066696838,-0.6340567441634485,-0.885889330126333,1.3724022240473006,-0.3689394614962231,-0.5576670268817618,-0.8754386020191771,0.05636785994709856,undefined,1496336862345
903d185fccf839df,-0.8746565102399106,-0.38673292309775026,-0.2868724437319812,-0.38940661882821376,-1.3028184362087134,-1.4331190726349956,1.8130216900301774,-0.871584333457507,-0.3321471811130562,-0.7543414906258478,-0.004974426932025215,-0.05934039355885702,-0.5084322081105169,-0.6280541942054534,-0.8981271440096994,1.0155088259797538,-0.41832760319343715,-0.6902172885173872,-0.8365128365281376,1.1439816860337242,-0.4230645220868282,-0.559239112579285,-0.8567876230828675,0.0879946220215117,undefined,1496336863939
903d185fccf839df,-0.8247599969987338,-0.3890809830902358,-0.2964427329733676,-0.4159147475506376,-1.3799817384320967,-1.411261493122954,1.8063130545855248,-0.8758536218005518,-0.4152897643909183,-0.7909095920876211,0.032280572748271404,-0.08557210552135715,-0.7260263480392157,-0.7234150662787703,-0.854969199443523,1.13068346785486,-0.43190508108767184,-0.7519761562780601,-0.8263464705567739,1.2246387458795986,-0.4361830377806871,-0.5476840201778818,-0.8050384797784386,0.08459035338130773,undefined,1496336865339
903d185fccf839df,-0.7526872192279904,-0.3233353033006404,-0.1286457624731748,-0.11451003310769277,-1.3567052042575796,-1.4533298832451063,1.8104208128333488,-0.9228505020484856,-0.45822437152164386,-0.7956718782116727,0.047436566210817634,-0.014575425717414357,-0.9218610739750446,-0.8224793224154028,-0.8928640008679491,1.1407864523178166,-0.44718771609534286,-0.8428095646358035,-0.8789624879640117,1.0330358907530834,-0.5241148903817969,-0.5378554647023799,-0.8324576910635818,0.2220108058882748,undefined,1496336866846
903d185fccf839df,-0.5309249534918311,-0.3051378383588774,0.08700265423394991,0.056141332689015826,-1.2540436661836842,-1.534091595027807,1.8556324432138738,-0.7508534695778925,-0.5102688032281513,-0.7134141434620744,-0.016399339459165132,0.052351595685311496,-0.9436204879679144,-0.7947043272260789,-0.8307586408650922,0.5204599586757795,-0.6490883260340653,-0.840523371237425,-0.8736309177395452,0.7285932241786883,-0.5791479132600371,-0.5522178277581524,-0.8699046959459985,0.2641492079740182,undefined,1496336868531
903d185fccf839df,-0.4671682555103821,-0.2669818050250025,0.48001756827180553,0.37230196207832006,-1.148748989733958,-1.6231058017385627,1.8817227448509022,-0.6933562692985641,-0.648728314428813,-0.7649025022671536,0.02037435513103545,-0.009597060479426597,-1.017602495543672,-0.7289700873329518,-0.7749691056404189,0.667964170617652,-0.5367796367437818,-0.7745847620559865,-0.8833564846134441,0.9801114327445234,-0.49997077406227686,-0.5580515006754662,-0.8904153442569286,0.18873640600722869,undefined,1496336869846
903d185fccf839df,-0.5032046357694014,-0.24937132585336858,0.4289764492126605,0.373076903106058,-1.0152817856969814,-1.7055422356273473,1.9588234034572516,-0.2936491223829598,-0.641608380662476,-0.912697320187326,0.02992911445468008,0.001890966163704298,-1.056769440730838,-0.609537519953592,-1.020232559640417,0.14866808689961114,-0.7528490439263709,-0.6627133124710107,-1.0003361654465128,0.26257466712665545,-0.6636122421842697,-0.4997564612549705,-0.543218689993306,-0.49917614728411924,undefined,1496336871354
903d185fccf839df,-0.544785034715874,-0.3127690041064631,0.4462028681923762,0.43728062465098827,-1.0465400200991744,-1.7602514062241854,1.960545931534831,-0.3832664388847956,-0.6015816508198311,-0.9907482417238848,0.08216966003609102,-0.02890544278247518,-0.8870460115864528,-0.5151024534249334,-1.0886537002480547,0.4153883012636297,-0.7400054358857799,-0.6062171212772072,-1.030562388800782,0.3976652278153191,-0.6193038361725911,-0.5065396897763013,-0.5083631379136863,-0.5150707491282415,undefined,1496336872894
903d185fccf839df,-0.569733343094577,-0.448956659038579,0.3517772680863143,0.3854016204870303,-1.0528040050384146,-1.793869315175541,1.8866746778669699,-0.9454429728857378,-0.4388207557007403,-0.8362721149655497,0.03892026398192145,-0.031245953716827434,-0.8043602384135473,-0.500289124384064,-1.050758924591447,0.4578210253816815,-0.5987544156077944,-0.5417920843280122,-1.0155402359953654,0.500819414304249,-0.5589171626295882,-0.5011647517093253,-0.5758596172056273,-0.5146932612529104,undefined,1496336874349
903d185fccf839df,-0.2911443941099329,-0.45130471903106456,0.4519448384276485,0.41786915743342545,-1.0298257602831085,-1.7964361377173417,1.8649682601751223,-1.0929580379161994,-0.5229299469539167,-0.8841922241615433,0.12126031809370498,0.0751871917490517,-0.8043602384135473,-0.4188157887577327,-1.0265483549696655,0.4780271921606454,-0.6029195519292714,-0.48513757150779013,-0.9913382668670859,0.7656418796549015,-0.4722355636619941,-0.5216818076203483,-0.5961242073700818,-0.5794551669467722,undefined,1496336875855
903d185fccf839df,-0.32025070787787346,-0.49356979889580443,0.6790769414683684,0.7569520825844894,-1.0276143347936746,-1.797214103780102,1.854575262745249,-1.1537880841347172,-0.46485346379460707,-0.8250782036847495,0.05839108600083852,0.022640727025696254,-0.3604681929590018,-0.42066737394550047,-0.9854957000540179,0.8700250752598092,-0.6046118801533802,-0.45000873393697016,-0.9602304454585797,1.275191835696688,-0.3425969237047085,-0.5198100414593771,-0.7167402347310806,-0.6202836289957052,undefined,1496336877362
903d185fccf839df,-0.3687612078208345,-0.5681207913411976,0.45832469240597357,0.45633561655864063,-0.9614155899744349,-1.8517765328475813,1.8892597600064283,-0.98295686345508,-0.3995872618103202,-0.8387959684362686,0.04397324802561505,0.03284675332766446,-0.5127840909090909,-0.4336290400939549,-0.9286535126418464,1.1407865229796206,-0.5700374699787689,-0.5182272029972964,-0.9133308221766807,1.5435713413934782,-0.3013999297235134,-0.5375597019619788,-0.7620454498957143,-0.49491313207392945,undefined,1496336878847
903d185fccf839df,-0.6057696888481866,-0.7324851369551478,0.009802964833704917,-0.014836985309013298,-0.9298899296578169,-1.839850827635363,1.9430918861407853,-0.6509275843032001,-0.2666486563158934,-0.7860259122303682,0.04836679176317347,0.0098619882127642,-0.6825075200534759,-0.5604683237968476,-0.9570745916234645,1.344867874711345,-0.31624493573391327,-0.6187690162659046,-0.9425704944143546,1.2363877518527395,-0.4162873940233063,-0.49389450318788725,-0.6472558417508605,-0.38646384498980746,undefined,1496336880570
903d185fccf839df,-0.6265599228268326,-0.7747503045038647,-0.10057277849206837,-0.1696996868828766,-1.099048502788376,-1.839815889168959,1.9442989669781205,-0.6920436357090093,-0.2497994676112104,-0.6732611917975647,0.020779652325866545,-0.09142434531011484,-0.9044535427807487,-0.6789750597299999,-0.9939167555848599,1.2135282711483457,-0.26288681021504845,-0.6536002074770869,-0.9531076914111186,1.086222109585423,-0.4658305534985412,-0.4862140405677636,-0.6491098572910244,-0.3423551029607881,undefined,1496336881848
903d185fccf839df,-0.37014711760282104,-0.7829685144775642,-0.12800737045622324,-0.18593595284828143,-0.9164259493237034,-1.8332940189602929,1.9099642246736706,-0.8787689675218635,-0.30908021643826666,-0.7026383801325512,0.0013499744221545146,0.0381347821924748,-1.0088987299465242,-0.6799008911762076,-0.9465482538043274,1.5348050227566807,-0.18711145104506335,-0.6643028827680326,-0.9368121179984806,1.3974246859564474,-0.4031806797469816,-0.46093742443716806,-0.5843026512876772,-0.3033595077828016,undefined,1496336883344
903d185fccf839df,-0.0763121258540329,-0.7166357320058704,0.060205946012847796,-0.05065922837582563,-0.8295632396443081,-1.9067349313553015,1.9395863612663105,-0.6928602707707812,-0.343939711089672,-0.8780522481922054,-0.021453782358596626,0.012734245610517388,-0.9262129567736186,-0.6919367517800036,-1.017074654613559,1.7752573333669324,-0.17652335461304172,-0.7275183253985961,-0.9605942786882565,1.3832735134739385,-0.44121295314536235,-0.41584635106103357,-0.5439611154422161,-0.2210417917678371,undefined,1496336884898
903d185fccf839df,-0.17471917354358052,-0.7483345711324176,-0.22817544907145623,-0.2766823886393925,-0.9478590378528413,-1.9356244845920207,1.908765040579379,-0.9689470853838652,-0.4147682167693188,-0.9246369555980201,-0.0037795001456210745,-0.048192437305775736,-0.8000083556149733,-0.7243409301019141,-1.0865484290031104,0.3668936705824456,-0.7348880083491923,-0.7654716565914461,-1.0556599480452014,0.7163514433287019,-0.632001721543884,-0.4107370029950182,-0.46826793435197117,-0.343196949156813,undefined,1496336886340
903d185fccf839df,-0.6307179282160701,-0.5487492964031919,-0.2843204004858714,-0.3557222897401259,-1.213332877003347,-1.832637173113066,1.9151475803945393,-0.8330266653347865,-0.44596204741688183,-0.8317180909073917,-0.013096494495310562,0.03600986461674877,-0.7477857620320856,-0.686381730725822,-1.001285155247087,0.2779869889905492,-0.7798116965308443,-0.7234652401328753,-1.0157571360131201,0.6021719719195776,-0.6247743595098453,-0.4219568353567986,-0.5329430922252101,-0.3631764861551978,undefined,1496336887863
903d185fccf839df,-0.6833865025590882,-0.5229206364858509,-0.307927181717811,-0.4018218860085637,-1.3388698092918385,-1.8172851568809063,1.9073186444842862,-0.9257178524226836,-0.32471297208615507,-0.6308199580805519,0.006167558085149637,-0.0014670473728609092,-0.7695451760249554,-0.5965758667559121,-0.9739167026851487,0.708376419381415,-0.6850531804510476,-0.6852205929495152,-1.00184047892861,0.8611892238350856,-0.5486287261751767,-0.43264129187008804,-0.5514667500571286,-0.4431035457664489,undefined,1496336889356
903d185fccf839df,-0.6598242074786009,-0.4284111048763381,-0.30537463019780237,-0.34680819821495645,-1.1508266951363224,-1.8710533150602426,1.9324858803917266,-0.7742637026351903,-0.36296990870337387,-0.5819847720246079,-0.01130800768681787,0.0694415442555707,-0.7738970588235294,-0.7215634033863553,-0.9697061749197277,0.5851193390594447,-0.7405808960954482,-0.7312294287602313,-1.0000353026889228,0.9498842708711531,-0.5534236354249014,-0.43567248268983844,-0.5887428297302156,-0.3635695260739821,undefined,1496336890860
903d185fccf839df,-0.47132626089961965,-0.8187764293629688,0.004060994598432623,-0.06173711671150019,-0.7910844414779526,-1.9709637021824997,1.9328146021583559,-0.7748545418912405,-0.4486732770287069,-0.43460125260590166,-0.009659252985577961,-0.034936294180868,-0.8913978943850268,-0.7030467291344938,-0.9318114250309382,0.6780671974776908,-0.7234341868026877,-0.7219263344040192,-0.9889873384247566,1.5308676176268556,-0.4014294329066149,-0.4544531913256897,-0.35517751791685315,-0.12159036656174865,undefined,1496336892346
903d185fccf839df,-0.34242688614391575,-0.8945014518046048,-0.2766642707475421,-0.32275570994806263,-0.5667122449004399,-2.0674291444249824,1.9614610790471787,-0.6635017276510695,-0.2532284240016881,-0.6141137144169786,0.07463402310910512,-0.022579800177795893,-0.7608414104278075,-0.7280442558867443,-0.9286535052796125,0.6315933247980108,-0.703180471524664,-0.7271066827418391,-0.9831799852013685,1.651930195187068,-0.3806153966921039,-0.4778431829577968,-0.31441139968755644,-0.13011399994547698,undefined,1496336893850
903d185fccf839df,-0.1705610646381138,-0.8493012677212656,-0.09164088126763356,-0.11852963872563631,-0.6273669978956532,-2.0308740642001673,1.947283795480641,-0.7456467042357879,-0.3210211628793989,-0.5633836903455781,0.07081775823887258,-0.07247551125603113,-0.8174158868092692,-0.7021209041636736,-0.9570746063479321,0.6194697377895186,-0.6966492331430034,-0.7399625589218546,-0.976959820081203,1.7224704750958126,-0.36938223206619014,-0.46949324865193703,-0.289760504835765,-0.13756510154844606,undefined,1496336895348
903d185fccf839df,-0.4519220747245991,-0.8422570585158167,-0.6869058579020628,-0.7106880562670601,-0.887913989387051,-1.9442706212400958,1.9281282819109211,-0.9030437236413215,-0.31033134921073074,-0.6975312092699737,0.0671705057958454,-0.08415592103594255,-0.6389886920677362,-0.7474867615848132,-0.9812851465207786,1.2296932893656816,-0.3831009966503769,-0.8573183385951717,-1.0514758559422832,1.3155973500454483,-0.5297574747860356,-0.42978302467697616,-0.03304300862761704,0.1052213866452006,undefined,1496336896877
903d185fccf839df,-1.0132580125885347,-1.0518216174410984,-0.7947295579817264,-0.8425517769826347,-0.9512121692458605,-1.8985243631282067,1.9436730737537726,-0.7901864449509032,-0.29706287898052164,-0.7087166816609977,0.07176392339258,-0.0002085148921946434,-0.6172292780748664,-0.81877596749133,-1.0665484018712175,0.4921713675823124,-0.45907516164914997,-0.918380581466145,-1.114447153116682,0.800704131239444,-0.684065153556353,-0.4097226760962294,0.09290064783658285,0.20645311058098617,undefined,1496336898594
903d185fccf839df,-1.1518594804317488,-1.06943206738474,-0.8253540769350437,-0.8914886520903567,-0.8773094331137057,-1.8805100269076587,1.9718093666756045,-0.5961163432790193,-0.2828542641183883,-0.7083271977973847,0.08982853181173014,-0.11828310835420461,-0.4300983177361854,-0.9780194003768906,-1.204443309506173,-0.05541334256009745,-0.8005192749784806,-0.9970230761571952,-1.1984018875110423,-0.16254561704301576,-0.9686827239993872,-0.4291492258160651,-0.025962630003493862,-0.3618313435507381,undefined,1496336899858
903d185fccf839df,-1.14492941394067,-1.0618008724091619,-0.8617205661236333,-0.9049927130160742,-0.849795195646352,-1.8856553152793727,1.9689534053516937,-0.6120246841877974,-0.2700151470457444,-0.6602754477199904,0.0875614522142252,-0.2934116582123755,-0.13852217023172905,-1.1252269888471236,-1.228653868084604,-0.6292659776548153,-1.0561880209338688,-1.0938981157009933,-1.2025020186297215,-0.6961787458687988,-1.1244316560005096,-0.4550895870095949,-0.5720826860399286,-0.4614076370723053,undefined,1496336901856
903d185fccf839df,-1.0326621987635551,-1.0265799725218787,-0.7902633552325595,-0.8369432125391246,-0.9523230239098547,-1.9053164230692712,1.970433991510618,-0.6289914932522198,-0.2582609407330116,-0.6412520079042144,0.08597592785034566,-0.5769503350542852,1.7240836675579323,-1.1243011606386095,-1.2697065487680699,-0.7949558315581002,-1.1517459575134323,-1.1245812276740041,-1.231790669002312,-0.7742180659231871,-1.1611152737987134,-0.4723264349416731,-0.6234064162893326,-0.49564268733150396,undefined,1496336902836
903d185fccf839df,-0.31054851127413396,-1.0054474033615164,-0.7073222038709411,-0.75939621455045,-0.9481470351813484,-1.950184558502058,1.9151002365995409,-1.0116130782580552,-0.26360176112969214,-0.7045826725960267,0.0801681252374993,-0.8836030292341287,4.417899119875223,-1.1048586452274598,-1.1897064512838487,-0.8353680096600595,-1.1736462478462801,-1.1304075363112114,-1.2065041944695323,-0.8828694992403905,-1.1792018645047952,-0.46984038706293596,-0.6646728280059834,-0.5019870776753379,undefined,1496336904337
903d185fccf839df,-0.4158856599601701,-0.9162210067350961,-0.540163117113801,-0.6173625225077005,-1.1774049351494298,-1.9202398591281447,1.8366610137915658,-1.538724408017132,-0.33753711049933155,-0.6955409816448359,0.05822115525860388,-0.9978945562198348,4.304750167112299,-1.0428277732091802,-1.1370747953182152,-0.8030382488064232,-1.2052378932760182,-1.0931001649858885,-1.1617525922735825,-0.8322856050608269,-1.1348319581316821,-0.4706006282834334,-0.6773592124683425,-0.5212386714359577,undefined,1496336905836
903d185fccf839df,-1.0188020312759878,-0.9696394592481195,-0.7213581875875954,-0.7578640375396551,-1.3400218059717852,-1.8292225078805844,1.8128533784184166,-1.6471759111010953,-0.35148403817499024,-0.7154047808287438,0.09401896874702538,-0.7746592254548093,2.5030706885026737,-1.041901938525279,-1.1812853883907728,-0.9060892683421354,-1.224749400084732,-1.1013266587120873,-1.1963868061070175,-0.8372593030476759,-1.1520224810567437,-0.4654705386669838,-0.6747055690615522,-0.5287096545519733,undefined,1496336907368
903d185fccf839df,-0.7083348109377912,-1.0529956474373412,-0.7775031390020106,-0.8307129479094069,-1.1971123347722026,-1.8436591325660077,1.897412163837753,-1.0614213189464277,-0.38297159552452614,-0.555763768305579,0.06518824467920366,-0.49926210071211313,0.20092468805704103,-0.9983877634227162,-1.1454958692546418,-0.7383787765624129,-1.1102704537297174,-1.0351347312354233,-1.1395307211250019,-0.18464238720079848,-0.9535151185391149,-0.4513789204666958,-0.5209633381007615,-0.17149951220447826,undefined,1496336908872
903d185fccf839df,-0.4186577210620113,-0.669087429474061,-0.5669593170610043,-0.5519488469632486,-0.969983574965312,-1.8450753111955824,1.9590705986977035,-0.5647689415923547,-0.32785328633524197,-0.5192308556224114,0.028288398490574667,-0.08636009973650075,-0.2516711229946524,-0.8400701571268225,-1.09707475209778,-0.3504221409514027,-0.7569953840573307,-0.9557576143081992,-1.1155386568123875,-0.06833792881230806,-0.8857329675570338,-0.43962130541259026,-0.5394146866055246,-0.1718152727464513,undefined,1496336910350
903d185fccf839df,-0.5600312500070668,-0.21708551557068845,0.05254981627451845,0.022467984270241177,-0.5967156299074099,-1.834365468957923,1.950284417469249,-0.48479812961950475,-0.3703493685729664,-0.5869705915286567,-0.011575082609142529,0.0014219170480399227,-0.5127840909090909,-0.767855105204477,-1.0412852131919899,0.28404879662715604,-0.5007856473955334,-0.8993500847355923,-1.0817860411616478,0.3971416820029142,-0.7573679025490014,-0.4364178969720187,-0.5624310686291206,-0.1628309501716315,undefined,1496336911846
903d185fccf839df,-0.4810284229979494,-0.32157419985029156,0.05510135124672939,0.0592818180161082,-0.7009817398541227,-1.7781772311406265,1.9267686918518474,-0.592134465846573,-0.39136719111542356,-0.5624604796807435,-0.046364523055539786,0.06421907860128752,-0.40398702094474154,-0.761374278605637,-0.9612851267511194,0.6033047337045437,-0.46501232122311376,-0.8879887837894245,-1.0651686155130515,0.4724092819981317,-0.7286352060301668,-0.4443421164888453,-0.5863568781639956,-0.17239892359540887,undefined,1496336913357
903d185fccf839df,-0.38400738860661754,-0.35209909666457306,0.0397890917700707,-0.051698412861832195,-0.9065722483460132,-1.7314713262335943,1.9036237659040156,-0.7036497571674009,-0.47731882328084235,-0.6246491839162089,-0.029819630192292394,0.042922346675356236,-0.26907865418894833,-0.7410059090844242,-0.9718114498457889,0.4618621739433097,-0.6496867578492777,-0.8470273041560299,-1.0449618257073248,0.5413635198719396,-0.6883393364271367,-0.4601342788122671,-0.6706103497316553,-0.2276821284298924,undefined,1496336915036
903d185fccf839df,-0.22322956997031237,-0.39201614576481975,0.002784718838428309,-0.12831475822502555,-0.7980581467947441,-1.7162544059453835,1.9163756928506919,-0.5274754198288819,-0.5390671683734247,-0.5087264310347095,-0.11028405097363674,0.10512912727122878,-0.36482007575757575,-0.7021208847375118,-0.9423377260389063,0.5406659699987749,-0.6327318644321329,-0.7324136897483502,-0.910686028380993,0.7905873599720418,-0.544880767140426,-0.3912303732581176,-0.7399969254004131,-0.2020845175497804,undefined,1496336916338
903d185fccf839df,-0.4380619417424416,-0.47361125973168494,-0.20201713286730572,-0.2745949287498986,-1.170235807634482,-1.6596189543386963,1.8919631984908172,-0.7139283250094116,-0.4589958642592539,-0.4983948584585702,-0.058883153781471576,-0.03935677547708591,-0.26907865418894833,-0.691936738829229,-0.9718114719324903,-0.07157822652000585,-0.7739163230713113,-0.7451682382813976,-0.9243927812676613,0.08432225856136277,-0.7109104077037844,-0.3799219595490767,-0.6386708966631262,-0.3155786551036969,undefined,1496336917857
903d185fccf839df,-0.5281529268953996,-0.452478719799315,-0.26135201127088337,-0.3460009428130087,-1.1840700707433764,-1.6672239205277068,1.8981511359922334,-0.6915619497022445,-0.4866656487496822,-0.4375101280151325,-0.024494307961275448,-0.05051020663513312,-1.0045468471479502,-0.7891492737949609,-0.9865483080681133,-0.0008569395732084517,-0.740076667538877,-0.8056668505547862,-0.9265617921561834,-0.039989390355287445,-0.7667876769621549,-0.35240009703243846,-0.5692389339307118,-0.2907401996942693,undefined,1496336919409
903d185fccf839df,-0.7776355276066934,-0.518224458044895,-0.43871927101246255,-0.42870324159392914,-1.4066525517590815,-1.635967858690857,1.9029610564786987,-0.722411127937852,-0.40091649703189636,-0.610740932886809,0.07839876461002178,-0.0454135562228458,-0.9131573083778967,-0.8280343046172607,-1.0128641415726054,-0.4918646724479152,-0.7927607962828033,-0.8545698419859534,-0.9361474228186658,-0.2035824758401581,-0.8208727000827722,-0.33899738343601665,-0.5752272399494514,-0.26579085663114066,undefined,1496336920853
903d185fccf839df,-0.7540732325262062,-0.5012010815553595,-0.47253371695494245,-0.4751366801094845,-1.389629724238697,-1.624987825084015,1.9125440697279206,-0.6473802736603529,-0.3941745326385095,-0.6418432773366154,0.08726610570005373,0.015286333002787448,-0.8957497771836007,-0.8585868200467562,-1.0623378814680302,-0.6878636422622186,-1.094201179943136,-0.8741639697348775,-0.9709775471547849,-0.5527422272770667,-0.9191424507392251,-0.3225537904519955,-0.5267366759928873,-0.23810577576645914,undefined,1496336922351
903d185fccf839df,-0.8067417896165193,-0.5757520447727604,-0.5229366981340853,-0.5391811710003311,-1.4187176756635382,-1.671195273902904,1.8978250518854811,-0.8274257558278877,-0.3507000508157573,-0.6350043861713246,0.08940432203904698,-0.097391424937002,-0.2342635918003565,-0.8983976855529571,-1.1107589839004244,-0.7646466944485406,-1.1364683442117136,-0.9309324768700925,-1.0327523902565092,-0.8027205911098008,-1.0128957880853646,-0.3766053930453393,-0.6493868869626583,-0.5005688960668678,undefined,1496336923873
903d185fccf839df,-0.8940607654257506,-0.6244742896168355,-0.5267650171401994,-0.5790697558646007,-1.4868809900995117,-1.6746984506288574,1.9024482432320051,-0.8183590849105062,-0.33313473487772816,-0.6644708229269773,0.0755848639161316,0.06201016843313747,-0.2516711229946524,-0.9243210308006405,-1.087601062785024,-0.6999872787339735,-1.1254936081409532,-0.9367587842227932,-1.0191016120709515,-0.6350315221248508,-0.9823936066841148,-0.373778005871195,-0.5894725228772124,-0.3648750786067163,undefined,1496336925355
903d185fccf839df,-0.8372341511880853,-0.6450198730070688,-0.5631309980548902,-0.6068514272993378,-1.5504671687272036,-1.7181108103857523,1.9106926912320792,-0.8296507557011088,-0.31123657448772485,-0.6762092825814164,0.05498648739812629,0.0768020891020889,0.2226841020499109,-0.9104335332059785,-1.0465483784204415,-0.04935155612203175,-0.7554985561737212,-0.9192925260809929,-1.000665014915425,-0.023990408902173174,-0.8309883873391422,-0.36350048632109855,-0.5767940565036402,-0.28070206557843747,undefined,1496336926854
903d185fccf839df,-0.7970396792763041,-0.7659450210760592,-0.47891407920716633,-0.560474953097913,-1.4725838717841884,-1.8027972891809487,1.9214775199503393,-0.8661224311073207,-0.29064896036567156,-0.7118230411345204,0.055372622308372955,0.1692740200936035,-0.5475991532976827,-0.894694350055046,-1.0444431108566141,0.3668936847148064,-0.6593705057693183,-0.9129595817336641,-1.023194745962794,0.16422478795691287,-0.7961783215596921,-0.36860721333295965,-0.5752592869669333,-0.3028599999024708,undefined,1496336928350
903d185fccf839df,-0.6875445424537354,-0.6872849528718087,-0.3844879708272056,-0.440379785951331,-1.3234412644463212,-1.8488510067808015,1.9087124445101058,-0.9544589687822355,-0.2797878927238153,-0.854108790336095,0.04432633741259495,0.002193263769514024,-0.6259330436720143,-0.7845201359900852,-1.0402325757289592,0.35072882195343913,-0.6180878092781438,-0.8447727770263048,-1.030394464477236,0.21651790908290894,-0.7491562090002011,-0.38679994919843774,-0.6494578998183616,-0.2985400722045739,undefined,1496336929852
903d185fccf839df,-0.7610033507753995,-0.5417050871977429,-0.20520705985646823,-0.2493658668126407,-1.2422665428745856,-1.863152535931812,1.8966679257912151,-1.0254430693025494,-0.2541643526239933,-0.9912948752059527,0.021661401988027882,-0.06630410041127141,-0.7564895276292335,-0.6743458895481879,-1.0065483241566555,0.2456572069383716,-0.5872137488666316,-0.7782642027422645,-1.0069131671078198,0.28162253796451164,-0.6997829223446798,-0.3892256298554067,-0.7046466528519676,-0.3275674349509586,undefined,1496336931387
903d185fccf839df,-0.7055627498359499,-0.5340739214501572,0.06148171349895326,0.03167208373386603,-1.1956620490791507,-1.837782462988828,1.900276014048294,-0.9648682018390856,-0.2519912885614859,-0.9519911123486524,0.010234939762820283,-0.02874844393281854,-0.8130640040106952,-0.6428675491478719,-1.0023377963912345,0.22545112495357233,-0.6529997136777944,-0.7528057695134954,-1.0034777330530102,0.31626904029943037,-0.6815999885565323,-0.3952641053631387,-0.7299706660961102,-0.3360883145652511,undefined,1496336933672
903d185fccf839df,-0.6293319149178543,-0.5293777430092014,-0.1496999921851058,-0.23296752523906847,-1.1522564046240442,-1.8467709974209328,1.937240576576738,-0.7197965483724947,-0.2601999277301405,-0.9333830878651538,-0.0065086344805887755,0.024739015359613398,-0.7869527072192514,-0.6021308619085445,-1.011811496747341,0.23353359166515789,-0.6805367274068612,-0.7519064912843024,-1.0269870177393379,0.3351321360653674,-0.6861461286810544,-0.42113474942203244,-0.7273789377031009,-0.31758586747092793,undefined,1496336934337
903d185fccf839df,-0.5946815479570509,-0.5346608779922939,-0.03613381359627113,-0.06288814167119089,-1.2039831761327897,-1.8531833925432777,1.9540318879287055,-0.6362212449337745,-0.2603270342772325,-0.9000815158556454,-0.021918874465278022,0.04257907876001981,-0.13852217023172905,-0.6558292088209391,-1.1149695116658456,0.04157579867720415,-0.8305322320416789,-0.7667762433876287,-1.1075343049247863,-0.01079394087199709,-0.7897766515517815,-0.46155237623672346,-0.7183920026027588,-0.51229339290807,undefined,1496336935851
903d185fccf839df,-0.6695263695769307,-0.5687078355673114,-0.06229263807432051,-0.10178737066103362,-1.336750954469593,-1.8409805090288647,1.981179379985815,-0.4756585678256085,-0.2922241418903864,-0.7797311813533769,-0.000037648449259351396,0.0254406829956985,-0.45620961452762926,-0.5984275231729399,-1.1149695116658456,0.11027648307846594,-0.8131461464465001,-0.7544396689822626,-1.1048965075974198,0.021096239903046123,-0.7742896790686838,-0.45505726434232674,-0.7222939753145845,-0.5249769833327631,undefined,1496336937366
903d185fccf839df,-0.9772215805714006,-0.5023750530956176,0.08445010271394128,0.0649876477752096,-1.4481244814779943,-1.8469154100576386,1.954736681542093,-0.6679757910175774,-0.3375258413267384,-0.777215486283032,0.017412627667983863,-0.06911336795635913,-0.865286597593583,-0.6623100354197791,-1.112864251464252,0.09007040109366668,-0.8698747736174708,-0.7723175676990336,-1.096150493854764,0.0674609600034027,-0.7777948263143638,-0.45279952337294666,-0.7052242293040528,-0.5227148485953046,undefined,1496336938848
903d185fccf839df,-0.9910817653116728,-0.4747853481839124,0.2726634191830123,0.14790648362602044,-1.5657311399234548,-1.8360401920991725,1.9840511232730726,-0.4749945477452114,-0.32323810245297685,-0.7144015189201832,-0.018206786886580662,0.009762861149958812,-0.8304715352049912,-0.6539775524039113,-1.1170747718674392,0.021369801486569497,-0.8061688686358611,-0.758214101991065,-1.096710238333406,0.12070878248540047,-0.7610301850265806,-0.4361150146026708,-0.7003745221322571,-0.5176881615566367,undefined,1496336940345
903d185fccf839df,-0.8275320063424605,-0.46069695900100677,0.33965493559881815,0.2983835098016409,-1.4489164771591772,-1.8414021004570336,1.9437782732249707,-0.7193313566980227,-0.339633188766934,-0.7530471576234927,-0.045594588276863926,0.008185172848786438,-0.9088054255793226,-0.6836042299118121,-1.1107589728570737,-0.006918860268701452,-0.8332992191020269,-0.7733688366595339,-1.0815201617916816,0.2974213395998998,-0.7276871675792886,-0.43575655780419015,-0.6856213207527694,-0.5272393542085525,undefined,1496336941854
903d185fccf839df,-0.8330760595353235,-0.49591788811628235,0.30839202462854926,0.18897809124307208,-1.4362239272497683,-1.8462026635392317,1.9496690392686686,-0.6899207606235745,-0.34297107794767756,-0.7424916379085474,-0.03831798984238262,0.006145451700459286,-0.7956564728163993,-0.6882334065690117,-1.1002326497624042,-0.0048981022671973845,-0.8440049029553307,-0.7625078383026367,-1.067281651694346,0.3938772028447248,-0.6974354816982204,-0.4426277969484788,-0.7012381887501846,-0.5214316663597311,undefined,1496336943350
903d185fccf839df,-0.7928816911397716,-0.6385626495717488,-0.09419292451374335,-0.1604797756318309,-1.4416342050963167,-1.8481079809757115,1.9516203513436505,-0.6992177554136906,-0.3241794692509769,-0.673921929468498,-0.038330116762487786,-0.09281665816129353,-0.6172292780748664,-0.7169342396799303,-1.0939168544331557,0.2456572069383716,-0.7419107231945634,-0.7850974482614772,-1.0535679021558444,0.6941314899152878,-0.6361044403052138,-0.4364018268733182,-0.7421266539360863,-0.4978148966803566,undefined,1496336944853
903d185fccf839df,-0.7596172684663642,-0.7019603570528357,-0.07186241904180805,-0.05640842528122967,-1.3374709520639736,-1.850751667113328,1.9221980808617694,-0.8918762556748444,-0.3164421053666351,-0.6817091548934531,-0.010684119812338435,-0.05756886789893253,-0.45620961452762926,-0.7252667485973472,-1.072864197200466,0.23959538516940396,-0.6933067586584241,-0.7517924972738262,-1.036173830224669,0.6698635415881915,-0.6305184232775203,-0.44465754267536534,-0.7183961341873107,-0.47030206363624727,undefined,1496336946383
903d185fccf839df,-0.7069487286287559,-0.708417522032171,-0.1656501354048172,-0.17038179694314787,-1.2790481939737557,-1.8608326153905133,1.9241914802673876,-0.8860620684837271,-0.28581358946584723,-0.7409779487126086,0.029934363096332402,-0.15427504342695514,-0.6868594028520499,-0.7715584374646943,-1.0749694721265273,0.35881126040030314,-0.6688156045572048,-0.7704493497682096,-1.0326334440495286,0.6434090102652001,-0.6447472293337773,-0.45120555555660874,-0.6891318556870452,-0.47091281409721014,undefined,1496336947855
903d185fccf839df,-0.4144996466619543,-0.6215391853982363,0.0633958730020103,0.027392355835850757,-1.1187764610118938,-1.8874138924440953,1.8885444602732087,-1.1009431665541658,-0.3376040351154042,-0.8565109176216531,0.048938537776089565,0.02837885775859038,-0.8870460115864528,-0.7382284471227379,-1.05286417374969,0.33860517841550386,-0.6675136093926034,-0.7257324349549081,-0.9963339896005852,0.8223851437740467,-0.5816724248490187,-0.4470085202628691,-0.6565680991613172,-0.4588372664929414,undefined,1496336949364
903d185fccf839df,-0.5420130771302619,-0.6321055138204059,0.44046038968320506,0.3594914030013962,-1.0864176578708045,-1.9120525846296568,1.9040787266170742,-1.0226859845188188,-0.2953061829521336,-0.8777017416425817,0.05104380287787455,-0.007019311586807175,-0.9262129567736186,-0.7030467356098811,-1.0728642119249336,0.7164588860930007,-0.5271718575358104,-0.7191968378549729,-0.995438397569805,0.9189641961709943,-0.5572863995884791,-0.4443244740573797,-0.64336585664499,-0.40967740775010847,undefined,1496336950869
903d185fccf839df,-0.5835935105821443,-0.636801633805377,0.7237379524122389,0.7768127691172695,-1.0465400130953502,-1.9126209188194159,1.9200653118240352,-0.9113607877386002,-0.2942730465231121,-0.8239428082784125,0.00942095742248223,0.05706332400573671,-0.7956564728163993,-0.6049083562471671,-1.05286417374969,0.3466875603329248,-0.6536899470987487,-0.646532641330981,-0.9746368780626942,0.5973830615245956,-0.5917345060228038,-0.45195158327503887,-0.5865937627642787,-0.41864909229224,undefined,1496336952350
903d185fccf839df,-0.6944745399339947,-0.6567601145135118,0.715443430656958,0.7241603419560251,-1.0068989356648204,-1.893793680000502,1.9509655308049632,-0.6709107570911412,-0.2251828309305769,-0.790568779171082,-0.05951041755547942,0.08121269927315566,-0.5214878565062389,-0.5521358148794309,-1.0633905042065932,0.280007577403724,-0.6822353482938088,-0.5531470529672192,-0.9507217786636063,0.30002367945162334,-0.6083041247228463,-0.46162034191190005,-0.49646168894774106,-0.4113357073682805,undefined,1496336953845
903d185fccf839df,-0.5073627101694584,-0.6344535445848991,1.0051005932273676,0.9799276355953197,-0.8991768331996212,-1.8756209553908223,1.9629442934382837,-0.5400114179225202,-0.2119379721218378,-0.8500147620802846,-0.04963769390854672,0.007412361512222965,-0.5388953877005348,-0.4743658050379297,-0.9739167026851487,0.19110072622349836,-0.6495440433146694,-0.48736676835770537,-0.9137086493951346,0.3017483060954967,-0.5675008032446761,-0.44902555720678544,-0.5233351729382436,-0.43693062986405307,undefined,1496336955355
903d185fccf839df,-0.3826213753084018,-0.6262353053832074,1.098250425847324,0.9855575161456079,-0.824934672125994,-1.8939380913460828,1.933353713439686,-0.7392007248443172,-0.225874006310523,-0.8999881204495878,0.041959801284956556,0.021895062878780232,-0.6955631684491979,-0.4808466316367696,-0.9812851133907264,0.16281220579183509,-0.6497650335050519,-0.4782409968563201,-0.9236371241575978,0.28970671891595334,-0.5646408983812312,-0.47740580997789744,-0.5484299911911596,-0.4513539332793072,undefined,1496336956901
903d185fccf839df,-0.42697373184048637,-0.6919810436287874,1.1008022149564842,1.0437574038997548,-0.9158602355944855,-1.8973620725297171,1.9372090126500436,-0.750258778209712,-0.23671634829661947,-0.872876191521109,0.10356267364175013,-0.025653371201126686,-0.7695451760249554,-0.5151024793264826,-0.9991798840021426,-0.08370189832266264,-0.7194047161398363,-0.4566393256239263,-0.9254912792601315,0.05354076083701071,-0.6012073296274175,-0.4708861001517109,-0.5321045086809932,-0.4901452674718874,undefined,1496336958359
903d185fccf839df,-0.4907304815800499,-0.6497159345360553,0.8532540200838357,0.8459333876807348,-1.0108075033501704,-1.926712816034907,1.9571797600558851,-0.6724311450785183,-0.2248561829069534,-0.7705520378976112,0.14525592684130686,0.09626054675940053,-0.7129706996434938,-0.45770078720309604,-0.9949693709611892,-0.07359887146262378,-0.6999622994064828,-0.42671616514815275,-0.9094895739963489,0.03169036654679541,-0.5897086157937794,-0.42518038651935214,-0.5221127626328897,-0.4843939395416307,undefined,1496336959855
903d185fccf839df,-0.5129066598460922,-0.7066564624238106,0.38878164101795676,0.42639567821720775,-1.0439480185379415,-1.9719699350100879,1.9882956302534844,-0.5097322830746226,-0.1888705621684691,-0.7301298691678108,0.14318657906330584,0.009414113703204316,-0.7738970588235294,-0.46695914051749493,-0.9739166953229149,0.5143980379802865,-0.5309692168808704,-0.44274484769402817,-0.9230214065988662,0.7967159374902172,-0.42780581140728013,-0.4143636319595738,-0.670287177870804,-0.5653855433910668,undefined,1496336961347
903d185fccf839df,-0.365989181224403,-0.7829685144775642,0.5597687926442615,0.5325571513314415,-0.8123655524355301,-1.9962033398707393,1.9209699684056167,-0.9242816459511061,-0.18855258865013955,-0.9057857357276762,0.1524362973433033,0.024799175279487246,-0.852230949197861,-0.4280740902690334,-1.0591799690789385,0.7831388690222014,-0.4691129022563295,-0.46317492410802796,-0.9507637611743559,1.0017616362317678,-0.40703108500099333,-0.439362652101919,-0.6190699270207451,-0.5423631942195698,undefined,1496336962866
903d185fccf839df,-0.3257947265653267,-0.794708814439992,0.716719452280013,0.6444599928734348,-0.6520115363940105,-1.9998066725896706,1.8841684683572233,-1.1438200198292374,-0.19355028514587294,-0.9419550397083274,0.16196329902430778,0.0034699991464784627,-0.8304715352049912,-0.44751660891787687,-1.0486536459842688,0.7346442383410173,-0.4706616085606551,-0.4554677296871256,-0.9423815821600566,1.0024083722732802,-0.4020908218995567,-0.44115985496942633,-0.6261684283576243,-0.553024147694611,undefined,1496336964353
903d185fccf839df,-0.19550933851140706,-0.7853165598560535,0.9929785148768208,0.918725177517792,-0.4722484101029167,-1.9759645798759407,1.8514589424982635,-1.296245862289401,-0.20546769895465788,-1.0241697036063975,0.16857128249020759,0.03343359138178194,-0.8174158868092692,-0.32530650834757086,-1.0423378727417218,0.6012841876884512,-0.4313009590004327,-0.38282253212704576,-0.9342302978435173,1.1125534501004275,-0.3432523942964735,-0.4428152892753017,-0.6978413577984354,-0.5734511069935072,undefined,1496336965849
903d185fccf839df,-0.14422677746660476,-0.7301370769626623,1.383441639805516,1.4789660337475887,-0.528624310495441,-1.966486905453626,1.8977329946227088,-0.9954866999671638,-0.1686599266977241,-0.8222905191657024,0.15869153967467348,0.09225216288846498,-0.8739903631907309,-0.2854956201775145,-1.0412852279164573,0.7002940657287157,-0.380377521478689,-0.3349644784567511,-0.949385389394948,0.9868097464169256,-0.3455414821431516,-0.45505222715937454,-0.7354504000099046,-0.5746262829185873,undefined,1496336967361
903d185fccf839df,-0.13729677998634546,-0.725440942363695,1.6354560374273317,1.6438211270590903,-0.48437524609705906,-1.9775391451813014,1.919531447579371,-0.8392358055576976,-0.1787644052937415,-1.0503258992501623,0.1473340966673906,-0.005319836894486889,-0.9784355503565063,-0.19106057955040515,-1.0560220935010156,0.1809976993634595,-0.6192398312635683,-0.27147038313187294,-0.9398767236459921,0.3174701164594771,-0.45664384566131827,-0.4776576680595979,-0.6012869057185136,-0.5585925291168485,undefined,1496336968910
903d185fccf839df,-0.2315457532758361,-0.6802407875083482,1.7987868051783575,1.7453893055111684,-0.6015910464986527,-1.9697967538272454,1.9347001686229859,-0.7603301660034596,-0.18114247095634958,-0.9258329957720295,0.13440105837743557,0.06124734225702105,-0.9827874331550802,-0.21513227485644806,-1.0402325683667253,0.05774067557093217,-0.6598716324919733,-0.18422775040094133,-0.9470904361186259,0.22461749319160518,-0.43999807197208646,-0.4696430502462253,-0.518335512545089,-0.5978851492155509,undefined,1496336970355
903d185fccf839df,-0.33965485954748426,-0.7031343724350823,1.774542648477264,1.6948633766073915,-0.6541715297993145,-1.9791742698120522,1.8646079577214496,-1.2396898505329885,-0.20808575326121703,-1.191336039615132,0.12248657845757664,0.00848416014629612,-0.9697317847593583,-0.1706922100291923,-1.0349694105005076,-0.02914553066667556,-0.6694885011139292,-0.13781993846861307,-0.960489328782302,0.20866470427466938,-0.41966515378064334,-0.48440839651362166,-0.5022535600314875,-0.6009330248972734,undefined,1496336971856
903d185fccf839df,-0.37153316540644654,-0.6620432933385928,1.7821987782155935,1.7213187210677534,-0.7310365424454456,-1.9804204124388864,1.8269491438389516,-1.5082412508173195,-0.2325729329854533,-1.1794652210609027,0.11614172570350788,0.022296924369674197,-0.7869527072192514,-0.15680473186069216,-1.03286414293668,-0.02914553066667556,-0.6594707474632959,-0.1642473122904165,-0.9488396387399222,0.19385140095348716,-0.4303013443031924,-0.5014341084013705,-0.47411915134897253,-0.632093110930624,undefined,1496336973354
903d185fccf839df,-0.21075548479178033,-0.7048954466574388,1.2220247774205977,1.0839407770660967,-0.7570182170656333,-1.9938461472235738,1.9244045032518782,-0.8778362074371701,-0.24492478258977463,-1.2269992042118112,0.06381610150781261,-0.004178719073057637,-0.852230949197861,-0.2901248486378121,-1.0033904117675638,0.1325031252117185,-0.6179188271451561,-0.23199714389510903,-0.9191381761952868,0.3141902532335882,-0.4346816587347865,-0.5189936706206358,-0.5280430904177749,-0.5022262360189979,undefined,1496336974844
903d185fccf839df,-0.19828143411865803,-0.745986496525936,0.6420723143997766,0.6673772215602926,-0.8921208472358058,-2.030396570052233,1.9600567849480277,-0.7090874617365537,-0.23175054383284985,-0.8886399304917216,0.08032055552452666,-0.026432217484525695,-0.8304715352049912,-0.37252404808728734,-0.9728640799465857,0.45377979202588875,-0.7432983972190743,-0.28821468385074084,-0.9368471046709662,0.6089010987318804,-0.41065372542674,-0.5037092314581031,-0.6528018027043553,-0.5487654273694562,undefined,1496336976354
903d185fccf839df,-0.39093738608687684,-0.8504752977175084,0.09784871096144176,0.0912454608576857,-1.1086039126044016,-2.0353415451731425,1.9349789508356114,-0.9282010499317966,-0.24393361801074476,-0.7334844427204825,0.09177908506989968,-0.024406258821314905,-0.9088054255793226,-0.410483234512605,-0.9770746297987082,0.4840889291354484,-0.6498260473630312,-0.4112511142795119,-0.9715372925387521,0.4147421004765981,-0.5106246381610611,-0.4734089869735092,-0.601252527028384,-0.4504031991420879,undefined,1496336977848
903d185fccf839df,-0.6099277287428339,-0.9367665755113332,-0.27794003823364755,-0.3339055902880572,-1.2437373972350043,-2.066457851949747,1.9723537438489926,-0.7337311598182436,-0.23123464137150765,-0.5217502825054017,0.10155566796404417,-0.008584292329213167,-0.9392686051693405,-0.41326074180200206,-0.9602324892880888,0.4679240805064419,-0.6485248137497792,-0.5586947102001547,-1.0132732689104154,0.3319908525750588,-0.5965828015684594,-0.43809749229926065,-0.6519681062365774,-0.4232243080774341,undefined,1496336979346
903d185fccf839df,-0.7665474039682625,-0.9138729613566068,-0.23646946255283832,-0.22998961938012008,-1.2762916273995066,-2.058901799874463,2.0001192329111674,-0.5450636070910568,-0.22307370184623626,-0.6554959999215613,0.08326238967192254,0.09398137621576688,-1.021954378342246,-0.6123150272429891,-1.056022082457665,0.6760467503881237,-0.775714089612837,-0.6693439037648636,-1.0413234829687328,0.5498172567425503,-0.6158027864307875,-0.43599110941415403,-0.6914974451611641,-0.40790631062405364,undefined,1496336980902
903d185fccf839df,-0.7305110064565383,-0.8892183168215123,-0.13247357320539005,-0.17995752199673395,-1.2589499421286319,-2.011632218722443,1.977329336192298,-0.6363254452167152,-0.2711053526080786,-0.6840405776961308,0.03280728477349271,0.030620840656623783,-0.8261196524064172,-0.6530517339084784,-1.0918115905504453,0.6154283913748397,-0.723160301459905,-0.6994380532271633,-1.0636992841706976,0.5247177919844097,-0.6430070151465229,-0.438826469762664,-0.6589928520156996,-0.39358371912966433,undefined,1496336982349
903d185fccf839df,-0.6293318976651495,-0.7659450503040516,-0.08717467851846673,-0.2539455507458078,-1.2777521972091854,-1.9508320874707867,1.975230743600612,-0.5820446646841135,-0.2611986517605983,-0.8272962169170047,-0.01449381172737134,0.012223260292806789,-0.8957497771836007,-0.6956400969909955,-1.1054958186719728,0.6073460094574188,-0.6550860270357568,-0.715922705547438,-1.0849695888810067,0.47205510556947694,-0.6595495431948681,-0.45056609809467113,-0.6613573396680453,-0.3444600417296012,undefined,1496336983853
903d185fccf839df,-0.3285667531617582,-0.6743705936851458,-0.10631525700123952,-0.21602711594369198,-0.9984338082164769,-1.8225119702543284,1.9063640116854386,-0.860204211041298,-0.2266670308156789,-0.9117608903020556,-0.008275699383627705,-0.0060535313862392975,-0.8000083556149733,-0.7261925994697165,-1.09812737851746,0.6861496359245548,-0.633185065928533,-0.7441613012609755,-1.0789663255464266,0.6732819963695685,-0.6270873815786894,-0.4540452011818777,-0.6562512682247703,-0.22269260783591596,undefined,1496336985344
903d185fccf839df,-0.4768703485978924,-0.734833167719641,-0.3876778978163681,-0.47575620155809367,-1.067327407152184,-1.8117858241059464,1.92179309217589,-0.7882431333891047,-0.17012999790128322,-0.7795036478269292,0.027268042783659404,-0.06436088334371082,-0.8087121212121212,-0.7058242234731164,-1.0433904954802848,0.8174892112228324,-0.6857928316731687,-0.7569475143130898,-1.066442033716268,1.0166519319551912,-0.5547023945706769,-0.4579599951785948,-0.6842104675156409,-0.272166560004913,undefined,1496336986857
903d185fccf839df,-0.5725053351855988,-0.8299297143272751,-0.4412708059846735,-0.4782085153145389,-1.1188381762403972,-1.814271123225289,1.923331539248623,-0.8265601125183311,-0.22868217498965612,-0.6471886330909126,0.05214416317660163,-0.09150637705467149,-0.9827874331550802,-0.6984175783788434,-1.0423378580172542,0.9104372957588508,-0.5890971219724702,-0.7638884203952648,-1.05701033275238,0.8240635782721484,-0.5974027033490815,-0.48087334729618064,-0.6632704721542277,-0.2462576736998051,undefined,1496336988358
903d185fccf839df,-0.7859515556378733,-0.763596990311566,-0.5222983061171337,-0.5192303891419623,-1.328100683390275,-1.8959132865471267,1.9253091493582413,-0.9421857299398858,-0.29764010248276523,-0.659693279797332,0.07886759838151916,0.0030397644645646193,-0.8783422459893049,-0.7585967777916272,-1.0623378851491472,1.0842094538515723,-0.5979124349033093,-0.8294280538814143,-1.0589274586512047,0.9328228010036467,-0.5979307496063021,-0.4889566773331197,-0.7107756953081327,-0.2118967088398486,undefined,1496336989849
903d185fccf839df,-0.8150579039112236,-0.8827611518421771,-0.5414388845999065,-0.5678449073092611,-1.405593126570538,-1.890649205365699,1.9352787379552492,-0.8900253626475032,-0.3046665790025606,-0.6590718849392571,0.08239976250796777,-0.0473424054971358,-0.8391753008021391,-0.8122951570809581,-1.111811621363455,0.6942321309008619,-0.6545455609778924,-0.8805475751678089,-1.0935056985175766,0.8759409430942703,-0.6422782443097652,-0.48646329797444665,-0.6761273001670031,-0.32493453322226035,undefined,1496336991348
903d185fccf839df,-0.9009907801587148,-0.9226781717144314,-0.665851119916233,-0.6767024562739682,-1.4994603968833777,-1.9629371436551903,1.9361413103487601,-0.9617001509457038,-0.3049164812650575,-0.7019038271266635,0.0870294173154227,-0.06186622790172043,-0.8870460115864528,-0.8863618573260974,-1.1181274166927035,0.7770771037826769,-0.6579546617060132,-0.9536107470105964,-1.1127889092447625,0.43600735556303016,-0.7747889558173137,-0.4821863874028126,-0.6904670491630981,-0.39911117972288446,undefined,1496336992885
903d185fccf839df,-1.0936468528958676,-0.9573120858315856,-0.8840510715955686,-0.9226688001456358,-1.6199573379471042,-1.983224817896,1.9502449573232719,-0.8994554446766911,-0.2896661181425831,-0.6852440974071563,0.08616317654104451,-0.00838984545612332,-0.9610280191622104,-0.9141368751792769,-1.164443258923504,0.09815285367289146,-0.8231660361123878,-0.9878529735296216,-1.151481273258212,-0.1521516693284805,-0.9398671273888559,-0.4738281561538877,-0.6002034302446924,-0.4100199531927758,undefined,1496336994351
903d185fccf839df,-1.1865098128871425,-1.0670840366202468,-0.9427480662560936,-0.9934789902862932,-1.7204383111455988,-2.0296092878607337,1.9513179213265266,-0.9424698298804886,-0.28040430976646763,-0.6786016910549583,0.0889481624992542,-0.025232848707869664,-0.9479723707664884,-0.9965360875795266,-1.2033906794053764,-0.2089795599916275,-0.9483777373100348,-1.0526136556078518,-1.1793775584559723,-0.32030269264610534,-1.0113503200853757,-0.46404243498788955,-0.5964718782204432,-0.40421407990245334,undefined,1496336995847
903d185fccf839df,-1.1823517729924953,-1.0365592274899422,-0.8974491715691703,-0.9547649738041455,-1.6366407353346646,-2.0137890947197468,1.9323622927229578,-1.0347087348898254,-0.27266751587664007,-0.6492820393576338,0.09686177729315051,0.05138858608029129,-0.8130640040106952,-1.007646090835566,-1.2170749020052285,-0.720193346586412,-1.097283164140069,-1.0534686031537897,-1.1909782709690249,-0.5754549337179977,-1.0714760959887086,-0.4645376563447861,-0.5996132348734602,-0.45945702432502794,undefined,1496336997353
903d185fccf839df,-0.860796394510458,-0.9778576546078227,-0.7111500146031563,-0.78388436210008,-1.453565614793235,-2.0159389820652565,1.943762503831885,-0.9310687767921103,-0.3007353792446927,-0.6388837067707355,0.07887227348746435,0.015841588334749936,-0.9436204879679144,-0.9770935721683768,-1.1791801208269455,-0.7444406124637414,-1.0679573517868703,-1.0391688160976986,-1.1773204963579653,-0.6753754488575636,-1.0857833010565916,-0.4492202143481611,-0.6248333857053401,-0.4900258637396821,undefined,1496336998857
903d185fccf839df,-0.54617101350868,-0.6861109228755659,-0.5490955226121347,-0.5618114595054066,-1.278533907711465,-1.9881138910582277,1.939389135957994,-0.9055886510892143,-0.3606516693234782,-0.6342295638902213,0.09161166237039384,-0.05672758592099377,-0.7695451760249554,-0.9845002431641987,-1.128653747149607,-0.714131517751264,-1.0425018778808866,-1.0519930276091574,-1.1483676931704894,-0.7058643707065879,-1.0890708564637515,-0.4521910861459124,-0.6234570314310234,-0.4770385767935395,undefined,1496337000341
903d185fccf839df,-0.6362620159143428,-0.8833481376123061,-0.764105039028409,-0.8155708161443851,-1.4333953650153488,-1.9988214043982515,1.9602803061959369,-0.8043534102256384,-0.34935458605540737,-0.6772445106722053,0.07788934483158232,-0.02399248962429322,-0.7695451760249554,-0.983574405242604,-1.1402327077073071,-0.7505024624974305,-1.0902889102694735,-1.0428102592880124,-1.1451841441726645,-0.6870012744829322,-1.0803119271088992,-0.4541989115339881,-0.6307521537951021,-0.483261946664618,undefined,1496337001858
903d185fccf839df,-0.9869236909116158,-0.8457791631185412,-0.847684582406979,-0.9040374654203993,-1.630603035276152,-2.0363314727861983,1.9496585169122485,-0.9147886341445701,-0.2914599062600592,-0.6667904405652029,0.0989483052134434,-0.00644748902785024,-0.7695451760249554,-0.9641318930691477,-1.1465485030365554,-0.7282757850332761,-1.0714251316821386,-1.020385305731904,-1.1406642042545752,-0.7343206976220792,-1.077757182498627,-0.46042930656299236,-0.6293593913989844,-0.4766944976096998,undefined,1496337003391
903d185fccf839df,-1.2003699717483574,-0.9373535905094545,-0.8776707093433448,-0.9286881250983646,-1.7750759361065411,-2.087106558143383,1.9528116580740518,-0.9513857534913349,-0.29477784565935633,-0.6665785598862853,0.09121595246690091,0.024024553093376474,-0.8826941287878788,-1.0030169206537538,-1.200232781740752,-0.45347310395767193,-0.9360941172000347,-1.0385418554764534,-1.154846739724205,-0.5034056082017878,-1.0313041288513094,-0.4603909426243065,-0.6473226016797904,-0.4771331183211246,undefined,1496337004850
903d185fccf839df,-0.8691124570470476,-0.9185690740345798,-0.8374764094225399,-0.8718338036566016,-1.5855722553581837,-2.1062738667361693,1.9678567809736796,-0.8376768098591963,-0.27004709605303695,-0.6884697780866224,0.09025721777685315,0.09330961217838157,-0.852230949197861,-1.0456052869739645,-1.2349696634138525,1.0842094679839331,-0.5400122390344875,-1.07367069378365,-1.1844432495001012,-0.006620963744605963,-0.9286449466096768,-0.4710940947263893,-0.6134499623511228,-0.48972572467184466,undefined,1496337006346
903d185fccf839df,-0.8691124397943428,-0.8698467926555142,-0.7404987660703682,-0.794935305633566,-1.485471851899839,-2.0692902064413583,1.9553152445892257,-0.8957680343179649,-0.2883837024103745,-0.7300048054677142,0.08267164835871613,0.045690122630140495,-0.8913978943850268,-1.0363469271841783,-1.217074903845787,2.2359560139262444,-0.034664891670076886,-1.0470976617146734,-1.177985193054811,0.8949888133667098,-0.7005780038198172,-0.4603152845838617,-0.5163906659600389,-0.32766557554089415,undefined,1496337007844
903d185fccf839df,-0.841392139324618,-0.8164283693704832,-0.47444787645799946,-0.508658978258365,-1.429034230979431,-2.009104994335968,1.9277864336486918,-1.0222726193449467,-0.31382330981239326,-0.8149614302754219,0.0638974702087092,0.028642596734655516,-0.7913045900178254,-1.0067202464385838,-1.1907590813846456,2.171296562880775,-0.08965007233957184,-1.0124057957793036,-1.1616756271031397,1.2229141059753503,-0.608074827887074,-0.44964266725123125,-0.5585535033374341,-0.37235401624571446,undefined,1496337009349
903d185fccf839df,-0.824759979746029,-0.6191911546337431,-0.29899477621947734,-0.2938243040877868,-1.5063621013886572,-1.9201816302964025,1.9387474586752553,-0.8715872628182662,-0.29209722086449097,-0.8681104478697822,0.031211382338756442,-0.03751179440707196,-0.8043602384135473,-0.9409860583485551,-1.133916897653591,1.3731564516724513,-0.48046408213737846,-0.948829373864229,-1.1198346980422589,1.3989645338666536,-0.5317716527555129,-0.4315188198430937,-0.6992049261671996,-0.4888915292918388,undefined,1496337010871
903d185fccf839df,-0.6653682951768737,-0.6579342029657393,-0.05846431906820642,-0.10170634715137189,-1.2672813590664,-1.9121317794561943,1.8963839133022722,-1.0933297006316463,-0.33569546226182767,-1.0599680557648978,0.04406115006414295,0.02395415553910765,-0.8174158868092692,-0.8752518378815899,-1.092864228013476,0.8033449227422792,-0.6359353026637325,-0.879983942947981,-1.0896434592745574,1.8682475565337924,-0.39643331071809845,-0.43152394823699936,-0.7340295042422026,-0.5613278496949698,undefined,1496337012361
903d185fccf839df,-0.5932955346588351,-0.6884589974820476,-0.1343877327084471,-0.2163106179335378,-1.1039959178585237,-1.9571187060351816,1.9211277597560008,-0.94592077042288,-0.34940486372944274,-0.9955012303808743,0.056241789744307345,-0.0584042875131497,-0.8565828319964349,-0.8298859739850629,-1.0907589604496484,0.5669338172230988,-0.6859879708574961,-0.8431895398778171,-1.0742784622162336,1.540137483952952,-0.4701225092508348,-0.4250482425771321,-0.6794232932970599,-0.5282219406882995,undefined,1496337013861
903d185fccf839df,-0.5572592234106353,-0.8539973877062367,-0.42213073577579957,-0.4589597718559377,-0.9512430294357831,-2.0310184775254734,1.9276707233438133,-0.9512417926674009,-0.286216679993223,-0.9502998461329815,0.06306479883748196,-0.035872464354056985,-0.8957497771836007,-0.7493384374280028,-1.03917996035263,0.4113469831136723,-0.9269692691410942,-0.8281108014470268,-1.0419741862701566,0.9885651668957478,-0.5910200605833249,-0.42161442612475025,-0.6964536364871423,-0.5184746246696893,undefined,1496337015418
903d185fccf839df,-0.5572592234106353,-0.8557584327006009,-0.4061805925560881,-0.4207664109545578,-0.9502967452042168,-2.0322809251135987,1.9263689701055478,-0.9606178882059039,-0.2869470019641612,-0.9514582848053867,0.06308141989405355,-0.00635621261824457,-0.8870460115864528,-0.7502642688742104,-1.03917996035263,0.40528516134470466,-0.9198911968458616,-0.8263755748129814,-1.0420721416346643,0.9814356871522225,-0.5924659280787975,-0.4223804028528501,-0.6953202833428966,-0.516114199123568,undefined,1496337019627
903d185fccf839df,-0.591909555866029,-0.8592805226893292,-0.3934203763255392,-0.4063738936309507,-1.009110360009956,-2.029802614560428,1.9495717485870145,-0.8333386344260488,-0.27623462150974465,-0.7603363498742456,0.06463883332046355,-0.005939803323122375,-0.847879066399287,-0.7493384244772283,-1.0465483857826752,0.2941517810901126,-0.9234442828690264,-0.8167051696459672,-1.0406028112893917,0.9215819289082303,-0.6056777043381494,-0.4233122342677024,-0.6763098741650655,-0.5119526954807337,undefined,1496337019850
903d185fccf839df,-0.5392410160284207,-0.7935347990577453,-0.42595905478191365,-0.5008228260021216,-1.0085652209976805,-2.00600244850145,1.9483988499570977,-0.8130293692284835,-0.31392891769091513,-0.7598441877636753,0.078759476237669,-0.08821185132167952,-0.9088054255793226,-0.7660034423120619,-1.0623378741057965,0.3931615743362125,-0.8336891417161063,-0.8082696886344611,-1.0287362198835033,0.8182737610880938,-0.62772706126855,-0.4348600973563218,-0.6443942085948028,-0.4631861061107033,undefined,1496337021371
903d185fccf839df,-0.6612102897876361,-0.8909793325878841,-0.6186380657262527,-0.6935024702352539,-1.185818637423443,-1.9283549300436533,1.9335535921207068,-0.8830791380975759,-0.3528065489436717,-0.7106399606943221,0.07889709814640822,-0.05008665766101716,-0.9218610739750446,-0.7928526125305656,-1.108653716336597,0.7386855564909748,-0.701915788439173,-0.8668937489869184,-1.0706751043333602,0.7198007003320462,-0.6843170210392255,-0.43950157276095375,-0.5649723792273014,-0.3845224673939461,undefined,1496337022849
903d185fccf839df,-0.9564313638454595,-0.8487141942671595,-0.7966432092108845,-0.8691794810226978,-1.3918514341388344,-1.8115319364082885,1.916470372060514,-0.9287141331481361,-0.35011341232178256,-0.7008052066401418,0.0808270871281688,-0.05242866460925721,-0.9088054255793226,-0.8271085023102959,-1.1223379370958908,0.39720289248616986,-0.6819580406232147,-0.9377593887147879,-1.1008523496383515,0.16039057664280235,-0.8442950918446763,-0.42999413852880114,-0.5264263516618639,-0.3318133285487222,undefined,1496337024350
903d185fccf839df,-1.0479083622966332,-0.8082101593967839,-0.86873881211891,-0.9295394761525002,-1.7149251752643888,-1.8155079475977844,1.922008739202474,-0.9421039349547554,-0.25780328800886093,-0.694639227151118,0.06836117249472123,-0.03341931530418565,-0.9914911987522282,-0.8928426839249374,-1.1454958729357587,-0.0008569961026515238,-0.8545791740519152,-0.9918300618323606,-1.1243266506862561,-0.3655895255904523,-0.9858572427792107,-0.4366962133439135,-0.5618323666764999,-0.30156656866252096,undefined,1496337025848
903d185fccf839df,-1.2253182197425934,-0.7729892302815082,-0.9542325150005371,-1.0151947681951303,-1.7897639066882265,-1.8917555928892502,1.9317837244382159,-0.9547832068510564,-0.2485987638458091,-0.693308337826454,0.07026882256248992,0.03627883577445353,-0.9914911987522282,-1.0344952740048443,-1.2170749001646701,-0.7767703662511974,-1.072213607570388,-1.0755705759511711,-1.2134660213224113,-0.7586194448190278,-1.1315809607394707,-0.45817312304751273,-0.5730512143576973,-0.43967216866686726,undefined,1496337027345
903d185fccf839df,-1.2724427408927483,-1.1193284006810424,-0.9880469609430169,-1.032095275198218,-1.8444323874339439,-1.9827612988218577,1.9628154346398479,-0.8496754388848492,-0.27980569194516663,-0.683955049349532,0.09231883859987046,0.09243711543171645,-0.7216744652406417,-1.1178203178513015,-1.2781276098205874,-1.1020882098917173,-1.2448208462316999,-1.1418954953724036,-1.2589592857649077,-1.1439347440771594,-1.254447387671297,-0.4685762566839896,-0.6650885373761971,-0.5208136970558624,undefined,1496337028837
903d185fccf839df,-1.279372807383827,-1.0729541573734682,-0.8872409985847312,-0.9408998932915233,-1.8380038278111683,-1.9543818484197977,1.8987507259443355,-1.2553577675205208,-0.2799512786740217,-0.6811849635238135,0.0825658559518498,-0.014901361071217183,-0.7347301136363636,-1.140040334076461,-1.3107592276109772,-1.1889743631329721,-1.3437441120214138,-1.1582534890018403,-1.2792150533874633,-1.2306125929827385,-1.2858280840179561,-0.4685013326155953,-0.6697608729318194,-0.5209335950588428,undefined,1496337030392
903d185fccf839df,-1.307093090600847,-1.0700191116108537,-0.8515123931391942,-0.9055467676572458,-1.8413981084780309,-1.929354173587929,1.8655415405698481,-1.458517036947667,-0.2830515431657087,-0.6791762167079288,0.08535964797630594,0.18354999115360837,-0.8087121212121212,-1.155779504276619,-1.3223381900092357,-1.2112010441302168,-1.3664924516317525,-1.1692981427641387,-1.2964062176380546,-1.2593614905501815,-1.3010206662865782,-0.46946802684276495,-0.6717317146751933,-0.5251027070133326,undefined,1496337031851
903d185fccf839df,-1.307093090600847,-1.0981958607486726,-0.8400279443947508,-0.8899500735070851,-1.8781180475235246,-1.9228206579048441,1.8659439083561995,-1.452285901711574,-0.28099024299905256,-0.6876776814370678,0.08663439033425051,0.36700709332723697,0.4489820075757576,-1.170592846268263,-1.3433908454013672,-1.2213040851226165,-1.3852634567946276,-1.1903298491486174,-1.3188379932230427,-1.2791176960308426,-1.3238734265485435,-0.4769956401961186,-0.673887907835788,-0.5295480614137977,undefined,1496337033358
903d185fccf839df,-1.3209532580884142,-1.1075881007186148,-0.9051053013074997,-0.9523042099160689,-1.8890003152262858,-1.9305816830856621,1.906027421982615,-1.1925881631997615,-0.2829614119300585,-0.6804732972497678,0.08901505980116337,0.7339195366651823,2.7598317736185383,-1.1733703478916964,-1.3433908454013672,-1.2091804309854106,-1.3835920763978655,-1.1939839576836926,-1.3199714765850645,-1.2681540031019458,-1.3236653024417824,-0.4768576890090739,-0.6742532903845838,-0.5297450785574511,undefined,1496337034853
903d185fccf839df,-1.2821448339802586,-1.1052400699541216,-0.9453001095022034,-0.9974089045725146,-1.912760274981043,-1.9478646383231806,1.9800459362642664,-0.7124296613769492,-0.28136455442240876,-0.6829438011661048,0.08822717119920326,1.0208084031628681,4.165489917557932,-1.1724445172549123,-1.3454961129651946,-1.209180436285046,-1.3864030037910147,-1.1941422812756275,-1.320888058785441,-1.2747753346169244,-1.3255738852228816,-0.47681493569763167,-0.6744881978603445,-0.5297343642539872,undefined,1496337036379
903d185fccf839df,-1.2863028652485535,-1.0929127257655802,-0.826630352695048,-0.8849813402433332,-1.9163705540093807,-1.9620264123328535,2.019632407084596,-0.4577211144578989,-0.2806893390387339,-0.6934989551078409,0.08759777872620753,1.0141257699078494,4.491881127450981,-1.170592846268263,-1.3486540133906564,-1.203118605683353,-1.3840529546049694,-1.199208636250761,-1.322567293353024,-1.2545417775293632,-1.3259166356926049,-0.4772007882045122,-0.6731743769119168,-0.5295959760763509,undefined,1496337037846
903d185fccf839df,-1.2710567017154752,-1.1075881007186148,-0.8374764094225399,-0.8973620955511089,-1.7888381962113524,-1.960701075115055,2.035931940475013,-0.3274672699120212,-0.23456976419770956,-0.6976168966380245,0.08563440818424545,0.7596422549634649,2.9208514371657754,-1.1631861817478284,-1.3454961111246362,-1.1849331333102695,-1.379604334264014,-1.1652893903631194,-1.3096301900298137,-1.159918330719651,-1.2901889204910308,-0.45572115408463687,-0.5810202669307167,-0.4759852307967499,undefined,1496337039345
903d185fccf839df,-0.9508873106525965,-0.5710558078758199,-0.7111500146031563,-0.79853158715085,-1.5822191143906708,-1.762454868236266,1.9147294327398843,-0.7454763106128629,-0.14437460972337032,-0.7217270206162255,-0.09577851294274665,0.3779549661825489,-0.16028158422459893,-1.1307819937128367,-1.3265487232963322,-1.083902755184085,-1.2940490998532082,-1.0899146947092637,-1.183890501079937,-0.5720826817714659,-1.0951986278053703,-0.36949574902492666,-0.33916456283881885,0.29380166265991164,undefined,1496337040854
903d185fccf839df,-0.8691124742997525,-0.4859386623762111,-0.3321713384189045,-0.4674734419105936,-1.4149839675245446,-1.729340073515344,1.8739569221287333,-0.9469202214767682,-0.22335921470075074,-0.6319681296602179,-0.09538739577482859,0.05689597334771209,-0.8000083556149733,-0.9011751960800478,-1.0244430855652795,0.30627545289276936,-0.5213576301134721,-0.9972447300053303,-1.0724802804690572,0.2613735806948662,-0.8371331971842607,-0.3343992387152462,-0.13109235515194553,0.6023678617553635,undefined,1496337042350
903d185fccf839df,-0.12482259129158423,-0.1548618673138367,-0.05974059482821074,-0.17442204456097793,-0.9786646950476389,-1.779253340636002,1.8689655509646457,-0.8976600016923022,-0.663538678125169,-0.7087539273545106,-0.07893537716936376,-0.04448070102225227,-0.8348234180035651,-0.8048884666589743,-0.8549691920812893,0.3749760807645881,-0.4588604612501376,-0.9286336177615325,-0.9888683904560621,0.38514628585177063,-0.7518883253962307,-0.33582800339546703,-0.23272893554469667,0.44133445471853294,undefined,1496337043892
903d185fccf839df,-0.06245195836646564,-0.683175847884959,-0.20201662459340686,-0.2433457027325713,-0.9808246930701456,-1.9448249797358694,1.9148057007066563,-0.9109635669945706,-0.5411620589813114,-0.8092711979488828,0.04421019940488162,-0.036023252157370574,-0.9653799019607844,-0.6669392347408339,-0.8233902154350469,1.2236314958614354,-0.3163128832288003,-0.8541012034562065,-0.9089158328313056,0.89980852995504,-0.5850474933101528,-0.33014803069785703,-0.34858729469628785,0.27652745593105976,undefined,1496337045361
903d185fccf839df,-0.10403235731293821,-0.6966771782277547,-0.3257914844405795,-0.3999459713673572,-0.7267062637861968,-2.0133418804886554,1.9170988851368684,-0.92196249821765,-0.46327839281159233,-0.8475408760448919,0.050015522319698885,0.023333216375538365,-0.9218610739750446,-0.7030467356098811,-0.8654955004514913,1.6439178428628194,-0.2849972972279417,-0.7727798728144866,-0.8522556584498467,1.7526822294905267,-0.34227544692554335,-0.3882167249046995,-0.4901650141964429,-0.01978757117323779,undefined,1496337046863
903d185fccf839df,-0.7124928335797336,-0.823472563961936,-0.5095385981604836,-0.5397069234594696,-1.3674949069326217,-1.9890502451014895,1.9468945950432393,-0.8521696172263391,-0.3088192586866792,-0.7117672494868144,0.025242659378353568,0.04032747300224494,-0.8304715352049912,-0.7678550987290896,-0.9476008839051242,0.9063960341383365,-0.39581395119200063,-0.8459507035979933,-0.958726130300408,1.3054343879381185,-0.49580865461191764,-0.37746170038196636,-0.4530671652470745,-0.28006227619628005,undefined,1496337048362
903d185fccf839df,-0.6307179799741847,-0.9537900250708496,-0.531869103632419,-0.5527226077752352,-1.4068171251522807,-2.0553031261626495,1.9555229922539625,-0.8601754016656669,-0.2689904006832923,-0.7356709229785711,0.030575561078102755,0.01415737119485531,-0.7608414104278075,-0.8882135169808189,-1.032864150298914,1.1811986445521367,-0.40593969052833134,-0.8935237763419983,-1.0081725931696115,0.7664271997668581,-0.6526785205698932,-0.367508542924785,-0.40018335648667835,-0.1718001684660926,undefined,1496337049851
903d185fccf839df,-0.9162369781972027,-0.9890109541861252,-0.5969459522712689,-0.6383485691536112,-1.5668625681260846,-2.05285742462782,1.9811504558140414,-0.7285752387860309,-0.31878472450537315,-0.6229449543260224,0.05715523051462028,0.019329244808075994,-0.9088054255793226,-0.9650577245153553,-1.1833906522734834,1.0175294709223717,-0.4783308611836455,-0.9558906062970609,-1.116427251622448,0.41351022796415104,-0.7900143373130591,-0.40022319742550827,-0.41447164935927977,-0.24089968507206255,undefined,1496337051355
903d185fccf839df,-0.8289180023879713,-0.9895979691842466,-0.5427151603599109,-0.5989793658572531,-1.5098489486156383,-2.056444452293043,2.0099441943641754,-0.5259640446227262,-0.3333488099047783,-0.6502444343152806,0.051719204955236,-0.2030608698569987,-0.4779690285204991,-0.9715385673026634,-1.221285435292325,0.21130687887010147,-0.9092472603884582,-0.9836099009944722,-1.1771035953553635,0.11016085116452774,-0.8843952311826465,-0.45260929547296735,-0.44543474364615754,-0.29703161832509484,undefined,1496337052853
903d185fccf839df,-0.9453432747124384,-0.9989902091541888,-0.7749510957559008,-0.8403850113070785,-1.5844716807397563,-2.042210470488151,2.012758091402929,-0.5081570490900497,-0.35391064043997805,-0.6233482706422394,0.06926901871981099,-0.493504794561262,1.258432208110517,-1.0502344409673086,-1.245495993870756,-0.7686879278043334,-1.162200472532281,-1.0762545345770225,-1.231937602110244,-0.7678893080891799,-1.1390920386943875,-0.4673493448880241,-0.6632621623131318,-0.4959716227406577,undefined,1496337054339
903d185fccf839df,-1.0825587378837893,-1.0330371082732215,-0.8215262662028284,-0.8781455012083513,-1.603500221681293,-2.017005773169479,1.9769296050183018,-0.7340281251093651,-0.33600133099679336,-0.6926233594106279,0.07502268621768522,-0.7699770061335005,2.79464683600713,-1.060418625727915,-1.237074927296563,-0.8636565159593621,-1.197273744808141,-1.092935508273103,-1.2196372085095235,-0.9057515895235924,-1.173766495214178,-0.4696375315363529,-0.674937660570255,-0.5086466428179076,undefined,1496337055870
903d185fccf839df,-0.5960675612552666,-1.0711931416070963,-0.866824652615853,-0.9237295219988844,-1.3550286375248,-2.0179537740299294,1.9401307363446552,-0.9560743408385912,-0.3472909465283972,-0.7028041901623088,0.090064754151841,-0.9941488474629282,3.869561887254902,-1.0724544669055491,-1.247601252231791,-0.8980068298952714,-1.1986539297091,-1.1064563429800416,-1.2312729051136617,-0.9504686748572869,-1.194056803071009,-0.46917354694153857,-0.6669392856512557,-0.5019483494192427,undefined,1496337057405
903d185fccf839df,-1.0160299701741466,-1.0236448683032793,-0.8878793906016827,-0.9409922572812869,-1.142412994236667,-2.002809060866458,1.9371748246812557,-0.9486064425889664,-0.3379194798930997,-0.6989430896290544,0.09034990396360852,-1.1242681541420638,4.074100378787879,-1.1030069758596575,-1.2507591554180906,-0.9242747336490383,-1.1825602799357806,-1.124435570118914,-1.242040997046751,-0.9893035547440024,-1.2137796059587074,-0.4671184863562343,-0.6622136483823592,-0.4985134423440255,undefined,1496337058882
903d185fccf839df,-1.0922607705868324,-1.012491583338973,-0.8814990283494589,-0.9352563447221659,-1.0924965065269838,-1.999478249124691,1.9380084718554704,-0.9367017214359196,-0.33425676121132514,-0.7036750097740904,0.09044842336613185,-1.1395539817225782,4.391787823083779,-1.1085619807253708,-1.2591802192314456,-0.956604445039412,-1.2208807740491598,-1.1378107469994658,-1.2502692467539476,-1.0037011012632049,-1.225050836570043,-0.4683105343416379,-0.662627655125239,-0.4966553986241374,undefined,1496337060397
903d185fccf839df,-1.1698776533085535,-1.0518216174410984,-0.9204175607841584,-0.9708972606040586,-1.1122759022540427,-1.984957772399597,1.939683654043008,-0.9314815313891409,-0.3067658823429335,-0.6733925004540668,0.09187414223535356,-1.1506032661446104,5.083737188057041,-1.1363370018162438,-1.2886539421180492,-1.0354081704330735,-1.3085461261182163,-1.1671069447722078,-1.2638430597874137,-1.0595050668335826,-1.2536540906097546,-0.47349843539983005,-0.6624953916277515,-0.49760380974573526,undefined,1496337061843
903d185fccf839df,-1.1005769193869464,-1.04829952745237,-0.9478521527483131,-0.9932269471264396,-1.2065134590946411,-1.9822605132249458,1.8996921966318427,-1.2090015840949309,-0.27948166775340544,-0.6806454792586499,0.09558669480767698,-1.103981069630288,4.866143048128342,-1.13633699857855,-1.2739170802146078,-0.9465014111131927,-1.2710851376657801,-1.1614136284339156,-1.25082899164855,-1.031248918887692,-1.2392083665454325,-0.47498913966659245,-0.6546822979647478,-0.5016542763174373,undefined,1496337063409
903d185fccf839df,-1.0104859859921032,-1.0471254974561273,-0.9306257337685975,-0.9760508228421935,-1.2299751341414145,-1.9817830192364767,1.897364814805146,-1.223345573668292,-0.28247735396930146,-0.6780414667595294,0.09207239869400087,-0.9157502692841328,3.87826565285205,-1.1298561622666292,-1.2739170802146078,-0.9343777675752576,-1.2602465313470703,-1.1473418277654606,-1.243251445414055,-1.0153269269693472,-1.2275795175864472,-0.4688724482375841,-0.647932850226137,-0.4949856430714928,undefined,1496337064868
903d185fccf839df,-0.957817411649085,-1.067671051618368,-0.8712908553650197,-0.911229362850922,-1.224019717018522,-2.009372857608465,1.8824275185613761,-1.3351045332763474,-0.2826092963741752,-0.6633725612731326,0.08866545795674159,-0.6631016806781689,2.6902016488413545,-1.1205978186653114,-1.2791802454430594,-0.776770359185017,-1.2120459727581077,-1.1363288384170327,-1.2421459492710718,-0.7648096160516769,-1.1635420443191102,-0.4677486434964804,-0.6104718712762203,-0.43957840528941683,undefined,1496337066367
903d185fccf839df,-0.7831795635468516,-1.0535826624354625,-0.7921775147356166,-0.8116831545240171,-1.2210471508884864,-1.9747766666471316,1.904504734875271,-1.133210365942655,-0.2697741046665324,-0.7497160341270571,0.12243073962102655,-0.32866477145560785,0.4446301247771836,-1.0983778121532326,-1.265496013640415,-0.8212237494442279,-1.0962262587154472,-1.0666664577996212,-1.2308810840043038,-0.6464571668555082,-1.1010801460709114,-0.44290645849073645,-0.45666439427795824,-0.4023520761010144,undefined,1496337067844
903d185fccf839df,-0.4200436998548173,-0.726028001203805,-0.30409886271169695,-0.31952145696160733,-1.0760805329993133,-1.9321981743028112,1.9064639410744917,-1.018996014484125,-0.2651320576005584,-0.6522527939327161,0.12559721212703917,-0.15740394867431123,-0.6085255124777184,-0.8956201976897218,-1.1623380024030274,-0.3564839768527311,-0.713675361526218,-0.9422051167542669,-1.1675249616872696,-0.4562709664214586,-0.9835539825182662,-0.4231917593745581,-0.4685616982996237,-0.4075134482235885,undefined,1496337069349
903d185fccf839df,-0.2966883782919765,-0.5851442555147103,0.3134961111207688,0.2784312697720012,-0.8117792585999659,-1.9008862118378185,1.876478901031565,-1.1182173769256096,-0.26407755391374205,-0.8085806202443854,0.10363862497627153,0.08334863102411652,-0.7260263480392157,-0.7650776238166289,-1.1518116682650072,0.28404879662715604,-0.5436436883338941,-0.8570333573865122,-1.1428052288538522,-0.09149719303865313,-0.8591758628358344,-0.4281691173368038,-0.4331641708605271,-0.4386640425654188,undefined,1496337070861
903d185fccf839df,-0.4546941013210306,-0.5563804621507776,1.1741735853506152,1.185937839681179,-0.6042756074461356,-1.8786699283563788,1.8376340400255928,-1.3038440324465348,-0.30844310832514393,-0.7329944201279686,0.0717978078809878,0.017556648800759946,-0.6433405748663101,-0.6502742136683067,-1.0991800122993736,0.6942321591655835,-0.45916256098916985,-0.7157010531499092,-1.0935196923962467,0.3147445931771123,-0.7007087366363137,-0.4307272934540643,-0.45599990505312993,-0.44961796284446703,undefined,1496337072410
