UUID,iqrAccX,iqrAccY,iqrAccZ,iqrAccXYZ,meanAccX,meanAccY,meanAccZ,meanAccXYZ, covarianceAccXY, covarianceAccXZ, covarianceAccYZ,pressureDerivative, pressureIQR, iqrGyroX, iqrGyroY, iqrGyroZ, iqrGyroMagnitude, meanGyroX, meanGyroY, meanGyroZ, meanGyroMagnitude, covarianceGyroXY, covarianceGyroXZ, covarianceGyroYZ, class, timestamp 
903d185fccf839df,-0.11997149298971449,-0.47683984222135256,0.5945401912697952,0.2432702306136773,-0.9469906201757362,-1.1771692902765658,1.8260362024075019,0.019634641875837352,-0.4265101893023583,-0.8156138975668025,-0.2616682332671969,-0.6060829595051639,0.011617786319073096,-0.28734736077457684,-0.9318114029442368,-0.5807714247016155,-0.6397126402663946,-0.36639909813313043,-1.0050683432151923,-0.3613652063421837,-0.6324716677181068,-0.5515032411427563,-0.48337921265876505,-0.6335840923330659,undefined,1497357605787
903d185fccf839df,-0.09571631202905342,-0.38878753404715977,1.0625216933333124,0.6817786914039816,-0.9314610685359261,-1.3955001141838956,1.8152563531277357,-0.4844336405849849,-0.3745957797684447,-0.7420164045436152,-0.3954300796924993,-0.7940842579170656,2.655386586452763,-0.0919963881676454,-0.7981270157124685,-0.16452622626185967,-0.6539045603230695,-0.12676672315689838,-0.9053692716677891,-0.09711128728375207,-0.4237974829454422,-0.4021271419399829,-0.6618203193826487,-0.5863032814464151,undefined,1497357607274
903d185fccf839df,-0.13105963388085023,-0.3879070115499777,1.1907623747242277,1.0531047155816116,-0.9769495616396864,-1.3737391961594603,1.7224340703499157,-1.0318194683225197,-0.3030975505637054,-0.5944059474502208,-0.23905653770412766,-0.5291618468621789,2.0200116978609626,-0.06699888084155677,-0.7497058801500222,-0.3342572075282316,-0.6056782293050167,-0.06166567797402804,-0.8623179049668916,-0.0978140038848162,-0.3803848437784587,-0.3578581888709949,-0.6506283411874406,-0.6111161297231315,undefined,1497357608767
903d185fccf839df,-0.06522398496289714,-0.22941278668924905,1.7426421079008918,2.0368641556960583,-0.8832442947466637,-1.5791157889595087,1.8230070626855763,-0.7296384376917896,-0.45307317464126645,-0.7130160602232507,-0.3053993312626074,-0.424747960518646,-0.2734305369875223,0.10705797497798888,-0.7181269476771825,-0.18877342854356557,-0.3621761944648274,0.06391524189234148,-0.8260970159723185,0.018401731880575534,-0.2900967972639446,-0.3220371138389637,-0.44900786329483966,-0.5296883253691846,undefined,1497357610275
903d185fccf839df,0.11357186852857384,-0.40082134150864823,2.008054605496309,2.084769678354623,-0.6720274998981064,-1.6530900958719161,1.8761449196580087,-0.4619725257325302,-0.4321374803552192,-0.023956042735248335,-0.4117978007217104,-0.11214884747963644,-0.8913978943850268,0.17927304794534313,-0.7370743483893956,0.06582302922363158,-0.2845501563311245,0.16694268500426127,-0.8065728500949139,0.06545440926596902,-0.22570374047884603,-0.3204457803738996,-0.2215800744913745,-0.5301546657973587,undefined,1497357611750
903d185fccf839df,0.06367535528739703,-0.48124254239124,2.686898871372359,2.446460372190735,-0.37135600518188316,-1.8186500903997938,1.949529660732617,-0.20639584037387249,-0.414273313662861,-0.4476039400000936,-0.3337573936899075,-0.023210223317966284,-0.9697317847593583,0.27926299954505035,-0.7602322179691593,0.1607916739081033,-0.19724420307847504,0.2976902610574786,-0.7972257420914906,0.22369357910094465,-0.13004322204844965,-0.35972113569501035,-0.034887467115615196,-0.5312022957060324,undefined,1497357613313
903d185fccf839df,0.12743217403778004,-0.5640116571263556,2.8795781364536475,2.7182327549786756,-0.11138501365288149,-1.8810061537842189,1.9382688260646976,-0.3241252644060679,-0.43003894800380926,0.23059687196218492,-0.20822631716149984,-0.0315881908789041,-0.9218610739750446,0.45702312934632794,-0.738126956403491,0.17291528918131702,-0.06261079399694501,0.4487246390053191,-0.7644666738910921,0.2880898788727519,-0.03169771051553966,-0.29528960959149314,-0.0022585357357804486,-0.4758001735390071,undefined,1497357614811
903d185fccf839df,0.09693974345539455,-0.7142876720133848,2.840021466138946,2.7885238678326054,-0.09790046031227101,-1.9307540455695955,1.8580939340182376,-0.9467140798462844,-0.489096498156622,0.499914908673893,-0.04171477294464641,0.029643863433873038,-0.8783422459893049,0.4560973302770568,-0.7149690352880907,0.35679072851657134,0.05973893727067862,0.5661817472280807,-0.7674193277568456,0.4371160348308123,0.04587697680199546,-0.2543400349951938,0.07008754183082774,-0.4118914622039224,undefined,1497357616281
903d185fccf839df,0.31177208072211404,-0.6960901778436295,2.6932789794876335,2.68988112568591,-0.014802308743130325,-1.9379211157949916,1.8904326623026715,-0.7477209191448961,-0.42528136255832816,0.5477192959866926,-0.042875536427300416,0.026767214148769557,-0.6868594028520499,0.45424565443386716,-0.6528637047341689,0.34466688712558535,0.08934290778499308,0.6605362761350468,-0.7523551936824431,0.5180656633766038,0.11370399932221771,-0.1756557657891895,0.02766167527064105,-0.3245977028834429,undefined,1497357617742
903d185fccf839df,0.32979025359891884,-0.6027547346863442,2.441902465608871,2.480811173108154,0.03120561555631622,-1.8967588003768667,1.7517235440061165,-1.5808272441431632,-0.4431253377747944,0.5316566412550645,-0.04810289278711891,0.07531471943617524,-0.9088054255793226,0.4996115442319432,-0.6865479415820049,0.40528533093303387,0.13151120924972018,0.6495486185281085,-0.795322609796068,0.6332768349385686,0.11511526245305906,-0.15659092642358557,0.02794476229562971,-0.3311851118303375,undefined,1497357619269
903d185fccf839df,0.3450364688901116,-0.6015806754621091,2.3876716736975125,2.335345732832833,-0.06496565328576384,-1.862216182263656,1.7618667032980515,-1.4450184743254115,-0.4053901693069849,-0.2278196262918363,-0.2644551274839393,-0.015322819557110007,-0.9131573083778967,0.48202063667241657,-0.6076004852419313,0.387099865626131,0.026390031310767635,0.5512296676154715,-0.7412512553533407,0.6890192124486425,0.0787040861205149,-0.1025882788365622,-0.11406388892645886,-0.26793988472941294,undefined,1497357620747
903d185fccf839df,-0.23293176657405185,-0.5998196304677449,2.7232653605609487,2.5842410349823637,-0.4144119303402237,-1.854587923549277,1.865273301664078,-0.8982218824603163,-0.3640802533018208,-0.3112165113583606,-0.1705509593957361,0.058985651200373856,-0.8217677696078431,0.515350724145182,-0.634968956209454,0.44165620501739655,0.08550802289050256,0.5292670157586934,-0.7385784733354164,0.7344908182570901,0.06855584610562117,-0.06096892137332962,0.1741359424802532,-0.2408701085121918,undefined,1497357622308
903d185fccf839df,-0.14006877207736723,-0.6021677196882228,2.2409291870462003,2.2601704300450027,-0.6827143362763343,-1.8457833990466417,1.8325401007650532,-1.1761101610335774,-0.3160118295321672,-0.3859210984756902,-0.06535222103430428,-0.023273053595092606,-0.8000083556149733,0.4940564908008253,-0.6886531944213647,0.49621260093810515,0.07486754545320277,0.5308565799210896,-0.7112699209180567,0.8985612587548253,0.09218506563617847,-0.011114073869615299,0.35689918040319085,-0.24510775305281057,undefined,1497357623759
903d185fccf839df,-0.18580717641307734,-0.6444327995529627,2.741129663283717,2.674911521304616,-0.7990558570168528,-1.8704220918582857,1.9236865490984318,-0.6800654561006186,-0.3116657248050894,0.20516199280588898,0.18055626566884841,-0.019080489068191587,-0.5650066844919787,0.6264507826071251,-0.7770743658420125,0.46994472544905985,0.0732835177116762,0.5793859289099674,-0.7234653619335496,1.0009147247073922,0.12862861460966146,-0.08422353987015564,0.45667069527485005,-0.2918043567066125,undefined,1497357625260
903d185fccf839df,-0.4269737663458961,-0.49474388734803193,1.9767919486629895,1.8395293783999245,-1.0059115110077155,-1.7710171500517626,1.866206874037259,-0.9142213460076993,-0.3430100173977572,0.15460855949247537,0.14251461789507502,-0.030189283446269824,-0.5954698640819964,0.5375706529526135,-0.8097059799512855,0.4598416420595779,0.07379499605742547,0.41449507517345596,-0.7375919230629756,0.7462398346904454,0.001575737876016907,-0.05622182103679355,0.46116717934701895,-0.23803734023197215,undefined,1497357626732
903d185fccf839df,-0.4061835323672501,-0.39319014653307016,1.7203113482920072,1.6523763482288252,-0.9791378401742062,-1.713326553712717,1.8527685704816148,-0.8999275167519319,-0.4148156923262947,0.32452770356754024,0.1031815996784158,-0.06881305062709901,-0.7608414104278075,0.59126901929117,-0.7676006581236722,0.47196531386223467,0.0804713683079605,0.39909335536383206,-0.7519633723773392,0.7232653519844656,-0.01442682953803777,-0.020006174639767414,0.5257100288345219,-0.20642331371074563,undefined,1497357628380
903d185fccf839df,-0.24401983845436812,-0.44426048059762324,1.5812252455159734,1.5598671032949194,-0.7603610637938828,-1.7578965459783618,1.8434538024232936,-0.9743678729502554,-0.5251325208613229,0.1494630319243353,0.08367828898743043,0.13482969908430656,-0.8391753008021391,0.4320255184140429,-0.7991796642188498,0.4456974383731893,-0.07407429859560245,0.35640298268232284,-0.8060137353720043,0.5947499266128538,-0.06847010884914133,-0.05906688161096065,0.47040478079010495,-0.23948991139650494,undefined,1497357629738
903d185fccf839df,-0.22184366018832583,-0.4207798514447754,1.4440522856951992,1.2841080568492198,-0.752595360709365,-1.7715365711969369,1.8890309650100479,-0.7077753437729564,-0.5646936346409952,-0.12135644035126229,0.014628944004101755,0.09917995127934885,0.0660163213012478,0.2811146624374654,-0.7812849009696673,0.3002136311238017,-0.30595667170222357,0.1064860292038601,-0.834224877358951,0.3108487877311966,-0.23877718461385639,-0.27034437635629316,-0.10867378270962795,-0.40103481641445105,undefined,1497357631247
903d185fccf839df,-0.4117276200655228,-0.5722298963280473,1.5320982859598855,1.3810314338376222,-0.45386786546012237,-1.8772444338911725,1.881033724296926,-0.896475328919929,-0.42432165863690885,-0.35467567945901335,0.2279369818570192,0.09826277018545661,-0.3909313725490196,0.21445462995045453,-0.7844427986342916,0.6154285044337259,-0.2859921021284781,0.10716998851625816,-0.8246952223151384,0.4665116724784609,-0.216951826110393,-0.26343304034278786,0.17961785007634803,-0.30229688256452497,undefined,1497357632742
903d185fccf839df,-0.4339039018477943,-0.5716428959439221,1.4485187425813155,1.5649089488978585,-0.4793455394550421,-1.9137342947632645,1.9701578422440211,-0.3808551487257585,-0.34614693548745196,-0.5857148915549172,0.48170825333855466,0.028229782869672943,-0.35611631016042783,0.2024187499204967,-0.7728638601632928,0.7790976356664087,-0.2754296313313712,0.15464806503438938,-0.7933285191855799,0.769075724790877,-0.15068939564695585,-0.24399407039856522,0.41902761913228315,-0.23047061343657432,undefined,1497357634262
903d185fccf839df,-0.22045764689011008,-0.6068638396731939,1.5372023724521051,1.612824343891325,-0.5511294178081815,-1.8717148182411074,1.9499609401204807,-0.46767593327716606,-0.3805139193154402,-0.8405121221420347,0.40031561213032674,-0.17042138860940573,-0.3125974821746881,0.15705293782706797,-0.84970601212837,0.9629729902074984,-0.2606520676443511,0.08190154142743787,-0.7953925784553703,0.7766209637865221,-0.1872919189499801,-0.24540261162219507,0.4189161547867168,-0.28083133363921436,undefined,1497357635776
903d185fccf839df,-0.2454058517525839,-0.5546194463844057,1.566550615645418,1.631481799647158,-0.7378559568872485,-1.8760751540025749,1.9881641301288455,-0.2642839169685093,-0.39031487408160104,-0.7339842191541713,0.30329305345472735,-0.023246488741952193,-0.6999150512477719,0.1385362570998193,-0.9202324276620691,0.6174490928469007,-0.24676342885443575,0.0869678972884379,-0.7984221978402393,0.8746474702573557,-0.17616609270158265,-0.26145731952528667,0.46879011267023823,-0.22787262186839288,undefined,1497357637234
903d185fccf839df,-0.2856002719062504,-0.5916013912660532,1.7943208565661402,1.8545574082559804,-0.8207278157516233,-1.855289023619259,1.9569009951273686,-0.44179562642806797,-0.3763100202501852,-0.8975320445334959,0.19349302392614104,-0.11057871556220371,-0.9784355503565063,0.044101177620386255,-0.85391657670496,0.645737613278564,-0.38775035142376485,-0.02202839680269835,-0.8236736877191635,0.8083417612981738,-0.24399545056685457,-0.4156383462469038,0.074392262168143,-0.2765276828239641,undefined,1497357638835
903d185fccf839df,-0.4602381545138936,-0.6444327995529627,2.200734124714547,2.0356378828684045,-0.7939850054601282,-1.8411901386874732,2.0103886175317482,-0.04024950300782365,-0.37122393707563106,-1.1802291090015782,0.2530756642704087,0.024493614806426322,-1.0437137923351159,0.04410115171883716,-0.7907585866013063,0.645737613278564,-0.3941823234172449,-0.009951472645172071,-0.8117091414075474,0.7433449268253829,-0.239571238079186,-0.48830837091800333,0.16111182758375572,-0.2949763380942944,undefined,1497357640264
903d185fccf839df,-0.530924832722897,-0.5458141921845926,1.9621178270663329,1.836226275580422,-0.8262718125869549,-1.8442647352704933,1.8959605070882117,-0.821253642112025,-0.34847836982201635,-1.0536210619363098,0.3428770436751139,0.04789142406324585,-0.8565828319964349,0.1579786980440155,-0.789705971224977,0.532583531551911,-0.4608191757780587,-0.03529591392864129,-0.7950847188012646,0.601941004701887,-0.2620589947412086,-0.5088138766786688,0.13179867588548874,-0.28612757204127365,undefined,1497357641785
903d185fccf839df,-0.5711192528765635,-0.4031693722731414,1.6131257860923458,1.494596356773313,-0.9605618725970639,-1.736362729956971,1.9389814970419754,-0.4179659556936955,-0.42592802009352854,-0.7800726378885554,0.29413477403847094,0.1464158664154405,-0.5214878565062389,0.06169207222913833,-0.814969152541971,0.21130692126718376,-0.41055280653951687,-0.19496209215986052,-0.8299498271428305,0.31831703526696203,-0.39526679295607386,-0.45594088006501243,0.12342948538273951,-0.28620029791710505,undefined,1497357643285
903d185fccf839df,-0.7124928163270287,-0.32216127330439764,1.230956928781982,1.0853741771913068,-1.031862326940372,-1.6589737572539534,1.8904878761289077,-0.627787966581101,-0.5161895544215442,-0.673811926805047,0.20074889346499217,0.11976342360592934,-0.33000501336898397,-0.1818022650883299,-0.8560218295443198,-0.08976369182690873,-0.4951880056664965,-0.24626526903990267,-0.8616593739013562,0.08255143737542675,-0.46659387595116514,-0.44813785964140673,0.021413192228683365,-0.3490762872911654,undefined,1497357644936
903d185fccf839df,-0.45885210671026816,-0.25230643007196785,1.1601376016339608,0.9870505534509572,-0.8404866511194793,-1.6799136184358971,1.829697280078287,-1.0027026587079169,-0.6124098033871108,-0.02997280204506375,0.23915960931362765,0.15132257278878242,-0.28213430258467026,-0.16884059893987544,-0.9191797901990385,-0.035207239376757044,-0.4918572925581302,-0.23734215266081732,-0.8591755065539689,0.16741227237041903,-0.4492853078826187,-0.45678069928389203,0.10321346255068599,-0.3747973716200544,undefined,1497357646246
903d185fccf839df,-0.5323109495373419,-0.3650134266232436,1.3138980801436004,1.32646532206998,-0.9166522380394303,-1.6698885735018414,1.853533841718253,-0.890601621842177,-0.4955346286256555,0.5236403137504555,0.0653052956220986,0.08373842803511897,-0.3996351381461676,-0.2401297821825367,-0.9339166852325318,-0.1524025120621206,-0.5288867752375194,-0.3090690741295884,-0.8829296804651349,-0.002109211838036193,-0.5141367386396601,-0.4735440393923851,-0.11612690399909763,-0.37574908073707114,undefined,1497357647755
903d185fccf839df,-0.564189289901714,-0.49239573967156935,2.092272286754881,1.9601075016519003,-0.8243998174764096,-1.740704432101881,1.8020632942833164,-1.2838523232907382,-0.4762797422986637,0.3960794357191499,0.20667620852917906,0.11137324618394917,-0.7129706996434938,-0.09662557777561939,-0.9107587420304302,-0.03116606255040734,-0.43890931568328584,-0.2069503570105165,-0.9173469930145834,0.11752131043029472,-0.45679861013297873,-0.412641129583687,-0.03578630653349082,-0.3569313078510029,undefined,1497357649239
903d185fccf839df,-0.591909555866029,-0.6321055138204059,2.2064763490867687,2.2176162130568806,-0.8123346908272381,-1.8714399705449116,1.8557008181039285,-1.144617834884091,-0.3627691665651496,0.2871571012023966,0.2886607678541344,0.10293313626242834,-0.6520443404634582,0.014474493637098174,-0.93075877284344,0.2193892183904401,-0.3445983312207567,-0.08039281000784877,-0.9027376516777502,0.28653464684099694,-0.35484407968214854,-0.419137811222583,-0.10789044166142951,-0.40047059249755224,undefined,1497357650760
903d185fccf839df,-0.5641891863854848,-0.5916013912660532,2.4680610359499706,2.655234424501793,-0.7904878680389372,-1.896847312076466,2.031771586681677,0.024578454144860047,-0.4322935715943828,-0.39731426525217106,0.25512873696455474,0.10842927944886475,-0.8391753008021391,0.16816294108310736,-0.8739165927935023,0.3608318770781995,-0.35055748411134746,0.0807236075694971,-0.8700625452506914,0.49455224586331387,-0.23032776926942125,-0.40317908630809907,-0.015483244519025559,-0.372508601624685,undefined,1497357652353
903d185fccf839df,-0.23570379317048334,-0.5006139788732611,2.482735157546627,2.627117754344868,-0.7246902644279437,-1.8620997195027185,2.0193325979670003,0.030164527395079417,-0.5408508412758443,-0.3771955160733563,0.16737715032064274,0.031109581302693715,-0.9523242535650625,0.14131370611073094,-0.8623376395980359,0.2779869607258276,-0.408798707104675,0.022688513088506997,-0.8601690538942031,0.5616586696912258,-0.24438129401858022,-0.37138855556038153,0.049367117524269984,-0.4113018260120625,undefined,1497357653740
903d185fccf839df,-0.361831106824346,-0.4912217973593036,3.07863776378716,3.0611802999023947,-0.9707035684946338,-1.8126662771926212,1.9999824888924278,-0.12560196614997002,-0.4609679760833393,-0.1063659690896077,0.05696519325288546,0.02782334226894354,-0.9175091911764707,0.08391198808579528,-0.8107586468632513,0.2598014388894817,-0.35184259679722907,0.03715928884321775,-0.8101068707258243,0.6349552682789118,-0.2160436158761624,-0.34830697006493955,-0.01890075332509481,-0.46222159391558415,undefined,1497357655243
903d185fccf839df,-0.15392883604870528,-0.5428791756499703,3.115642644992701,3.0087069613312942,-0.7982535716695975,-1.8104674745627642,1.9971317787952703,-0.052822071073230066,-0.5487948963931326,-0.04712661999154755,0.05281114071335949,0.07084940591713029,-0.8696384803921569,-0.02533634272985995,-0.8086533572127225,0.34062571029923566,-0.46642212862265026,-0.025258202247277792,-0.8039146929959751,0.698473855112115,-0.24618438257935213,-0.42627641922856635,-0.03630267407252911,-0.5009896324228437,undefined,1497357656781
903d185fccf839df,-0.31332064138679466,-0.6796537578962306,2.3519428141150263,2.168031679757798,-0.8570363310026429,-1.8734733962529895,1.9045336857588506,-0.7659816200362205,-0.4923122976373838,-0.3906384969135251,0.024466776259854876,-0.012033572480940186,-0.7303782308377896,0.06446953419082453,-0.7433900848207737,0.35476994225034575,-0.3792128304976243,-0.04292077979936756,-0.7498153502759577,0.9352249533372029,-0.2024518328068126,-0.38206185171750773,-0.14907671547019252,-0.5066513525447144,undefined,1497357658250
903d185fccf839df,-0.2731261867277184,-0.6591082037339897,1.9053347377719156,1.856270189148716,-0.7657301966156946,-1.9072194124575397,2.051881713671092,0.17870119410866406,-0.43497614639861704,-0.7783957533728081,0.06139417568166863,-0.04334263716715924,-0.7521376448306596,0.05058203012077529,-0.7644427899079831,0.3204197696380441,-0.4003250813098722,-0.021205115835467157,-0.7571410113311263,0.9752301173798912,-0.19513032866395094,-0.3784847590428244,-0.2017882466454169,-0.560150240462042,undefined,1497357659740
903d185fccf839df,-0.3978675560941848,-0.5469882514088277,1.0331733230715245,0.9854800155269026,-0.9176190884417129,-1.8564489834106064,2.1028420975657123,0.4704346828607616,-0.39991060778752935,-0.7777016400325091,0.07589139602757242,-0.022878944655495413,-0.7695451760249554,-0.11514224555209353,-0.8086533645749563,0.47802707910175923,-0.4820343338481008,-0.16774943167213408,-0.8388217820254061,0.8011352920871905,-0.3184922083059011,-0.2956768452661699,-0.14906519923134998,-0.4546998582498786,undefined,1497357661259
903d185fccf839df,-0.42835977964411187,-0.5182244288169027,0.8877068580432671,0.9482362352809774,-0.8793048706323706,-1.8526150552983087,2.074256106680314,0.2764407274121879,-0.38308002283703585,-0.7124746342143496,0.02746825043687871,-0.09553785211222462,-0.8565828319964349,-0.12069724718011322,-0.8770744830958928,0.43155314989263616,-0.2705176837386174,-0.22382131621536563,-0.9174659369276662,0.5550527382371707,-0.4069129465092422,-0.30011671911432386,-0.0911734743116752,-0.404468716752607,undefined,1497357662744
903d185fccf839df,-0.47271223969242565,-0.43017212064270993,1.1977801124456053,1.1055305812787597,-0.8665608949784833,-1.7926627679573337,2.07079790936425,0.38043592034394064,-0.38161056919521347,-0.669286210000231,-0.20136126106859328,-0.03272701135713198,-0.9523242535650625,-0.19106056659963058,-0.9202324387054198,0.27394572737003486,-0.4113761476465787,-0.27818330549508474,-0.9384073920161363,0.3609091395177818,-0.4694455536424331,-0.3030838439299124,-0.23320750073943194,-0.4127541975421043,undefined,1497357664328
903d185fccf839df,-0.31747868128144197,-0.5276167272428296,1.6852211348634218,1.6482500581903,-0.7869187422234686,-1.804907579991155,2.1314149357674657,0.8251869029914908,-0.4784200728584271,-0.667771915381749,-0.17710448824969724,-0.02876281139736246,-0.8826941287878788,-0.22161308850451347,-0.8781271131966896,0.25171905697206076,-0.4328524821767,-0.2497357224851668,-0.9161925181494459,0.3481592253689503,-0.44980771041213535,-0.31739832260496775,-0.28380404516204943,-0.4257801677643349,undefined,1497357665851
903d185fccf839df,-0.3715331309010368,-0.4225409256671319,2.2402907950292485,2.12194326247521,-0.8942499890974394,-1.7566830112898533,2.046403827818708,0.35373512033145343,-0.4938516293589913,-0.5527136841565611,-0.31761480254117996,0.045293345709749785,-0.8348234180035651,0.0015128404394182796,-0.8170744274680322,0.20928627632456584,-0.4524325695981742,-0.08837231716443301,-0.8695797645845045,0.6232216569952327,-0.30618281973496675,-0.3507145066539561,-0.16788358015854535,-0.4205371561324493,undefined,1497357667249
903d185fccf839df,-0.31609263347781646,-0.3785147715800355,2.034851313717411,2.0391009587039206,-0.8156158305871357,-1.7994664773739453,1.9825232106032602,-0.12091871042031686,-0.47517864144042027,-0.8145940019496126,-0.08403313239994163,0.03473518083686588,-0.5214878565062389,-0.06699888084155677,-0.7360216667529622,0.1284619483853688,-0.5621354951135367,0.05035714504485236,-0.8343438244529056,0.6910056107130679,-0.21177270299499312,-0.4621074795267138,-0.2703656427764896,-0.4326599521498445,undefined,1497357668770
903d185fccf839df,-0.2564939236329002,-0.41725773222805473,2.277933305840893,2.173137013497378,-0.7968238566224275,-1.8376310625325374,2.002601772618458,-0.048209208198345024,-0.4546181388486893,-0.9115589181623689,-0.07445408363635815,0.07257276157444953,-0.45185773172905525,-0.11329062151200212,-0.802337561883474,0.38912028445097663,-0.5682388627815848,0.11471885147208688,-0.841536546058598,0.8785894725743133,-0.15027568274105016,-0.5556425107817283,-0.20844446616636164,-0.5404964107830326,undefined,1497357670333
903d185fccf839df,-0.1206644823861175,-0.5158763980524095,1.9531854215679993,1.8983407701511865,-0.6249189985836079,-1.8536189597193415,1.9610876443365368,-0.2901095711879504,-0.43641139710363297,-0.9620409064643185,-0.13793852823660582,0.04759771822761098,-0.9827874331550802,-0.06236962647971004,-0.8697060503036137,0.5265217097829433,-0.5426923291202465,0.07974833504045854,-0.8910319857964863,0.8011660894761887,-0.196002971487856,-0.5123746286214463,-0.08117018058562384,-0.5148680752955209,undefined,1497357671741
903d185fccf839df,-0.19966744741687378,-0.5012010230993749,1.5716549562745872,1.4003941019097805,-0.46267241305869006,-1.8123751217617075,1.9503685591335849,-0.29220038781889207,-0.381408143531765,-0.570060985989739,-0.11587830315462536,-0.030551105687035156,-1.0001949643493762,-0.1503239570649504,-0.8518112870544312,0.31435786307491187,-0.5632050354047144,-0.04347175186782656,-0.8901573838068445,0.48791550857939264,-0.3040771511414051,-0.5452124055612784,-0.2869037156228881,-0.5567806316681364,undefined,1497357673225
903d185fccf839df,-0.1262085355789805,-0.3808628754145096,1.2092643070530995,1.1785283564019482,-0.47798781693122583,-1.8126266797766344,2.0407628931040573,0.3216766231923551,-0.4113386784132675,-0.522575060179521,-0.29766013036072936,-0.004845110205384342,-0.9566761363636364,-0.06699888084155677,-0.8739165854312685,0.41134703964311536,-0.40944639164435104,-0.1800226823933222,-0.8689640430802684,0.49341275535381723,-0.3666450903982651,-0.49652588541642556,-0.16239530267776092,-0.5708811362595526,undefined,1497357674800
903d185fccf839df,-0.16224495034340955,-0.306311853741124,0.9687341040387779,1.009790840580044,-0.6500058185817144,-1.7941278629222772,2.059497642833442,0.38591472162482704,-0.4336924002656681,-0.46962381370137957,-0.2544296310113287,-0.02006686927460803,-0.8696384803921569,-0.19013478048113397,-0.8707586877666442,0.11835883673116535,-0.5367347899865981,-0.3356231069799662,-0.9137716209254731,0.2396155753810778,-0.4946539155686383,-0.4703319190096597,-0.3071587914011222,-0.5052560301857137,undefined,1497357676249
903d185fccf839df,-0.4158856944655798,-0.2957455399329505,0.9387472146915639,1.0103486780725193,-0.8706545934514631,-1.8265182632312134,2.0199322057269735,0.028821629035852628,-0.4413164200692696,-0.41811167007671607,-0.30645410402420725,-0.037417281585892456,-0.8696384803921569,-0.41140908538497434,-0.8339165238052488,0.1102763700195798,-0.6124138370045803,-0.47102144276938646,-0.894026621126972,0.24577495372113997,-0.550683945478612,-0.5194014523584513,-0.355340589443934,-0.49385725554770465,undefined,1497357677727
903d185fccf839df,-0.4948885559801069,-0.44836967326844995,1.3636631775796906,1.298893228754191,-1.026904616996796,-1.8220670869603977,1.9828124853179345,-0.2535876899138425,-0.43203961699115767,-0.6364469007023708,-0.3346966878708784,-0.004525563790743056,-0.8130640040106952,-0.40307655704139567,-0.9181271600982417,0.16685341088290634,-0.5735446921566785,-0.44613930448636374,-0.9251974131360234,0.2096348023260172,-0.5602953671624729,-0.48748985376035014,-0.22239241643017157,-0.4367644010184245,undefined,1497357679230
903d185fccf839df,-0.5669613164981455,-0.4207799099007601,1.5116816858540578,1.3751801061077755,-1.1896449177180128,-1.7912046648638427,1.941293102142934,-0.5359385437091616,-0.4609309963022741,-0.5381947760082187,-0.25607209074185183,-0.0056687231743687136,-0.843527183600713,-0.4132607223758403,-0.9497061367444841,0.23555420834305427,-0.6804985677241189,-0.4892159859681341,-0.9384213866227366,0.2244943015220304,-0.5854350927679091,-0.5171942225435683,-0.3017690414438152,-0.38136093178146435,undefined,1497357680715
903d185fccf839df,-0.3881653594904453,-0.4066914914898621,1.4064097748835547,1.4284653162177514,-1.0152714907615366,-1.7904709538501578,1.8179604583160998,-1.3004386392253666,-0.44546984902799175,-0.7724202975963665,-0.18777439532766355,0.03688498346398132,-0.847879066399287,-0.2901248486378121,-0.9718114277590876,0.025410893518754592,-0.6615405609322624,-0.45746893970093483,-0.9138345934712437,0.36368084746087403,-0.5430283227014836,-0.5055927685248336,-0.3639352034512758,-0.393746904464791,undefined,1497357682222
903d185fccf839df,-0.45192204021918936,-0.41314865646919735,1.4025819641513395,1.3734641531598586,-0.9816166912999926,-1.795895750964257,1.934797479731315,-0.5320760123755048,-0.45576314604405915,-0.7912837023653837,-0.19586409029496415,-0.0025357141990666647,-0.7477857620320856,-0.14291724074141746,-0.978127223088336,0.15270926372596083,-0.5082447179255117,-0.3960457187635168,-0.9200827445319818,0.46203072085528557,-0.5004185137044997,-0.4775481616848065,-0.350949776425372,-0.3855931837939012,undefined,1497357683736
903d185fccf839df,-0.4020255614834223,-0.39729930997590457,1.3343146802494281,1.3754912904272598,-1.0041937949570814,-1.8334291125534874,1.98926075503062,-0.2603267958966084,-0.3783318641880556,-0.5176976989225804,-0.1077448672218721,0.06217731759734289,-0.678155637254902,-0.19013475457958487,-0.9570745989856984,0.011266774626530637,-0.6276471013204873,-0.38882616543510634,-0.9016111650837857,0.5137848932674058,-0.48144648754563435,-0.5147609083230579,-0.42871736557189993,-0.4614319407137536,undefined,1497357685263
903d185fccf839df,-0.5267668963444789,-0.39260318999093347,1.407686050643559,1.413822264133605,-1.0791868135309377,-1.8397483377483212,2.0127212521564806,-0.11555994363014763,-0.3527090830349438,-0.37209909851466044,-0.23765791003194342,0.019240468978845758,-0.7173225824420678,-0.26234982754693914,-0.8970744844599674,0.0011637195017702394,-0.6669498221631515,-0.39605205387203063,-0.8542077703543973,0.4654799714101837,-0.48323803226628154,-0.48891725139363945,-0.47784796576643374,-0.43476231550299327,undefined,1497357686787
903d185fccf839df,-0.4671681519941529,-0.5076581588507177,1.7451938970100522,1.71389188352578,-1.0668542646242936,-1.794763741736372,2.036108124213055,0.10070896496699853,-0.45136206457388095,-0.1899245137944614,-0.2658314936395235,-0.04518214066741316,-0.7869527072192514,-0.22068726353369322,-0.9054955915264461,0.02945223993343351,-0.5929487752965517,-0.33207665560834054,-0.8813414028179274,0.407643408334972,-0.47414291007431847,-0.5060983495534531,-0.31413009164660793,-0.4773520023160357,undefined,1497357688301
903d185fccf839df,-0.3646031334207775,-0.412561641471076,1.7815606403355913,1.7396392860576402,-0.8904237009968364,-1.7605006331778226,2.0098574040409836,0.03091984428913604,-0.5118889698343174,-0.048628524266203135,-0.31766918169838604,-0.03784689537347708,-0.7782489416221035,-0.25679483886969395,-0.9128640022320238,0.18908019433976658,-0.5965263108770581,-0.29706814143159793,-0.9051445532307543,0.45172915744575565,-0.4549342739794781,-0.4791959746349579,-0.2962220976974571,-0.49496321982599945,undefined,1497357689819
903d185fccf839df,-0.3701471521082308,-0.30924697257371947,1.429378418235492,1.3440352905040704,-0.9353001957853128,-1.7207591545043812,2.0454071228782906,0.3253092569245274,-0.5604203209684203,0.00077607592171409,-0.33309157304490394,0.013131553945124986,-0.8870460115864528,-0.31604815503317196,-0.9360219159851902,0.24565712214420699,-0.5620343405913926,-0.3043383621131171,-0.9263798740273724,0.33694914584302516,-0.4808505407289208,-0.5080887150952129,-0.21984725854712533,-0.49879263564037396,undefined,1497357691368
903d185fccf839df,-0.43667585943340637,-0.23997908588342637,1.56974079677153,1.4799403224595873,-0.9078373858729091,-1.6884782291585434,1.939949276239337,-0.29077977737074917,-0.5263358529152459,-0.021945430912093437,-0.35770440919786356,-0.12216465782857752,-0.7477857620320856,-0.32067734464114594,-0.9139166323328206,0.393161602600934,-0.5256125891892793,-0.33750398783602875,-0.9547799292167616,0.3944931376200943,-0.4934762875409071,-0.5056565097633101,-0.21556086514149955,-0.5689877968093402,undefined,1497357692824
903d185fccf839df,-0.3368829019618722,-0.2370439816648271,1.0976125421042713,1.0406916826584138,-0.8523563371556983,-1.7161682245709065,1.9244439445424628,-0.41955370679301884,-0.5635222768025124,0.22435261091720532,-0.3299257670147417,-0.08013026603737891,-0.2342635918003565,-0.28827319869617163,-0.9065482142650091,0.5649132288099239,-0.565791879342163,-0.3193854377855002,-0.9484688073964346,0.6332460391246607,-0.43985428559789647,-0.48600956438302895,-0.10024256097915084,-0.514085063892261,undefined,1497357694380
903d185fccf839df,-0.2856002719062504,-0.20769329021474242,1.5059397156187855,1.3704216121389845,-0.882298005437775,-1.754814962659396,2.0365183845523624,0.25804649855721545,-0.5097188536654218,-0.21691688436424575,-0.39229921029264075,-0.1247503697175922,-0.3996351381461676,-0.09847722771725989,-0.9044429540634155,0.7023145976124475,-0.5783920663993743,-0.22409996698845736,-0.9091467300187093,0.6866170539897355,-0.37105064151124406,-0.47910090087198637,-0.11100069196592674,-0.4766650769123642,undefined,1497357695877
903d185fccf839df,-0.22184369469373555,-0.2916364349461008,1.904696854028863,1.9130918690207055,-0.722602269785618,-1.7848272078173926,2.1324536987079097,0.8881192511384569,-0.4831975759265501,-0.18421545857830454,-0.31690990179493356,-0.0999796949160179,-0.7477857620320856,-0.05866635249797813,-0.8328639084289196,0.718479502770897,-0.6818041399978315,-0.1410497426342227,-0.8404450428339061,0.7052337746823814,-0.29392617906244445,-0.420580742532343,-0.11948540944277135,-0.4462581155718982,undefined,1497357697324
903d185fccf839df,-0.18719325872211254,-0.3573822316476655,2.61926972535045,2.508908035197255,-0.6423532566662294,-1.7955300610344949,2.064867689459706,0.5072942600752307,-0.41963744245605106,-0.4963911439788743,-0.40023683154121964,0.028270371753868703,-0.8174158868092692,0.25704300598374613,-0.7970744113794899,0.7972831009733116,-0.4292336357568545,0.03677931819110003,-0.7759134562161853,1.0234118525485931,-0.13909071660772226,-0.2759385625583277,0.15149634490975322,-0.27382163360843353,undefined,1497357698831
903d185fccf839df,-0.17471913903817077,-0.36501336816725893,3.1647693504118397,3.1161508278860937,-0.5848767782303854,-1.7716809807929295,1.9806060744505662,0.03812974925433458,-0.48321076520220296,-0.5855905989516077,-0.46203270943530705,-0.05178364062073456,-0.847879066399287,0.33296144358825414,-0.7602322474180945,0.8154685097507713,-0.23856212950151826,0.14263447179746339,-0.730693066553725,1.0460167690501991,-0.07770863555897421,-0.3166589413158713,0.2849953767291126,-0.27441115800963584,undefined,1497357700386
903d185fccf839df,-0.1885792720203283,-0.36560041239337265,2.5688669983082564,2.4082821192888932,-0.5746322270928816,-1.7443939431323778,1.9860155854128947,0.11198734508475812,-0.5087640940189355,-1.1050179299235268,-0.45101866051744177,-0.043525094681218034,-0.3909313725490196,0.25611711625905315,-0.7444427517327394,0.7002940091992726,-0.30619112816276456,0.1477324915408138,-0.7292797093741804,0.9435401147801722,-0.09350734015491065,-0.3364983345872481,0.13678689951375328,-0.2539576655453791,undefined,1497357701842
903d185fccf839df,-0.22877365766858512,-0.36383936739900846,1.7873028647078129,1.5405725132957728,-0.6317178499054888,-1.7560471283749637,1.839658985026274,-0.9280916966676911,-0.46911145239885993,-1.0411247644961614,-0.47630265246041065,-0.07040243437088138,-0.5301916221033868,0.2542653886127654,-0.7981270267558191,0.7326237064572856,-0.3667368506198996,0.13134283286079013,-0.735136040261471,1.1168958123355464,-0.08394724204251189,-0.30511471382756933,0.1316208258995907,-0.23236036195065077,undefined,1497357703333
903d185fccf839df,-0.14838485186666175,-0.3843848631052647,2.049525689451017,2.009542556667461,-0.5996984774993807,-1.766980578206791,1.9845849618534535,-0.011354733129595737,-0.45751171588096334,-0.5741814710817729,-0.5210080412830603,0.03672981004312011,-0.5998217468805704,0.06261788424918403,-0.8676008048264876,0.6538199104018203,-0.407819369419488,0.03148497405446073,-0.7946019364895883,0.9405836120294149,-0.18572596289195095,-0.42541996213197947,-0.06448715192211923,-0.30602788433458356,undefined,1497357704852
903d185fccf839df,-0.2828283143206384,-0.23939204165731265,2.120982900342091,2.072175454886411,-0.548907705911524,-1.7256691920277911,2.0046161994528067,0.19255744250858556,-0.47848140570441433,-0.34967733668295464,-0.428104366438389,0.03984601423651384,-0.6650999888591801,-0.04385299755555954,-0.845495521174118,0.6396757349801533,-0.5718790810559836,-0.08858130572870998,-0.8077139609533383,0.9560282517350558,-0.23236295553541125,-0.45504433730242316,-0.2456619290368924,-0.2889264004353862,undefined,1497357706330
903d185fccf839df,-0.09571634653446316,-0.3262704075192397,2.1133267706037615,2.123520678196227,-0.5463980013635779,-1.7414195060197657,1.9838170555757422,0.04576685748639876,-0.5007441256521789,-0.47410526431459804,-0.3669119385766628,-0.011198800576418267,-0.7303782308377896,-0.033668806319565855,-0.8476007592890101,0.8619425802835021,-0.5113591467092968,-0.1261039971224541,-0.8450069643329516,0.9486831941187649,-0.2528558054697452,-0.46364033589003495,-0.09404249813931316,-0.34418626440491895,undefined,1497357707832
903d185fccf839df,-0.019485477110957845,-0.4119746264729546,2.1050327571223795,1.953816563726307,-0.5025192168752309,-1.7480857881670242,1.8769364795015868,-0.6112531117937179,-0.4500379166805599,-0.892939508106085,-0.4655098117482321,-0.017689252364250816,-0.7216744652406417,-0.05125971387909248,-0.8570744522828829,0.7669740486579165,-0.5252839242005318,-0.13445714811103088,-0.8732111090563592,0.9569829593106446,-0.2604696888099222,-0.5203445174050231,-0.13330968079129787,-0.4112988466431076,undefined,1497357709329
903d185fccf839df,-0.15531495286315025,-0.49004773813506847,1.9059728756519176,1.7165639010139062,-0.6669772195394075,-1.704032887334829,1.8670063285288376,-0.6751840623298404,-0.5051287833715696,-0.6682338694562239,-0.49047847373415826,-0.031954384995536114,-0.8870460115864528,0.006142017096617725,-0.8339165458919502,0.7164588295635576,-0.4068928491651976,-0.15322166101888654,-0.9020729543263786,0.895912725828431,-0.28429093464457195,-0.49362744549113896,-0.1437200823038479,-0.4369002914546305,undefined,1497357710880
903d185fccf839df,-0.0887862800433844,-0.6109729446600436,1.8160134782950228,1.6920891364394564,-0.6410264032366547,-1.6754647684084358,1.7145617415040508,-1.6433827082025216,-0.5095047058192584,-0.8286871515239417,-0.30558033362928416,0.01909781575521232,-0.847879066399287,-0.036446345985899346,-0.9233903400511609,0.6012842159531727,-0.4592018119350768,-0.05274950876317326,-0.9246516633740884,0.9623724175458241,-0.23703156111110107,-0.47032810356841026,-0.08720064225167787,-0.4080324715199778,undefined,1497357712349
903d185fccf839df,-0.026415612612856076,-0.413148714925182,2.1764899680134535,2.176717049845868,-0.6750926411724963,-1.6919767465697746,1.8765236097854903,-0.613235385111878,-0.558619241041244,0.013617443306294944,-0.3516739602389253,-0.007498828911959194,-0.8609347147950089,0.09317036730174327,-0.9297061353804094,0.8922517173930617,-0.4097397888991061,0.014715340724846603,-0.8954049936404271,1.002639353155215,-0.19296947596467173,-0.4362901243205186,0.0011926082713375594,-0.3689306256601654,undefined,1497357713848
903d185fccf839df,-0.009783418528857312,-0.3409457240162897,2.414467873644716,2.218346261301982,-0.5511088514674206,-1.7132892846783687,1.961161298212672,-0.05760279901454099,-0.5362578586427907,0.10487958494768075,-0.36365548043812906,-0.004849836336506144,-0.8783422459893049,-0.02626221950377839,-0.9223376952258965,0.8680044020524698,-0.34795819239069115,0.08658791559067171,-0.9003727288490347,0.9907209561913172,-0.1700872710091972,-0.4538940116072467,0.055196088580533334,-0.3681101503537291,undefined,1497357715368
903d185fccf839df,0.02348096963914021,-0.30396383759062695,2.5637626576790873,2.3238670399325168,-0.6500881148308021,-1.73599238008731,2.0025675997077954,0.21847054616902054,-0.47148571832605063,-0.0193331788936556,-0.4649909503324237,0.08114883830906537,-0.8304715352049912,-0.06977635575401753,-0.9318114103064706,0.9185196776762717,-0.46464884936348955,0.11222367218364093,-0.8925223070698712,1.0871922131832423,-0.14204630300909912,-0.42630696359865206,0.013426693695453261,-0.4179786655548519,undefined,1497357716833
903d185fccf839df,-0.12759465239342546,-0.307485898351363,2.70029722548291,2.4335010172334073,-0.6752572095083784,-1.7543304789794378,2.005704952621121,0.1817657552355199,-0.4746648522525093,-0.17599920614958944,-0.43895495181492883,-0.07355359756727664,-0.5824142156862745,-0.10403219049295595,-0.8939166162442783,0.8477983765971135,-0.5175628837176182,0.04257395829515738,-0.8488062313054681,1.034421740867678,-0.1783024541957351,-0.4034954954300475,-0.05772296021068814,-0.4067612313724527,undefined,1497357718342
903d185fccf839df,-0.13452468437909448,-0.35092503744033793,2.225616673432592,2.208065941813795,-0.6427132604217112,-1.737785892776483,2.0542722006985183,0.5007088236023618,-0.470462109233945,-0.058774625008434354,-0.3367943547875699,-0.02472750608965734,-0.33000501336898397,-0.09477391488320434,-0.8981271440096994,0.7285825296309358,-0.45334708987069156,0.0038036759505372768,-0.8388007925592718,0.9847463524385307,-0.20194554737422288,-0.42392275846507566,-0.04933531377241498,-0.4951981637375883,undefined,1497357719824
903d185fccf839df,-0.1289806311862315,-0.39906035497026876,2.0846159028796025,2.089613361262713,-0.6716057820004042,-1.7487542797890256,2.076975309843941,0.5728405990715802,-0.4776408426403658,-0.14456273618505167,-0.30298610970472206,-0.091985537324858,-0.2864861853832442,-0.13458469944706428,-0.8749692155320653,0.8680043737877482,-0.45708569235093494,-0.04812013051722255,-0.8694258337603707,1.022903698773575,-0.22087528229170544,-0.47807944718755246,-0.031801126338515506,-0.5166184747908948,undefined,1497357721340
903d185fccf839df,-0.1123485061130522,-0.3896680565443419,1.9984843162549226,1.974764370503019,-0.6547372382571595,-1.7252336228149205,2.1137610378804434,0.853262333757168,-0.505475282714507,-0.11563188714933498,-0.36992875505459555,0.022595816534435136,-0.4605614973262032,-0.19291224244282018,-0.8665481747256908,0.837695208413467,-0.4395400988703614,-0.04482066467431833,-0.8700835331202729,0.953456708437667,-0.2286334126587491,-0.5535739624202599,0.3072183990740122,-0.5060297248694368,undefined,1497357722865
903d185fccf839df,-0.06660996375570316,-0.3843848631052647,1.9359595108621823,1.9000324610987633,-0.6887623274452951,-1.7060663139385397,2.121931856097384,0.9191112742495229,-0.5313927295233204,-0.18575996943028486,-0.44388068213773285,0.07114039257926816,-0.6215811608734403,-0.08736721151044595,-0.8739166001557361,1.0741063704620906,-0.3859474830343342,-0.04275612540090852,-0.8618552846242543,0.9592311231241202,-0.22223194351195777,-0.49668217576756574,0.5499074164642023,-0.4405464237740744,undefined,1497357724342
903d185fccf839df,0.07753555728037402,-0.37323157814095836,1.5978130183417882,1.4254938926058438,-0.5217740410490662,-1.6992509600912826,1.9595360781008557,-0.01906802794507503,-0.45956399317812296,-0.46339897151940385,-0.5504090290032982,0.04735586104914415,-0.8870460115864528,0.059840331632076,-0.8212849405089856,1.2983939455022218,-0.24913780008869735,-0.009419509550917143,-0.8664102079422016,1.1415949106732304,-0.17690446115357678,-0.4484513993618956,0.8456301181436973,-0.35688557953882105,undefined,1497357725849
903d185fccf839df,0.18287263695559067,-0.44132543483500863,2.05271536230323,1.9078999717447516,-0.5870573600181914,-1.7144841845416456,1.884520862545113,-0.5418653941235865,-0.37541666400248935,-0.7639654301926324,-0.43474528654362277,-0.06066336266236181,-0.8348234180035651,0.017252033303431665,-0.7760217283789819,0.5426865866766714,-0.36417375221350823,-0.03964031522916513,-0.8257937207663881,0.8852877886026199,-0.21919975660234606,-0.3780832826804952,0.4799028998499986,-0.3552857296005976,undefined,1497357727361
903d185fccf839df,0.2008907753269857,-0.40669146226186975,2.510807633253835,2.467884861979117,-0.488839237031343,-1.7600976761019265,1.8998447440881268,-0.4632729710449993,-0.23998336886566737,-1.0533348331912533,-0.2989598892069443,0.008513551658339896,-0.8261196524064172,0.1079837351949364,-0.8118112548773467,0.9953026874655113,-0.29851620948427104,-0.021325445192533914,-0.7539854512100639,1.1524816150097195,-0.1420054756462778,-0.2650592724532258,0.7014808354883979,-0.25249129474978654,undefined,1497357728827
903d185fccf839df,0.01377891105703968,-0.45893588477865027,2.6990212038598553,2.577361861799537,-0.5870882125701244,-1.7892946900805868,1.9343451629632638,-0.3518634075128956,-0.3616682795910157,-0.10178681618297088,-0.19768412994347428,0.02070272191129318,-0.7826008244206774,0.27741133665263534,-0.8097059652268179,1.1023949756879183,-0.10167951548908262,0.13928433801456394,-0.6966255953861477,1.2294738424430864,-0.02778515510790831,-0.4184875103278009,0.9866032310278661,-0.3309398538233783,undefined,1497357730333
903d185fccf839df,0.044271134606966765,-0.4865256773743325,2.408088019666391,2.5357480570790916,-0.6333738490431808,-1.8117765074408239,2.0063571482011326,0.05396997081769861,-0.3934430386102238,-0.24824683382706822,-0.169052342255915,0.09603383446681944,-0.865286597593583,0.06539535916164478,-0.8633902402498976,0.7407062014335927,-0.2519395906386596,0.05209236760944832,-0.7524881333215483,0.8183815481734091,-0.1555426217746251,-0.4124603764533816,0.8378679595090394,-0.31807993312381194,undefined,1497357731834
903d185fccf839df,-0.1913512986167598,-0.4900476796790838,1.7330718186595053,1.7397035768729991,-0.80390041970181,-1.7848062475805628,1.9071608646566423,-0.6313419645593318,-0.4603077343171579,-0.2977264740372715,-0.15535429094789238,-0.01954200781532908,-0.9610280191622104,-0.03829804773063803,-0.8412849713219955,0.9488287582563882,-0.43193691974352416,-0.04555529093011172,-0.7746890145146299,0.9586305916944776,-0.1953547934856601,-0.39850990152087457,0.7382415672062445,-0.2668398927120415,undefined,1497357733330
903d185fccf839df,-0.10680434940395997,-0.4536527790235501,1.237336782760307,1.2334023575428046,-0.8472649241894973,-1.7697500457356958,1.9468052000571068,-0.40234769539436804,-0.5036671473193158,-0.4886451188696304,-0.17156892672492055,-0.003067537422397014,-0.9610280191622104,-0.17161811270465985,-0.945495608979063,0.6033048891605122,-0.47253695389162226,-0.1807826357840993,-0.8328465061239617,0.6019871961206937,-0.3450363233342781,-0.46231981063996735,0.32711481215677685,-0.37998654253418007,undefined,1497357734848
903d185fccf839df,-0.023643551511014837,-0.29222347917221453,1.0912324339889967,1.02456894848205,-0.6125041732390365,-1.744335714963866,1.9901996226264695,0.029903721169601,-0.44282124808322326,-0.6431672208732881,-0.2726448365881542,0.010039000475374857,-0.8870460115864528,-0.29105066065785784,-0.946548268528795,0.7770770755179554,-0.5452665039051644,-0.3793330860961087,-0.9119874338766526,0.7294863286834985,-0.4372948564775057,-0.4642694528759708,-0.3474807014219287,-0.4575888248940536,undefined,1497357736335
903d185fccf839df,-0.047205708569863156,-0.3051377799028927,1.5563426967979284,1.3985719117167914,-0.5137100521462756,-1.771906918338926,1.8989584966545514,-0.5416663585869185,-0.4026605683364033,-0.4856840060179895,-0.3203898089943333,-0.04709447694250184,-0.8739903631907309,-0.2614239637237952,-0.8981271366474656,1.0296530861955853,-0.42868395556039407,-0.32137398311894766,-0.911756539594853,0.9461270582461827,-0.3701398482984721,-0.367319930175942,-0.1888734248384964,-0.3588049407571228,undefined,1497357737871
903d185fccf839df,0.1606964931949581,-0.30455085258874837,1.9633941028263373,1.9914903653362739,-0.409505652118683,-1.7989563734923417,2.0344513595536977,0.34858018019088904,-0.5053785237755465,-0.3223394764717629,-0.19317453309408447,-0.01239794223681713,-0.9392686051693405,-0.31789988267945973,-0.9191797901990385,1.1104774423995039,-0.5236646724521004,-0.2578418923023782,-0.9005756358812106,1.0486961037812288,-0.3124853011894972,-0.40469673805142875,-0.27949460128444936,-0.4259205455584893,undefined,1497357739346
903d185fccf839df,-0.09571634653446316,-0.35562121588129375,2.237738751783139,2.3597040451048574,-0.5941647694718978,-1.786660320521565,1.978013088235411,-0.09457827931173825,-0.4524137107685506,0.2127572946277739,-0.14596195440614834,0.018415014894171054,-0.9349167223707665,-0.22068730238601686,-0.8844429158881718,1.2135283559425105,-0.416410760218442,-0.17046626556723832,-0.8872677028049486,1.0936903602040575,-0.2577893879986628,-0.3686498980619676,-0.2558255570981562,-0.43703752353034897,undefined,1497357740943
903d185fccf839df,-0.06660996375570316,-0.3720575481447156,2.172023765264287,2.083418514355203,-0.6363155574519369,-1.7722283537274552,1.8845892348163633,-0.6922273431670632,-0.4492382805467346,0.35514523220188055,-0.22801371990821476,0.0028512156077823616,-0.9740836675579323,-0.13458477715171155,-0.8949692463450751,1.2115077957940572,-0.41583742779321753,-0.1418856906791918,-0.8842520773538032,1.1122454868591343,-0.2422977374182536,-0.37768268435895147,-0.21319285174452826,-0.41893675591830876,undefined,1497357742366
903d185fccf839df,-0.18164920552924954,-0.3503379932142242,2.3232327088017155,2.3287447699288193,-0.7392856711942255,-1.7596434739176077,1.8411500877802482,-0.9559340275532477,-0.4702070289643704,0.24807471752435487,-0.275610578661512,0.057543961877896226,-1.0088987299465242,-0.07162803159720711,-0.8876008209150299,1.084209482116294,-0.30144223582180374,-0.08402158276520505,-0.8683273356149741,0.9378888902824397,-0.25178226375105245,-0.3282867059233366,0.11469081106161529,-0.36012566818277175,undefined,1497357743920
903d185fccf839df,-0.2800561842079777,-0.3421197540125325,2.3149384411833838,2.3337036997695697,-0.7832775955532674,-1.6931297178538434,1.8999841032450244,-0.4919883078107558,-0.4374942451239714,0.1749082191107314,-0.3275064760246766,0.020830822536794993,-0.847879066399287,-0.13551057622098273,-0.898127158734167,0.9811585120438443,-0.38517367856541795,-0.14310161558841775,-0.8908220824489159,0.6784866744171517,-0.3300448914918569,-0.38819034579503625,0.062058809324061374,-0.4275053383649934,undefined,1497357745374
903d185fccf839df,-0.37291924771548174,-0.3849719365593708,2.358322922230301,2.285963188273793,-0.8190718202428763,-1.6533696062451961,1.8989716247214339,-0.4084879417955702,-0.29389595505871574,-0.7223574055311017,-0.4110821652161952,0.06712543559049967,-0.8609347147950089,-0.043853049358657734,-0.9212850724873335,0.9831790721922976,-0.3115970081222628,-0.07750498635108498,-0.8999529207592039,0.8372292512557681,-0.2772133055729231,-0.4228732016834956,0.3662310198270474,-0.49534227349094756,undefined,1497357746846
903d185fccf839df,-0.3756912743119133,-0.42841104642035344,2.055905543429342,2.012354814361672,-0.8245438122916605,-1.649123402063324,1.8770784930787112,-0.5524038585041665,-0.34527063382021816,-1.079623421092115,-0.39373232643605793,0.021898734028986143,-0.9479723707664884,-0.025336368631409045,-0.8760218677195635,0.9589318699105918,-0.2927403823488583,-0.16773676761741568,-0.8864000977974611,0.7677822595736297,-0.3273927086398956,-0.4295469127622829,0.53904754280373,-0.45526499067888004,undefined,1497357748332
903d185fccf839df,-0.44914997911734816,-0.31511706409894863,1.7598685268806076,1.542677313086751,-0.8334717985973837,-1.6794477690176057,1.8421572988404984,-0.8851173949117604,-0.3280974339461384,-1.0985059490365516,-0.14986640521151573,-0.021117925595306158,-0.9653799019607844,0.03021364764878792,-0.871811317867441,0.954890636554799,-0.3250644056139863,-0.20734299884857804,-0.8732181060323966,0.7963001793554689,-0.3328309771193932,-0.45740137171895323,0.41010548471130254,-0.47056284815848537,undefined,1497357749842
903d185fccf839df,-0.45469403231021116,-0.3609042631804092,1.6341800158042767,1.5157457427328855,-0.8186809691448184,-1.753063374617162,1.9567537397511876,-0.2610955940787826,-0.32556392260588485,-0.680914635242076,-0.20925238021395598,-0.07454617953945164,-0.6825075200534759,0.045952866414350396,-0.8781271352833909,0.775056515369502,-0.38879132792791193,-0.1420186871582897,-0.8506953718081386,0.8325943186917931,-0.2887330534421879,-0.4251040507966316,0.15414499718206665,-0.5139759508364183,undefined,1497357751342
903d185fccf839df,-0.16778900353627255,-0.41843184990827453,2.0909962651318263,2.0210585178550424,-0.7059085838302714,-1.782845026337054,1.9033292184883912,-0.5718283898744516,-0.3432826159771444,-0.043724656341698385,-0.3420912972178766,-0.01265190672326525,-0.6259330436720143,0.304260506871139,-0.880232380760517,0.9245814429157962,-0.3091816101802551,0.12642213014215734,-0.8424811153434376,1.0697611719014481,-0.10723987957379923,-0.39123543500139885,0.09772892943742588,-0.45700786632079526,undefined,1497357752860
903d185fccf839df,-0.156700966161366,-0.39847333997214734,2.7270936795670626,2.7531378833230296,-0.7507233622959595,-1.8031140655224942,1.8113938369723324,-1.165847746444415,-0.3401579776280146,-0.03594489643321986,-0.4747479908968991,0.006372136650628051,-0.6650999888591801,0.22834213402050377,-0.817074398019097,0.6780673388012985,-0.5034587166422511,0.18902327616743725,-0.79753360284055,0.9276643177000606,-0.09228856837306536,-0.3640594124458948,-0.1358307731212896,-0.36524264295147624,undefined,1497357754350
903d185fccf839df,-0.08047020025408988,-0.40434346072536886,2.760908125509543,2.656918078552415,-0.6395555527732512,-1.7539368364358157,1.7412069321956691,-1.4501707198536071,-0.32022691644228884,-0.10087398564019918,-0.5416453125847526,0.09352787311812716,-0.26907865418894833,0.20334462669441514,-0.8118112401528791,0.6619025467017351,-0.45590125414836874,0.3538761330834574,-0.7894942668251608,0.9566441910337611,-0.004675203682017567,-0.35987358065182246,-0.06994011037925948,-0.374328553025274,undefined,1497357755978
903d185fccf839df,-0.12759458338260599,-0.336836706713417,2.252413381653694,2.037876589846228,-0.8042604225050438,-1.5932286477102033,1.6550097902174596,-1.786943196208848,-0.39959537618402013,-0.5643913032626027,-0.4066821122646174,0.16908718765243558,0.1487020944741533,0.1107612489597208,-0.8118112548773467,0.6922116272818517,-0.44449016967996985,0.1548063829180215,-0.8410397721621496,0.6319371703866761,-0.174632168834325,-0.3220354354518882,0.03577921658554079,-0.3003063253433995,undefined,1497357757362
903d185fccf839df,-0.23986179855972087,-0.32744446674347477,2.307920195188107,2.0533267633486747,-0.8790065831736703,-1.5971580737692301,1.7319999934120098,-1.3242812156662118,-0.3422563159965532,-0.4872911394942138,-0.46226280891114735,0.18695261737863494,-0.3822276069518717,0.1413138356184764,-0.8265481278241387,0.7447474347893854,-0.42201770787440873,0.15607297232343664,-0.8413896129017295,0.6089164942963924,-0.175447528832379,-0.31418340885279455,0.05152614202165559,-0.3007851973341955,undefined,1497357758946
903d185fccf839df,-0.2648101069384239,-0.3139431217866829,1.7987868051783575,1.8206307980318563,-0.7992718643086544,-1.6064284463655076,1.7917071109593694,-0.9560730064994285,-0.35999881061048095,-0.4698304839964877,-0.4383926121354784,0.08465110806108843,-0.5127840909090909,0.15149783259285188,-0.8191796729451583,0.47398593054013105,-0.3401034395753816,0.11833496107720125,-0.8329094778255778,0.5414405043852677,-0.2063809196990494,-0.3096370486480336,0.1212533336964353,-0.29477156428250745,undefined,1497357760328
903d185fccf839df,-0.10541843962197342,-0.20299705331780196,1.8128232971689107,1.8065946750078796,-0.5785408019661038,-1.6038383342869538,1.7286522577928758,-1.2934534138892593,-0.5399832308739212,-0.04349013406004785,-0.3387567354803821,0.10190922053632882,-0.852230949197861,0.07557956334841302,-0.8044428294473014,0.20524504296877308,-0.41431587935870234,0.14820112499343804,-0.8782698025188619,0.31189588130804186,-0.23859102414918448,-0.2520840933854287,-0.02075255495208851,-0.38649638445257145,undefined,1497357761854
903d185fccf839df,-0.17610515233638652,-0.217672545182806,2.2115804355789885,2.180415122674866,-0.7484810829262465,-1.6403328541983277,1.794539420812456,-1.0070427580842378,-0.548777423444184,0.2765308228111078,-0.39686200181173403,0.09686866793193873,-0.8826941287878788,0.03113955032425545,-0.82233758533425,0.23959544169884703,-0.436654494281425,0.1341103292921039,-0.8805857467599985,0.2491472125199874,-0.25326492127015365,-0.2693841884066035,-0.019271709554331537,-0.3810925240341624,undefined,1497357763339
903d185fccf839df,-0.022257538212799084,-0.3791018158061492,2.3557706248472416,2.35954845824811,-0.6313887034631803,-1.7442937905008562,1.844637220790826,-0.8574588365925434,-0.4912322246450732,0.1545353289091282,-0.2984358972724469,0.042008537921624935,-0.7129706996434938,-0.06051802834116773,-0.8297060328509968,0.1466474136922717,-0.5323485340728262,0.026361624955923715,-0.9016881274587316,0.10906755537210379,-0.32969726057396287,-0.29013039634733184,-0.2067608681245128,-0.4403266415461455,undefined,1497357764875
903d185fccf839df,0.01932289523908322,-0.3597302916401511,1.9742399054168798,2.0270694709911363,-0.6335384121016882,-1.746434361723063,1.8244981591544198,-1.011813506057286,-0.5411956421584209,0.23423934915184771,-0.1763688248433601,0.09529880468296731,-0.7782489416221035,-0.053111363820732976,-0.8212849773201546,0.047637592181450236,-0.6255465437283043,-0.09270404734545276,-0.9183405373880429,0.06448905518583806,-0.3956297312515883,-0.3282057669713552,-0.2764206196086669,-0.4556939735738364,undefined,1497357766443
903d185fccf839df,-0.13313870558628849,-0.2734389992323301,1.759868272743658,1.6240275624521974,-0.8380077864581676,-1.6967912848435518,1.8343835950881129,-0.9334662035949712,-0.4119484753934242,-0.4540553453199146,-0.25582083639476594,0.0902084051788124,-0.7086188168449198,-0.04385301050633409,-0.7960217591919917,-0.031166034285685804,-0.6644671734012568,-0.10382469779389962,-0.8815093242481034,0.08555412926986042,-0.3824809653675509,-0.37702460430883683,-0.4034503524214315,-0.48008753012634503,undefined,1497357767857
903d185fccf839df,-0.14284079867379873,-0.25935055159343984,1.244355282892533,1.3169282701751472,-0.8233403823412749,-1.6378242646248535,1.8530999152428163,-0.7735473557220235,-0.42793070395843186,-0.5923340902264731,-0.07260160961733621,0.020569033975434928,-0.8609347147950089,-0.12625223585735837,-0.7918112387888044,0.009246044889748105,-0.715762036859064,-0.2000917756582181,-0.8589935877951006,-0.06458071306408159,-0.4453314573923623,-0.41184035680848974,-0.429208835708182,-0.47942583640466535,undefined,1497357769311
903d185fccf839df,-0.3050044925866807,-0.2957455399329505,1.1882100773411683,1.165126413424097,-1.019612055890025,-1.5730085245611345,1.8736728839755064,-0.5782173678220387,-0.38156087967895463,-0.5849698276178857,-0.17758374125082269,-0.0036827093907997816,-0.852230949197861,-0.2743856687245733,-0.8339165385297164,-0.25949472962272374,-0.7040913162271194,-0.4323334879340492,-0.898021798369724,-0.269980574839289,-0.6116823744951825,-0.457539656620187,-0.5760428127154456,-0.5032011587530207,undefined,1497357770963
903d185fccf839df,-0.2869863197098759,-0.25758956505506037,1.1461011096434077,1.103667043888429,-0.9782532669160351,-1.5707188812896458,1.943128687676449,-0.12111870155561534,-0.4170561215329979,-0.4616426130994197,-0.1649437798264013,0.016900082170082594,-0.7869527072192514,-0.3188256817487309,-0.8528639245174618,-0.2938450718233546,-0.7413097906261651,-0.44973008390025493,-0.9102592209417049,-0.278357329121682,-0.6257299610648809,-0.4717952006337368,-0.5717698349370454,-0.4960551080878206,undefined,1497357772398
903d185fccf839df,-0.2592659847347414,-0.3644263531691375,1.4408623587060367,1.2688046139451712,-1.030566325412561,-1.6333963805151732,1.9228818140494903,-0.4045129654224117,-0.3798302179369539,-0.13466118311875885,-0.06336163578505377,0.05619175386737884,-0.5432472704991087,-0.14106560375055152,-0.9802325274633324,-0.174629224857177,-0.5791525774589267,-0.3171245782657643,-0.9424445521733639,-0.16585628834697655,-0.5557104790806932,-0.48717465331432275,-0.3963175848376489,-0.49455252274209444,undefined,1497357773928
903d185fccf839df,-0.10957644501121094,-0.48946072313694705,1.643750305045663,1.457415160770338,-0.9019848236638657,-1.7540346679395569,1.8445583052127201,-1.0482032344838814,-0.5398329869208282,-0.15273269852374624,-0.07694723683364271,-0.0023999568997358223,-0.691211285650624,0.08854122949686746,-0.9307587433945048,-0.033186693360664495,-0.3690261829502066,-0.17260680518653296,-0.9318373864438929,-0.05912966211063924,-0.4576346678839027,-0.49527328377319635,-0.2960873280187755,-0.46409169042120485,undefined,1497357775348
903d185fccf839df,-0.1830352188274653,-0.5845572112885965,2.2543270328828524,2.198774341934949,-0.839550642300273,-1.846370368172171,1.8298997697073789,-1.2553866289940998,-0.41471178196496267,-0.0810333360863828,-0.19032337269047428,0.0501746219532847,-0.9175091911764707,0.13761032852280264,-0.9612851267511194,0.09815285367289146,-0.26241474368954776,-0.03161014668799837,-0.9383164332606425,0.11248601053042559,-0.36704884753709555,-0.4319404862550178,-0.10042863906980637,-0.3744271110015441,undefined,1497357776912
903d185fccf839df,0.14960824878759313,-0.5599025521395059,2.783876260587581,2.795691167923677,-0.6238081485888298,-1.8440248236759036,1.7801780290055054,-1.4535037314274346,-0.46237603454764553,0.661915897215807,-0.40690524233454395,0.026945198143477733,-0.8087121212121212,0.34036799155171793,-0.9549693166974034,0.8114274177185863,-0.055532746105405456,0.28344747077685406,-0.9152969260819636,0.5801060010489786,-0.13007636411775275,-0.38066705214636687,0.06649357768904653,-0.3180091942323382,undefined,1497357778351
903d185fccf839df,0.1329761927252333,-0.5311388172315579,3.0371671881063507,2.919427153174726,-0.6217715832679144,-1.8590158075194252,1.8299997048578016,-1.1396330993107116,-0.41687380975719507,0.6156825954422648,-0.37709799289766704,-0.03170274976181822,-0.9175091911764707,0.38943723303617317,-0.8654955299004264,0.9750966337454336,-0.07383142692229741,0.4309733943451965,-0.8523046371536498,0.687956717114623,-0.018269444683562286,-0.3567770784641027,0.0641814740215815,-0.29899350866593405,undefined,1497357779825
903d185fccf839df,0.0816935281642018,-0.44778257058635157,3.567354553691082,3.4351620214130496,-0.5383134338848395,-1.7825538721605703,1.9166228786634478,-0.3963532890935899,-0.5178061447779961,0.617582795054187,-0.4758769565838926,-0.09373133436703425,-0.8348234180035651,0.47646566094594595,-0.7402321945183833,0.9367050299242884,0.023645530219720202,0.4546712699015872,-0.7691125544903216,0.7481954362120636,0.026718866509496533,-0.3004615663120513,-0.021753586416918096,-0.35518510323184355,undefined,1497357781368
903d185fccf839df,0.06783339518204429,-0.5417051456537276,2.2766575383547876,2.0716524719185028,-0.678785195000335,-1.771762505358826,1.873617669101748,-0.7228965108297594,-0.4530418770100204,-0.4535806431502487,-0.3716752682401789,0.015782013253081057,-0.847879066399287,0.35518137239568565,-0.8097059652268179,0.8437571432413208,-0.009981263923025145,0.2805406499555944,-0.7909006240985957,0.5645073818160804,-0.10218619830220979,-0.2582562662498031,0.036573054929716624,-0.39650907689804027,undefined,1497357782918
903d185fccf839df,-0.13591069767731023,-0.5669468198009395,1.9665837756785502,1.8336996232529348,-0.6073098862900197,-1.7807813193929205,1.877812218720286,-0.6670247538479316,-0.41415957320978464,-1.2886090591942845,-0.3768728803099406,-0.100318686097925,-0.673803754456328,0.2931505295166487,-0.7686532955867028,0.9084165942867898,-0.0735084173090138,0.2665385114461242,-0.7826583798337354,0.701060793852855,-0.08728682203888215,-0.22810016442358058,0.013983529444337077,-0.40461207860663156,undefined,1497357784348
903d185fccf839df,-0.2814423010224226,-0.4448475540517293,2.3959656871788946,2.1869102130670197,-0.6532972397915444,-1.7762649248312758,1.9798145030842476,0.0202880266461634,-0.460987555203435,-1.1278075196001693,-0.5254194898219378,-0.09386493239442908,-0.4475058489304813,0.1200195504710215,-0.8012849170582096,0.6033048043663476,-0.10777734598544961,0.17831427071222053,-0.8104637060313193,0.7078361080048847,-0.15002760575286317,-0.2780472051497944,-0.07695815679303318,-0.422573524970098,undefined,1497357785847
903d185fccf839df,-0.4158855909493506,-0.5422921021958643,2.894252766324203,2.696449613568665,-0.5366060089486548,-1.876790231174095,2.0044268646024026,0.036763871633867025,-0.3928463746429953,-1.485798401807981,-0.4599816852592148,-0.04186312293217826,-0.5693585672905526,0.12001949866792332,-0.7854954287350884,0.6295726515906713,-0.12778242832933553,0.15314082029774398,-0.7715054637122721,0.792265783269502,-0.132968884392511,-0.24661206827470272,-0.22282435947324267,-0.4905579600810626,undefined,1497357787339
903d185fccf839df,-0.31747871578685166,-0.536421922986658,2.920411336665303,2.736181164882593,-0.5749099446959055,-1.8537703605779194,2.031406037191339,0.20340919283591144,-0.4483863809878679,-0.4850760816398428,-0.38912045672709583,-0.04266174966659307,-0.9088054255793226,0.2024188017235949,-0.9360219307096579,0.7225205665383606,-0.05217175009016901,0.15157025116269063,-0.8654726349299373,0.9100023033713959,-0.13606378518276077,-0.30755778717570903,0.02877053087967803,-0.45313651474704425,undefined,1497357788848
903d185fccf839df,-0.29253033839732917,-0.4395643313846598,2.4048980926772283,2.3946558278325303,-0.7361999597140679,-1.8458323127508331,2.1253926847881948,0.7372451095900808,-0.4993619106993704,-0.4732000126570367,-0.2211779198162986,0.0006385871648045293,-0.9218610739750446,0.21445455224580723,-0.9276008899032834,0.5891605441505159,-0.05869056523561424,0.07349772393839883,-0.8645210684121438,0.8379529782321307,-0.19191548237988926,-0.36180452215299413,0.128546534626628,-0.43693951668716907,undefined,1497357790355
903d185fccf839df,-0.5129067288569117,-0.4976789038826542,2.3009016950558814,2.32939805890892,-0.7821667390247875,-1.8098385802013617,1.9779631298260154,-0.19627269843098327,-0.4680968344615618,-0.4874022092582976,-0.1865159015926036,0.007609041734080948,-0.9218610739750446,0.12372292805894979,-0.9644430391402112,0.44569735357902474,-0.202472590080913,0.0033350397461901155,-0.8770803444801979,0.8014740636488773,-0.22928995066737895,-0.4550429432909518,-0.005633168961907795,-0.49981705496134143,undefined,1497357791838
903d185fccf839df,-0.2994603703829982,-0.44484752482373696,2.025919162356027,2.1651353643760376,-0.7381233800849659,-1.8005006598929203,2.0695487521952574,0.49674363840225183,-0.47693320595530864,-1.1494641646915884,-0.2760319183162823,0.0807014970468585,-0.8826941287878788,0.1579787886994373,-0.9118113868556945,0.5305629431387361,-0.23499092098183083,-0.028469002820322463,-0.861358510122217,0.8121451893856358,-0.23198550822632816,-0.4821796055978908,0.021950227032399877,-0.5562614557825826,undefined,1497357793374
903d185fccf839df,-0.39232336487968283,-0.3415328266983881,1.1882100773411683,1.1664804067248726,-0.7837198732780337,-1.7249634314552518,1.9263479259164689,-0.34674722039240863,-0.40743435772330455,-0.9656524218849604,-0.2293647887336941,0.054049753104228784,-0.673803754456328,-0.12069719537701504,-0.894969253707309,0.32446100299383684,-0.5149782042686981,-0.1886608155871584,-0.8792493559559579,0.5656622663015366,-0.36072850882664137,-0.5198879323194342,-0.02975965160365149,-0.5203735696146471,undefined,1497357794835
903d185fccf839df,-0.2925303729027389,-0.16777615343051872,1.3209165802758265,1.15392999920951,-0.7442536573843788,-1.6971266911991891,1.8855070294162837,-0.5063129559315322,-0.3538224234969351,-1.2185658838167799,-0.21569564073870978,0.0963300855052098,-0.669451871657754,-0.21513232665954626,-0.8633902696988328,0.5750162839346843,-0.5316501394037583,-0.2673033096304186,-0.8804178229258174,0.6677385554973376,-0.38037988551994784,-0.48945114750718083,-0.1856345681139332,-0.5734110989637788,undefined,1497357796348
903d185fccf839df,-0.2523358837382529,-0.1572098542363414,1.6277999076890022,1.4462967196758942,-0.6096447470177055,-1.710845911633904,1.8493761093482062,-0.7492100237017543,-0.32715961482050226,-1.0767478945625417,-0.24038461552605425,0.06029582560384414,-0.8043602384135473,-0.21698395069963766,-0.918127182184943,0.7972831575027546,-0.4818412544562749,-0.191440976626857,-0.9190052354673447,0.8093580583745335,-0.3249522113619133,-0.48279503842009514,-0.13331315173327057,-0.6279578689256444,undefined,1497357797875
903d185fccf839df,-0.2440199074651876,-0.38321083310902193,1.8058053053105836,1.922182240102875,-0.6835063396795288,-1.755546342441,1.850825143103176,-0.8530311136660395,-0.36616820761716595,-0.8383933368383106,-0.1973520229539299,0.02043835134943597,-0.7826008244206774,-0.3438232020255941,-0.9170745447219124,0.6174491211116223,-0.5853154289800782,-0.33221597928959323,-0.9200197732218576,0.6773933796747876,-0.41746137363966584,-0.5005463103892707,-0.2303576026066307,-0.6261768600725209,undefined,1497357799327
903d185fccf839df,-0.38262134080299204,-0.42430197066149605,2.2013722625945493,2.2646135341714624,-0.6943680351840035,-1.7872589359799975,1.9277022705101592,-0.4696446756142177,-0.41227496566510946,-0.5037135699127283,-0.15814563838425674,0.10250257590043395,-0.9349167223707665,-0.37252404808728734,-0.947600891267358,0.44569732531430317,-0.5681360866077372,-0.36039124733808986,-0.9254982764930855,0.5728071376785796,-0.4524380797155219,-0.4961501433584188,-0.2015173626527165,-0.6469722660995281,undefined,1497357800880
903d185fccf839df,-0.15115687846309325,-0.40727850648798347,1.9002309054166455,1.8438020982996566,-0.7176754211482551,-1.8066219003626505,1.9407724157224373,-0.40809238723497093,-0.543182052792887,-0.6181148063805374,-0.11967167622619951,0.044734309937173894,-0.5998217468805704,-0.2938281485210932,-0.9581272217242613,0.734644379664625,-0.43424585698230395,-0.2615466623161595,-0.9146952004077399,0.6258547823352726,-0.3926357794094695,-0.4930144615917029,-0.12982272225642538,-0.6491712148720209,undefined,1497357802354
903d185fccf839df,-0.15115687846309325,-0.48476457392398364,1.8842805080599847,1.8828456779199034,-0.6572160908093174,-1.7882442040545359,2.0479554160523463,0.3845355873430817,-0.5584953632841941,-0.9344445020708139,-0.21975742821226257,0.007870228509153162,-0.6520443404634582,-0.26327565251775936,-0.8833902710629075,0.20928627632456584,-0.6216865202054912,-0.28330032578029735,-0.8707272404916767,0.27509359904732117,-0.4564079133297636,-0.5226137776885867,-0.25500157677346724,-0.5902582716937405,undefined,1497357803882
903d185fccf839df,-0.14422681197201448,-0.5299647287793304,2.011244786622421,2.0372184215736433,-0.6873120440028294,-1.8051358469947278,1.9403595234846223,-0.332742867789747,-0.55316933190252,-1.1960595757447487,-0.1778017216844958,-0.004986300268645825,-0.5867660984848485,-0.26234980164539,-0.863390262336599,0.3830585474761736,-0.5897330579903444,-0.2998483080024257,-0.8252829532420695,0.31651541779593734,-0.44501955990437664,-0.4886176184468902,-0.24567807875477302,-0.5282364652636611,undefined,1497357805353
903d185fccf839df,-0.18303518432205557,-0.5581415363731341,1.9474437054696765,1.9151823019122876,-0.750558796146647,-1.8174668395717226,1.9679540737503778,-0.2089156112103269,-0.5130765190335306,-0.9515806281689511,-0.09398153864484389,-0.00808271697057831,-0.7782489416221035,-0.20679977241441852,-0.9139166249705868,0.3709348191440738,-0.6409875176614047,-0.23384003625228927,-0.8239185746806889,0.4453542118681521,-0.3908319985646071,-0.422390651324781,-0.22487110827187337,-0.4993587425968313,undefined,1497357806861
903d185fccf839df,-0.10264637852013218,-0.5006139788732611,1.7726282348372575,1.7407313730020009,-0.7430605256462913,-1.7857123190952848,1.9463896560178706,-0.3003170710994126,-0.5952419359753469,-1.049385975583591,-0.12809988032447023,0.013110932413976869,-0.6650999888591801,-0.2614239896253443,-0.8012849244204434,0.409326422965219,-0.6999939768219774,-0.25331383729067297,-0.7778235842091794,0.5787663440494418,-0.3626667040110031,-0.39667078635820013,-0.3683712674607695,-0.5116620599004109,undefined,1497357808379
903d185fccf839df,-0.4477639658191324,-0.4207799099007601,1.3993917830252274,1.144318941071326,-0.8048364186324408,-1.7877480740439393,1.8586777446257974,-0.9050439751261571,-0.5729213404876932,-0.9983134500635633,-0.12123338929533706,0.04132971213074948,-0.7347301136363636,-0.2632756654685339,-0.8570744670073505,0.3951821910141089,-0.6893327018187371,-0.27334493719549396,-0.8259266586621309,0.5708361437695543,-0.38577172427008105,-0.438858407367829,-0.336762216516005,-0.45375142847364164,undefined,1497357809835
903d185fccf839df,-0.4061835323672501,-0.5581414779171494,0.9834082256354344,0.7536719577786549,-0.7631999191492747,-1.708134676097054,1.797095580875184,-1.2308349549757576,-0.49141894687130977,-0.6675118236847729,-0.09901741206936708,-0.04524743601786074,-0.7434338792335116,-0.47806913082275976,-0.931811395582003,0.38912036924514126,-0.7534114863852324,-0.388528516434479,-0.8698666308453225,0.3871788830335092,-0.4902481126383677,-0.41196946349502456,-0.35532620033413287,-0.3878751002050689,undefined,1497357811358
903d185fccf839df,-0.3244087822779304,-0.6115599012021803,0.6299499819122805,0.4166017858681448,-0.6228515812148907,-1.7671645861048904,1.9219166913673986,-0.5450075661732028,-0.34405429715276126,-0.6576585928871944,-0.02104815271732443,-0.08625854164912235,-0.6389886920677362,-0.5465808650545093,-0.9128640022320238,0.20928621979512277,-0.7573779382181511,-0.4437011204009713,-0.8811454907309245,0.09828864710029063,-0.5682105222451337,-0.4756614178565485,-0.35827055973632793,-0.4227819682066304,undefined,1497357812891
903d185fccf839df,-0.3784632318975253,-0.6796537578962306,0.6210178305508962,0.5508891373652347,-0.30050812145225303,-1.7731227810181118,1.916759628443557,-0.5404553839362765,-0.3085391554672087,-0.46461889832591785,0.06584291614398151,-0.021508820908230628,-0.865286597593583,-0.6363867290244193,-0.9339166557835966,0.03147282834660836,-0.8164468369962364,-0.5233885516016076,-0.9466496344642295,-0.0922209205131212,-0.655873947956172,-0.4799486474436252,-0.40535795058838986,-0.43083270976628407,undefined,1497357814398
903d185fccf839df,-0.12482252228076475,-0.7659450210760592,0.6088954980634,0.554542450266348,-0.05370281941178243,-1.8323390316058128,1.9649061142519026,-0.22785036046185167,-0.05407058168367968,-0.8230085305945866,0.08836264696317006,-0.025639503815276323,-0.9523242535650625,-0.6937884081970314,-0.9433903561397031,-0.19483530684197625,-0.9078016647341357,-0.5927722820217406,-0.9490915214173704,-0.2335786501408254,-0.7210560066782452,-0.49963352094029195,-0.45643486890426743,-0.4488956925625604,undefined,1497357815853
903d185fccf839df,0.21475114984701138,-0.5757519863167757,0.7939188875433085,0.6885179033746311,0.29779030026444425,-1.7510113152001092,1.8879842927562984,-0.44342884579819203,0.09728698651213043,-0.9670886322379907,0.09046383849889898,0.027288186674898702,-0.9653799019607844,-0.6836042299118121,-0.8981271734586346,-0.2695977988798449,-0.9433177521650393,-0.6543854900957072,-0.8567196236974108,-0.2517950119384454,-0.7155362928824339,-0.42471698079251713,-0.49091466801227135,-0.14786224967910067,undefined,1497357817345
903d185fccf839df,0.9160742928090989,-0.545814221412585,0.7575523983547189,0.6229521542570811,1.2042173430392096,-1.6735780870094867,1.814365509648643,-0.3487305749361699,0.07629209932373007,-1.0995805138344066,0.0584234132620491,-0.12484581698042917,-0.669451871657754,-0.6530517080069292,-0.8781271205589234,-0.16856743135293092,-0.8626126189659045,-0.6768674404051352,-0.8130805146877694,-0.11635028514671843,-0.6851849724722228,-0.45007275040898864,-0.5023022147372516,-0.08991422750632386,undefined,1497357818889
903d185fccf839df,0.7982631624607599,-0.6960901778436295,0.5604069305242636,0.7741473262805629,1.800900913203618,-1.636652655978605,1.7396948041080078,-0.5446496896703829,-0.1457678881520658,0.04775846222582064,0.09511255876988838,-0.12531040260211482,-0.06454016265597147,-0.665087562135338,-0.8612850094972391,-0.2675771398048662,-0.9314143968937804,-0.7079875256192294,-0.7936923517790823,-0.07554440576411924,-0.6879133843011855,-0.43492348950482773,-0.5600797281713354,-0.12988408283386754,undefined,1497357820351
903d185fccf839df,1.7241208737987161,-0.5757519863167757,0.5801853927500891,0.6996168842407997,1.2476332705526674,-1.704286774059839,1.8184969534117499,-0.3545049813009512,0.01664632210788664,-0.2790438208923118,0.03652937051731168,-0.11733830041838009,-0.2647267713903743,-0.6632358733413739,-0.9233903400511609,-0.2615154028300632,-0.9499811113996364,-0.707886199350891,-0.7825534295607572,-0.11698162390054326,-0.6917182415720108,-0.4324693371209023,-0.5590199448974954,-0.16286141687406683,undefined,1497357821972
903d185fccf839df,1.2570338747188616,-0.6538250395229049,0.6880088386928032,0.8169222015141853,0.2566886561670541,-1.7332671684655128,1.866496178606305,-0.5027993591245505,-0.12428382817457301,-0.03304183848040233,0.033609310660387644,-0.20386818143934676,-0.7869527072192514,-0.7002692218450967,-0.8907587112174203,-0.2857626899059337,-0.9622299804980461,-0.7264987204145693,-0.7994297373953025,-0.21255977528374925,-0.719876974437198,-0.42908041725131446,-0.5752954161630786,-0.13212732713604688,undefined,1497357823353
903d185fccf839df,-0.08601411542531395,-0.5739909705504039,0.5144701520942876,0.5705495386467363,-0.8702740302170079,-1.810714373489482,1.9589627751844112,-0.44056096654398536,-0.4221764999452374,0.03231700578517952,0.027599408149703093,-0.05254238411462357,-0.7651932932263815,-0.6974917339818614,-0.9286535126418464,-0.4090197278308218,-0.997901183200395,-0.7182342290429161,-0.8711470495541205,-0.36759132064446004,-0.7733262934638827,-0.5087901564119917,-0.6395290894656243,-0.4300128935432576,undefined,1497357824876
903d185fccf839df,-0.33965480778936963,-0.5604895671376273,0.44811677355848384,0.5775080583825913,-1.0372211736370338,-1.846745374979072,1.934836929925835,-0.6819959917707894,-0.4998173059649706,0.3618097102685068,0.011115652727697873,-0.010351448586488662,-0.8391753008021391,-0.6836042428625867,-0.9518114263950128,-0.44943187766805953,-0.9812036124636494,-0.6915598705228911,-0.9056133393820969,-0.40841260033030413,-0.7820749885602131,-0.4808190723236849,-0.5915033864796714,-0.4958169955238308,undefined,1497357826399
903d185fccf839df,-0.19828136510783856,-0.6262353053832074,0.4206824357312784,0.4188302592598763,-0.9765561358530185,-1.890993931276767,1.9310315901723951,-0.7594436915326659,-0.4932256297093999,0.20955202119250246,0.038161544940170815,-0.022577572518673057,-0.7695451760249554,-0.71230508892428,-0.9423377334011401,-0.5019676710432326,-0.9433864936765642,-0.6748788966496375,-0.9377496918120799,-0.4602283665511341,-0.7969488518820493,-0.4665618584044687,-0.5691447178209271,-0.501723694812803,undefined,1497357827888
903d185fccf839df,-0.335496819652837,-0.744225466145568,0.4040939004946154,0.4708314881649171,-1.0266577651711497,-1.9449763795203217,1.91314366387011,-0.9650449011684602,-0.42943470109118376,0.10692677865481312,0.049510697905083015,0.12673117941595366,-0.7782489416221035,-0.6761975524406029,-1.020232559640417,-0.38881371650782637,-0.922437708659749,-0.7142634728090614,-0.9970616568796251,-0.417836446049035,-0.8286144997945869,-0.45537593892512296,-0.5519368437427631,-0.4772847072957002,undefined,1497357829337
903d185fccf839df,-0.38123529299936654,-0.7330721811812616,0.7830725766788672,0.7868974883559575,-0.9933835376103183,-1.9810260152185748,1.961437419719941,-0.6748954260376566,-0.3266687493531726,-0.14403656626351216,0.12237288198092891,0.003297955618998258,-0.5301916221033868,-0.6965658960602666,-0.9686535448189308,-0.23928864763792448,-0.9001718636121543,-0.7229332730023911,-0.964876327140529,-0.3284484714853365,-0.8076168930143708,-0.4445315513750617,-0.5965140974184872,-0.4351477566784213,undefined,1497357830832
903d185fccf839df,-0.16778900353627255,-0.7424644065372076,0.8398556659732845,0.7926115425188048,-0.8311678022687168,-1.9832760605404116,1.9732925873518403,-0.5453402444513558,-0.28221195140544836,0.1336641819164872,0.0696788689103998,0.026235099883256816,-0.4866727941176471,-0.6836042428625867,-1.0065483241566555,-0.2493916886303241,-0.9128358631299225,-0.7426540606048528,-0.9995455252546785,-0.30277926462262783,-0.8258232590810415,-0.4421123989804381,-0.5793388040916158,-0.44548383614577075,undefined,1497357832360
903d185fccf839df,-0.39232336487968283,-0.721918881602959,1.0625215662648375,1.0442095839162808,-0.8704591639714102,-1.9799871748372802,1.976322129322135,-0.5256284856039074,-0.2969353022324861,0.014689524673237905,0.04686746963194152,0.02486494262196334,-0.5475991532976827,-0.6817525670193971,-0.9686535595433985,-0.34638090759560997,-0.8718161715397045,-0.7244658461695997,-0.9571868330575465,-0.31720761056363705,-0.8014172556206886,-0.41789486620705124,-0.6362145228122591,-0.47480640553078074,undefined,1497357833878
903d185fccf839df,-0.4339039018477943,-0.7565527957201132,1.0440196339359658,1.1073206529944557,-0.8798500005962893,-1.9809095536622343,2.0493018769970157,-0.056053485002589595,-0.28182406921030984,0.19444073112429225,0.09077073605740792,-0.023362778332934885,-0.6868594028520499,-0.6743458895481879,-0.9181271748227092,-0.3160717563536895,-0.8392797981275474,-0.7080698539257921,-0.9223637052019829,-0.2646681174606809,-0.7727634481051836,-0.41075147323769884,-0.621621012365296,-0.472168816434983,undefined,1497357835349
903d185fccf839df,-0.3812352584939568,-0.7677060952984157,1.158861580010906,1.345226833802796,-0.8699551618457515,-1.9182949456130118,2.0461224378005762,-0.0005563621709013425,-0.20805633277811442,0.25902430270221677,0.18606798431452404,0.018119179441602278,-0.8565828319964349,-0.6215733740820008,-0.9528640638580435,-0.211000141338622,-0.867827667515005,-0.6378185115728028,-0.885525495495849,-0.17666600153321876,-0.7134876351671724,-0.3919185462262112,-0.577188133835104,-0.46517928683129395,undefined,1497357836898
903d185fccf839df,-0.30777648467770247,-0.5857312412848393,1.6845827428464701,1.6461815637208639,-0.8636808892329578,-1.8551026855573147,2.0047161461259693,-0.19491862734647655,-0.2513865059465247,0.7781349614531619,0.21549720570623287,-0.0492061355269012,-0.8870460115864528,-0.5169541163173486,-0.9391798136498145,-0.1968558669904296,-0.8595959879882877,-0.5838175007360216,-0.8937957262762857,-0.1757882887427003,-0.6879706968999233,-0.4011330091315865,-0.5725973785046592,-0.4870296510903245,undefined,1497357838338
903d185fccf839df,-0.02225750370738935,-0.5012010523273671,1.9716881163077193,2.077832341605473,-0.6889269014106432,-1.8313304702547886,2.0671819259354107,0.2931213440624787,-0.2892087739860822,0.9621321569562589,0.25061007320968903,0.05569544319144285,-0.8783422459893049,-0.4882532832064298,-0.845495484362949,-0.1281552249862501,-0.816965509839846,-0.5571621401002589,-0.8503735188197816,-0.14483741020509688,-0.6544267454346436,-0.38657890266911077,-0.5862024670996503,-0.48875854116599243,undefined,1497357840034
903d185fccf839df,-0.00146726972874333,-0.5053101280862246,2.131829211206532,2.0961563969217396,-0.6049853323988784,-1.8372816768600628,2.03680241118285,0.12096754855085687,-0.3465145798305407,0.7674890247503163,0.22300680793391958,0.05547607192901557,-0.7651932932263815,-0.4864016332647893,-0.9118113647689932,0.011266732229448333,-0.8604411639440085,-0.5520704531289492,-0.8897445728765626,-0.06362600862521105,-0.6552703186580743,-0.35628915351792584,-0.5383993235472238,-0.4291426164080716,undefined,1497357841338
903d185fccf839df,0.15931037638051315,-0.5593155955973692,2.203924305840659,2.164676306633791,-0.5006060760437677,-1.8453012479587494,2.0016839780185376,-0.08987834774668592,-0.3796573659805811,0.7833917941263804,0.17393430591024928,0.016843260111560517,-0.7956564728163993,-0.5021407613749299,-0.8433902167991215,0.015307923188158802,-0.8510700454674666,-0.5450535512907855,-0.8617853155918113,0.0027874874192859093,-0.6370475254815283,-0.3573573959081864,-0.5077191932322631,-0.38042816916927774,undefined,1497357842866
903d185fccf839df,0.17871459706094342,-0.5610766405917333,1.936597394605235,1.9696259515155432,-0.5400002955130535,-1.856798372332186,1.9871490375146177,-0.2238178044530877,-0.3608105789855867,0.6307440123004838,0.255253276320982,-0.020858129877088016,-0.8870460115864528,-0.487327445284835,-0.8518113165033664,0.00318430791494509,-0.8792994015470722,-0.5460224914685698,-0.852185691436034,0.023837162330897402,-0.6279257202776685,-0.36986386322559167,-0.534376017771382,-0.39073418446957703,undefined,1497357844704
903d185fccf839df,0.2882097856416268,-0.6996122678323579,1.7911309295769777,1.8942435730096765,-0.449537590841926,-1.8961974543152031,1.981018961450772,-0.29460452262435066,-0.26445467961849745,0.7324316950249432,0.21154808883332957,-0.05885343249601507,-0.8000083556149733,-0.45677494928150125,-0.8349691907172146,-0.0008569254408476836,-0.81530907015443,-0.5755086773744602,-0.8651927635470048,0.05378714019131634,-0.6460468063978202,-0.34299587637134465,-0.48768199071725477,-0.3684864186685153,undefined,1497357845854
903d185fccf839df,0.1911887167448852,-0.7172227470039918,1.7483840781361641,1.7476595300535305,-0.43703018416138745,-1.8929761162898056,1.9815607082969353,-0.29886556706698036,-0.15928045709263602,1.3463521314665117,0.2805591689731078,-0.022999458638253423,-0.8304715352049912,-0.4660333025959001,-0.8297060254887629,-0.031166006020964268,-0.8111211550708436,-0.5859200354236095,-0.8820270905407583,0.13519872397175747,-0.6420961506237091,-0.3769211234544122,-0.4974423311535315,-0.418769812758855,undefined,1497357847311
903d185fccf839df,0.22999712360033597,-0.7794463660328512,1.1008022149564842,1.1300674276703906,-0.5030129256158488,-1.9313736244940303,2.0465063943438775,0.02596194476878035,-0.12926175118252783,1.1665969449510052,0.3250822246413804,-0.0225006168700347,-0.8261196524064172,-0.52898996397037,-0.8518112870544312,0.10623530625211623,-0.8058635978495493,-0.6229994200014128,-0.8887860092909758,0.017215834450742366,-0.6839016617239031,-0.3664847815555167,-0.4801513327210386,-0.3971339612561219,undefined,1497357848952
903d185fccf839df,0.3048419452202158,-0.7964698302063637,1.2437171450125308,1.2273745516048664,-0.37963598846911356,-1.9287741941991914,2.012894845373126,-0.16321195695393484,-0.1385453010795949,1.4544823110989529,0.2707865985357227,-0.09700377277965747,-0.6085255124777184,-0.5160282783957537,-0.8297060034020616,0.2274717981609118,-0.7230979809887904,-0.5992445480958788,-0.8504994604980025,0.11775228669465729,-0.6432753238038968,-0.38399981662549165,-0.41483518275122705,-0.285333899988466,undefined,1497357850382
903d185fccf839df,0.701242266091067,-0.7189838066123521,1.4721252696763056,1.4874907595843454,-0.2072168452022724,-1.9443777670459739,2.0455885887449776,0.09860922257203973,-0.17426516929940025,1.9656788065464965,0.28619629003264435,-0.02955223456221839,-0.42574643493761144,-0.4891790952264755,-0.844442861624386,0.46590340729910246,-0.6417343210863338,-0.5326536449405357,-0.8308454189166941,0.28847485141148543,-0.5752715075245197,-0.4177261522739663,-0.3636919223742016,-0.2999141213642819,undefined,1497357851956
903d185fccf839df,0.3644406550651321,-0.7189837773843598,1.9748780432968818,2.026601035739131,-0.04679082788111891,-1.968345637991586,2.0190801352632075,-0.05173178433885333,-0.17392603140944748,1.6145478508869116,0.24843169563444437,-0.08023951705761599,-0.5780623328877006,-0.5049182880904889,-0.8412849934086969,0.6214902414085289,-0.5675494652618724,-0.4527318966896924,-0.8039706677276708,0.4776139572994036,-0.4992456355769893,-0.4612797289159403,-0.37650424529864146,-0.2962339771991298,undefined,1497357853347
903d185fccf839df,0.4683917904529525,-0.692568073240905,2.3430106627536422,2.36874689416857,-0.1565392166459338,-1.944060988846567,2.026717091854288,0.00846732150565503,-0.2147613024969736,1.965326063518118,0.22926579109720918,0.02241378005217819,-0.678155637254902,-0.5021408261288027,-0.8339165606164177,0.6800879554791949,-0.5533319645510125,-0.442808173138866,-0.7828752825124119,0.43204995532565604,-0.49582811708463154,-0.4784904072568257,-0.36430363879268357,-0.287067596352096,undefined,1497357854892
903d185fccf839df,0.16762642166439792,-0.6931550882390264,2.1311908191895808,2.1683825558303025,-0.331396067228141,-1.9483677518890243,2.0206264612711142,-0.07922975948396899,-0.24768744831603787,1.0325368263329195,0.16257529398901582,-0.0714108552027311,-0.6041736296791445,-0.4280741161705825,-0.7676006728481398,0.4638828188859276,-0.5869279026571477,-0.3314053609818406,-0.7382216353506486,0.6261165606869795,-0.39982321450897684,-0.5022679709528343,-0.4718510026391002,-0.3414636844476203,undefined,1497357856390
903d185fccf839df,0.0013046878568687057,-0.7354202119457548,1.869606386463328,1.7872397690223234,-0.5228231743169506,-1.945593628083392,2.013257733634347,-0.17061590532907472,-0.27327805485968587,0.6638549853018646,0.13846724171009558,-0.0034587404410405024,-0.9392686051693405,-0.5002891114332895,-0.770758570512764,0.4113470679078369,-0.6057247221480909,-0.35854835834166576,-0.768986611759966,0.6543111129932861,-0.41152211118450716,-0.49972628847160383,-0.5108517084379411,-0.39428170561254466,undefined,1497357857829
903d185fccf839df,0.06090332869096553,-0.730724121188776,1.710103175307568,1.6581818768594254,-0.5700962385699251,-1.9235799884510543,2.051379408115513,0.08703277289223446,-0.2200463270833081,1.0047221471908914,0.2315933843198297,-0.03216853968082156,-0.8826941287878788,-0.5910208392263433,-0.7802322340577016,0.4638827906212061,-0.618612243481784,-0.3930882333630182,-0.7744651154043345,0.6946858356879922,-0.41679685138224637,-0.49233993184528513,-0.5681631268404669,-0.30924831775981115,undefined,1497357859344
903d185fccf839df,-0.0111694663324828,-0.5998196304677449,1.5710170725315344,1.637878405362677,-0.6038127490248696,-1.86255159186115,2.078492712203834,0.32962298252365013,-0.22890521337238567,1.2516772363728002,0.37254017965635217,-0.049088466809255396,-0.43880208333333337,-0.5373224728877868,-0.8044428368095352,0.2820281940816204,-0.7297406593215695,-0.4761574565538218,-0.7718483086380563,0.5356352925117509,-0.4749535560548174,-0.47276201981043003,-0.5580833945348459,-0.3591234559576088,undefined,1497357860879
903d185fccf839df,-0.10680445292018918,-0.4865255896903555,2.0342129217004596,2.134082840783929,-0.6977520206033399,-1.8573247783232794,1.9831438326979405,-0.3085796079036517,-0.24664623799764274,0.6862449001826891,0.5125950771724588,-0.11012474611987362,-0.3604681929590018,-0.515102466375708,-0.8707586877666442,0.24565715040892852,-0.867467929215288,-0.5361494326021791,-0.843719550220201,0.5191127635499806,-0.5150411040302081,-0.47681245757042545,-0.6270488334363783,-0.3757471076334119,undefined,1497357862352
903d185fccf839df,-0.12482262579699396,-0.4078655214861049,1.3962016018991155,1.5618490835857086,-0.7695667538890322,-1.884651412115035,2.0921019556034204,0.37409138966563577,-0.2951918845846403,-0.02394619895439987,0.4035351001990286,-0.1652102403637839,-0.7564895276292335,-0.49473408390372065,-0.9444429862404999,0.059761292248828556,-0.770999276796079,-0.5878452508773498,-0.9062990269520014,0.4043481464886266,-0.5853012103434743,-0.44157601493021525,-0.5713263512023131,-0.3711322887067033,undefined,1497357863901
903d185fccf839df,-0.26342399012397893,-0.4501306598068294,1.3272966883911008,1.337570418169426,-0.8602454635893716,-1.8888463728356883,2.0205791263800514,-0.13327083562721245,-0.3322088198984261,0.017952170359955485,0.3390864766602553,-0.12663063275683137,-0.6520443404634582,-0.6317575329410581,-0.9528640491335759,-0.2271650606294323,-0.8483377571302646,-0.695061988359879,-0.9604543434005164,0.12894695314160562,-0.7048016361681871,-0.443346352543356,-0.6025832226745399,-0.513995055050434,undefined,1497357865330
903d185fccf839df,-0.4034116092870478,-0.5141153384440492,0.6401579007597701,0.7052987205363298,-0.9353516269692079,-1.9293448552737904,1.9346870410798644,-0.777693139021571,-0.27345254872620617,0.4905402207315423,0.2702586770229195,-0.2227755685963897,-0.40398702094474154,-0.6567550467425339,-0.9949693488744878,-0.11199041875432592,-0.8910503110648819,-0.6949226633332164,-0.9858737572114946,0.12465078744097108,-0.7122447206106844,-0.44472680711997475,-0.600177440448293,-0.529442520158405,undefined,1497357866855
903d185fccf839df,-0.5531011145051685,-0.5751649713186543,0.8200772037474591,0.775329630956201,-0.9304762049845601,-1.9328084347341616,1.8993108924137236,-1.027766270999852,-0.2617868800767091,0.4273218438822242,0.31108658443184534,-0.3165194385704302,0.6056497883244207,-0.6734200645773676,-0.9854956779673165,-0.21706197723995038,-0.9217888841368661,-0.6755881856881788,-0.9645334837990638,0.1079742704303011,-0.7097740857149407,-0.4238661659329378,-0.618315189385013,-0.5031936354599,undefined,1497357868346
903d185fccf839df,-0.1927372429041561,-0.5921884354921669,1.062521820401787,1.0906607782086102,-0.6886594698707531,-1.9237826319200668,1.9181192604035027,-0.8370530239309485,-0.10322995767522035,0.7088706413342638,0.3224575334972984,-0.3476200063872861,0.7971326314616757,-0.671568414635727,-0.9633903869527131,0.46590357688743167,-0.7117742296866867,-0.6307129463250994,-0.9224686568880023,0.5675254733002566,-0.5769886231785498,-0.42673701574754475,-0.4570708938186806,-0.4714118630833162,undefined,1497357869942
903d185fccf839df,0.13852021141268658,-0.6074508546713153,1.7420037158839403,1.78988549020178,-0.45624385425212716,-1.8735968434430619,2.0569020131970395,0.19855533528550257,-0.165273833674692,0.7686813762363475,0.20742055534805856,-0.29558024492990737,-0.2212079434046346,-0.6493483822220992,-0.9570745695367632,0.5265216532535002,-0.6220809638317902,-0.5718292363504455,-0.9445365988701729,0.5839094155395081,-0.5522161031605088,-0.4563195429331934,-0.4571246695204151,-0.46297155890897,undefined,1497357871330
903d185fccf839df,0.09139562125171208,-0.5798610913036254,2.1956302923592768,2.185719852317357,-0.5012540698058496,-1.872094484262612,2.062471937980564,0.2608993051926623,-0.22188682612377322,0.6880517892056309,0.02813523612547739,-0.1838340274023335,0.19657280525846704,-0.5789850109994836,-0.942337740763374,0.6214902696732504,-0.45976335178773353,-0.48939330742218456,-0.8801309542854626,0.7236195093504899,-0.47085374386141277,-0.4706574498323912,-0.4499526676172385,-0.31864825570834887,undefined,1497357872858
903d185fccf839df,0.1121859587465873,-0.6262353346111997,2.5369659494579855,2.4722493439260305,-0.5526928354978771,-1.8858789227489585,2.059986773707418,0.2290151980542667,-0.3553929254392,0.7489082375114642,-0.12912560533588768,-0.08441543480013694,-0.36917195855614976,-0.3651173576653035,-0.9181271674604754,0.7851595139648193,-0.4825025714692098,-0.4056274623702376,-0.8776820708211812,0.8995929419990045,-0.3935951135698303,-0.4718858155887664,-0.39342471469898,-0.31074845572736387,undefined,1497357874320
903d185fccf839df,0.10664183654290482,-0.5276167272428296,2.194353762462323,2.2600426816039065,-0.6024756164139532,-1.8751923741932437,2.02823187121961,0.018582015537811077,-0.37446321892792683,0.758757004456195,-0.014755237358794866,-0.00016005017738444493,-0.5475991532976827,-0.3965957045410066,-0.9097060972051657,0.7083764476461366,-0.4636245043574576,-0.34946691770624555,-0.8708391888539975,0.6868942188592823,-0.42049448068466083,-0.46418430135353833,-0.26777190627576425,-0.31240191820118357,undefined,1497357875891
903d185fccf839df,0.10109785236086127,-0.5352479368324038,2.230721014061761,2.1864906607646155,-0.5475191383917425,-1.9054701552419278,2.1234676623676747,0.6207109507108203,-0.3460518358462467,0.9125535329131159,-0.03646873551619514,0.09936299895963636,-0.6433405748663101,-0.3558590691047773,-0.874969230256533,0.6437169966006676,-0.5123426234381473,-0.3075871622473025,-0.8438734797169324,0.7346447998979303,-0.3931131370457012,-0.4698335444925021,-0.23915598768129293,-0.32185731797354045,undefined,1497357877358
903d185fccf839df,-0.06522395045748741,-0.5088322326889491,2.2402907950292485,2.129163826803139,-0.5867282178089853,-1.9106410666041174,1.9563093061083967,-0.487631119337974,-0.3543587772311025,0.8822237184763013,-0.13645898599564427,-0.03797684000757349,-0.7651932932263815,-0.27716316953858317,-0.8065480822866613,0.6659436669986417,-0.5196073463636558,-0.21540483538583818,-0.8028021992040777,0.8139160011614175,-0.32585321249058036,-0.4272156815965116,-0.12031637981619855,-0.2595173894723958,undefined,1497357878850
903d185fccf839df,-0.009783418528857312,-0.5334868772240434,2.2422049545323057,2.2897987839190965,-0.44361302525070107,-1.9122948265770032,2.0678972293349567,0.286064249786708,-0.2784932050105517,1.1008108041457303,-0.11995967422755324,0.022428591206198556,-0.8217677696078431,-0.22716818078795498,-0.7949691070044935,0.6821084308334836,-0.5682859995208036,-0.20283394271219837,-0.8237926324458154,0.7926353508470314,-0.3333753027500932,-0.42936320825995666,-0.07252372318707125,-0.36622698820446725,undefined,1497357880341
903d185fccf839df,0.11495795083760907,-0.5663597463468335,1.7994246889214103,1.7442246256655072,-0.6123293127464335,-1.9053699970667222,1.9422661362333744,-0.5814731466671541,-0.30114616389642296,1.018535036027092,0.01478336909809133,-0.09415357785115219,-0.7956564728163993,-0.20772564918833697,-0.7770743658420125,0.7790976356664087,-0.4177434959582242,-0.28084947640551,-0.8469030997012734,0.6629804419663236,-0.39569663819075246,-0.4287825266025045,0.06653926797023947,-0.3531982363666374,undefined,1497357881823
903d185fccf839df,-0.03057365250750333,-0.6027547346863442,1.6131257860923458,1.5575775837380992,-0.803704990263768,-1.8775146242505594,1.9841168741210342,-0.3348888598149659,-0.36082576311350295,0.864635757264687,0.036913466862184934,-0.06611802444105719,-0.6563962232620321,-0.20957726027765383,-0.8307586335028584,0.5689545186951598,-0.4245633237120478,-0.3596566272612155,-0.8863161358283757,0.49646164862916675,-0.4739710315637383,-0.40449570589714806,0.09337085542540371,-0.3242217225236138,undefined,1497357883337
903d185fccf839df,-0.11234843710223272,-0.5921884354921669,0.9910643553737638,0.9952348399311015,-0.8801585790474072,-1.8728677923729,2.017331322245014,-0.09870694023196298,-0.48221889053149497,0.2539180764910379,0.017408789468769906,0.006937826967784958,-0.8217677696078431,-0.44659078394705665,-0.8897060811166235,0.476006575482749,-0.5404288429257516,-0.4689569013975802,-0.9028915812662376,0.4056108195671768,-0.5387777277031524,-0.4065705909990516,-0.04383868552627563,-0.26103670226221354,undefined,1497357884822
903d185fccf839df,-0.03473169240215059,-0.4289980614184748,0.7735027957113797,0.7254278342461409,-0.8629197472540076,-1.8091630995026275,2.0461461128406406,0.16793004863671435,-0.4049318286682472,0.2462799548391227,-0.10843366812143695,0.03912520034394575,-0.7782489416221035,-0.5475066576483932,-0.8349691612682795,0.5447071750898461,-0.5216921750523436,-0.5795807612275997,-0.8609526968775516,0.4978937010266517,-0.5458635101404254,-0.4818738457749896,-0.4423904691465952,-0.18376762630783106,undefined,1497357886383
903d185fccf839df,-0.0915583066398159,-0.36560044162136496,0.7613807173608329,0.7334502600803974,-0.7883381615589916,-1.8024199527184988,2.0155377952352858,-0.01031461390351266,-0.4121523545739207,0.15000060173942717,-0.15204210324198966,0.032150062565640423,-0.6041736296791445,-0.4234449265626085,-0.8454955064496503,0.8437570867118777,-0.4983204912924817,-0.5262193776413318,-0.8525845109283532,0.7296711039842769,-0.47625729971808617,-0.488571578739318,-0.3634943463806743,-0.23441696291549902,undefined,1497357887824
903d185fccf839df,-0.2412477773525269,-0.3250964067509892,1.3974776235221704,1.335664160870622,-0.8057415630826363,-1.7915004797182055,1.983288479221094,-0.19717892167205361,-0.37961618803317443,0.08647601279258378,-0.12373230447482673,0.0722202183630356,-0.678155637254902,-0.43177740310308893,-0.85391657670496,0.8680044868466343,-0.5856239660608448,-0.5594799970986177,-0.8544106783653029,0.7303640366814347,-0.481767622120948,-0.5003866585199581,-0.510584938246906,-0.25614742188721235,undefined,1497357889328
903d185fccf839df,-0.43806183822621236,-0.40903955148234766,1.5735688616406946,1.4980901267450941,-0.858774618417346,-1.8109123597050423,1.9264662586921582,-0.6114741920929355,-0.3968951471372559,0.059687605887067695,-0.07028801251941866,0.007237177826406785,-0.8261196524064172,-0.4002990821289349,-0.8528639245174618,0.8942723058062366,-0.5472157830904059,-0.5454525265320679,-0.8442792959100214,0.6268248934989099,-0.49157992524747807,-0.510689974980174,-0.48044389100916896,-0.2424399114906794,undefined,1497357890832
903d185fccf839df,-0.45608011461924636,-0.45541379478992194,1.5346503292059952,1.4873069917866166,-0.9038568291551148,-1.777622873439461,2.018272783504825,0.0405947473267518,-0.37239316544924556,-0.17388050133156788,-0.16703278939372193,-0.042454102006146646,-0.8957497771836007,-0.3928924111331129,-0.9402324437506113,0.3163784232233652,-0.5901181887820983,-0.5397085478901066,-0.9497212349223385,0.26676304525733147,-0.5939123219185772,-0.4777433136328153,-0.3740401359866884,-0.5088364138849666,undefined,1497357892332
903d185fccf839df,-0.357673032424289,-0.4143227449214248,1.6475781157778784,1.5206750169667411,-0.9393321958141608,-1.755737341424098,1.910200910651725,-0.6510624908366437,-0.3907585142058703,-0.15974653851586915,-0.16804048861591012,0.05495548329416139,-0.5258397393048129,-0.44381325075611044,-0.9676009368048355,0.4032646294609729,-0.5521429941643445,-0.5636534083994055,-0.9826202395971871,0.3385967923757458,-0.6054357690286033,-0.49037166499033347,-0.335915703349299,-0.5218992957820365,undefined,1497357893923
903d185fccf839df,-0.02502956480923059,-0.4178448349101531,1.7751805322203167,1.8382624152312228,-0.7201234209544292,-1.7647841056238978,1.9013253166292676,-0.6582124697665503,-0.5967704317236345,0.44881433782780905,-0.19787552262746208,0.022380862462260058,-0.5998217468805704,-0.40955742896794656,-0.9107587346681963,0.263842700509996,-0.5375636154017485,-0.518917494721852,-0.9498401809335734,0.22298526364193103,-0.5991953599864777,-0.4460905180592746,-0.34996768346453894,-0.5369985015462653,undefined,1497357895343
903d185fccf839df,0.11079987643755208,-0.4818294989333767,1.8925745215413667,1.7847288267865054,-0.8542077667957096,-1.8696627603761231,1.9209489299779074,-0.7225874465302995,-0.4727887533103168,0.656683851406393,-0.14080884226166704,0.023877660780822124,-0.8348234180035651,-0.47158824594543436,-0.9118113794934608,0.14462685354381838,-0.5540777727342012,-0.554312317244849,-0.9503229610308735,0.17668213767337987,-0.6313364800858893,-0.43560507163022255,-0.3472746258160052,-0.48731383428055214,undefined,1497357896839
903d185fccf839df,0.033183131737469944,-0.6532380537527759,1.5180617939693324,1.552799979682581,-0.9331093446747333,-1.9352867451151823,1.953455954161275,-0.6352116779643183,-0.4463665427079356,0.4267721177902661,-0.050240029331960034,-0.00025701738639735536,-0.8043602384135473,-0.39659573044255575,-0.8728639700549393,0.3931616591303771,-0.5301746537464211,-0.5103616881514321,-0.9220418525011277,0.44265948343040906,-0.5554677645818761,-0.45634293500766115,-0.35764340071687295,-0.49368352782757213,undefined,1497357898400
903d185fccf839df,-0.22738760986495962,-0.6426717691725947,1.172259934121457,1.2391607567599487,-0.8550820452084594,-1.948824283818591,1.8941590890968099,-1.025751138119341,-0.3889036921170048,0.2117724939331583,-0.07162320630384478,-0.03565668643728821,-0.8565828319964349,-0.32900982118162636,-0.8591797198467104,0.3749761372940312,-0.5426171382745801,-0.46076840570440236,-0.8960906814672481,0.5138156987068649,-0.5141555970751852,-0.4884821976021757,-0.369559130207748,-0.45216692735025044,undefined,1497357899873
903d185fccf839df,-0.25094987044003714,-0.6614562637264753,1.6928767563278522,1.6949935665816753,-0.8421323522289211,-1.9538158423303484,1.9227293084940786,-0.8244666784015375,-0.35338481468845667,0.3112508540922143,-0.14389212416554642,-0.011000000267528476,-0.517135973707665,-0.41326073532661484,-0.9128640095942576,0.5689544339009951,-0.5941430724166743,-0.4543911307402587,-0.9130159667699501,0.4693141935749157,-0.5223235701048655,-0.46124927227418316,-0.324331450532679,-0.4013584000827341,undefined,1497357901328
903d185fccf839df,-0.24401983845436812,-0.6491289195379338,1.7235017835550686,1.68499605008144,-0.7454159389571545,-1.9228555955580655,1.880731306326303,-1.0478265945623035,-0.3232600694766935,0.5534550314729516,-0.11662232144269993,-0.06810125087779016,-0.40398702094474154,-0.45214579852585085,-0.8676007753775524,0.6720054887676093,-0.6042834038506725,-0.3561798414536241,-0.8838952393323329,0.6215894221279463,-0.44167982856534616,-0.44246692254656234,-0.3370593935894675,-0.4120804763475921,undefined,1497357902865
903d185fccf839df,0.005462727751515963,-0.6591082037339897,1.8364295701269515,1.9136211746093943,-0.6010767589060155,-1.9072100952528628,2.018414805462123,-0.0662809474970033,-0.3721507881847213,0.9486412435958036,-0.11136079582649516,-0.08317055378260206,-0.7956564728163993,-0.4327032928277819,-0.8739165927935023,0.5709749940494484,-0.6400598602877478,-0.2862261455710058,-0.8930260774407579,0.733536118853123,-0.39084001239472127,-0.45482874679436963,-0.3589277617331605,-0.38444891222903965,undefined,1497357904341
903d185fccf839df,-0.14422677746660476,-0.7107655820246565,1.6979808428200718,1.6540434488001836,-0.7868775922894534,-1.9176404289207403,2.094976342311925,0.374927786016114,-0.39402981250218566,0.6844024164450732,-0.12783412245249967,0.028056986086871363,-0.8217677696078431,-0.48084660573522053,-0.8549691847190555,0.23959530037523935,-0.7492148296466914,-0.2949402743768772,-0.8894297169988182,0.6057598172205313,-0.4140486473575931,-0.46775911929453445,-0.40360431999590746,-0.39755278630758645,undefined,1497357905826
903d185fccf839df,-0.1456127907648205,-0.5962975404790166,1.8562082864897265,1.8960102539157386,-0.800464999891743,-1.9046013471585235,1.9791780953598934,-0.35425702547687765,-0.4309970094412037,0.5715858397469011,-0.18060775193923112,0.030024223296848538,-0.8304715352049912,-0.4354807418386936,-0.8654955225381926,0.23959546996356856,-0.7016931668623742,-0.3065738921281764,-0.8983016726154412,0.5329405731610668,-0.4337577151980123,-0.4950080835648863,-0.35651265605965526,-0.4680949988069566,undefined,1497357908556
903d185fccf839df,-0.24263385966156212,-0.6479549333836795,1.9659458919354975,1.9711700485129888,-0.8299643798863021,-1.9193663949845596,1.872421122667334,-1.094643165638125,-0.38364107267916664,0.5420904799621371,-0.13235335070878665,0.011023454831948524,-0.8000083556149733,-0.4077057855016933,-0.8223375926964839,0.3204197696380441,-0.7449691077313645,-0.2853141997547016,-0.8721755806306508,0.6055442435076192,-0.405893126527481,-0.49824046484196055,-0.34202912992008405,-0.45430516490195855,undefined,1497357908822
903d185fccf839df,-0.1289806311862315,-0.6673264283216853,2.3155763249264365,2.295520834943913,-0.8085598367552711,-1.9349699681158425,1.922987033423603,-0.7736834151392087,-0.36499781314484037,0.44338225963562083,-0.06020665402900085,0.07091038163123098,-0.9436204879679144,-0.30864152936506084,-0.7297059082348827,0.37699661264831985,-0.6793544817517309,-0.21693740531963412,-0.8269551913841506,0.6760075260061434,-0.35490806578260775,-0.4779871053574811,-0.300376603659875,-0.3930215697572882,undefined,1497357910389
903d185fccf839df,0.21336492951633723,-0.6808277878924734,2.3729970438269574,2.319284290496566,-0.4214473452960624,-1.9340662233011257,1.8995423130234808,-0.8302847909822247,-0.398248718463705,1.0699104897743714,-0.02410431659898475,0.05722813608595689,-0.9566761363636364,-0.32623241102303835,-0.740232238691786,0.5386453533208786,-0.6715997377967078,-0.23561325508370973,-0.8144518902129532,0.8208607004480999,-0.3384467842871887,-0.4954226925529551,-0.3121076102565906,-0.3379694355796937,undefined,1497357911838
903d185fccf839df,0.15099433109662835,-0.7119395827929069,2.2785714437208955,2.234061427143233,-0.4898163722344307,-1.944326522376081,1.8783934141896874,-1.0199527573383034,-0.29441271218068127,0.9162312092733476,0.06332690761728406,0.027900231161432698,-0.7738970588235294,-0.34104571416235874,-0.7654954126465462,0.6275521479716611,-0.6055391141365983,-0.21917293276568028,-0.799723601953443,0.8351658602121567,-0.32882637601351633,-0.49286632787041523,-0.31410041813289,-0.335786023065816,undefined,1497357913327
903d185fccf839df,0.17039858628246837,-0.6356275745811419,2.589283090140185,2.5707362735234667,-0.44161760300601455,-1.9326919725585343,1.8826300186656852,-0.9330171285154433,-0.2758311143592307,0.578220749498484,0.054417237262968474,-0.010824453111858829,-0.7956564728163993,-0.28642152285298206,-0.769705947774201,0.7811183371384697,-0.5793428849321103,-0.1153126557699056,-0.7263970249140106,1.2406377228228391,-0.1861911213377917,-0.45988089827399026,-0.3824136291588629,-0.33406255284198233,undefined,1497357914844
903d185fccf839df,0.06506133408020305,-0.6051027946788298,2.677966720010975,2.7806813188291173,-0.475550118978298,-1.933938115976353,1.9418953281836306,-0.5401265311753892,-0.2983055745729878,0.20137880807025205,0.1507382493207345,-0.011834406109162377,-0.7956564728163993,-0.2762373445677629,-0.8170744127435646,0.839715909885528,-0.5844292615933601,-0.08994921779809395,-0.7324352733734597,1.2344937386337465,-0.17316566955058393,-0.4630873321938915,-0.4393654704603603,-0.3544044006718402,undefined,1497357918083
903d185fccf839df,-0.06106597957365962,-0.5622506121319915,2.9395511527372276,2.972889243892023,-0.455318150925115,-1.9235101109166277,1.942295050453691,-0.483488839644353,-0.3447888838030482,0.10928620185573683,0.006383073825295803,0.020581643574074795,-0.7782489416221035,-0.19106064430427788,-0.8202323104081888,0.6982733642566546,-0.5197657031735269,-0.09640248563915985,-0.740320678839983,1.2846310795243072,-0.17017423256221934,-0.4231940890910467,-0.3421460260111538,-0.3671298365328999,undefined,1497357919358
903d185fccf839df,0.05258724890167101,-0.6144950054207796,3.122660636851028,3.168453122340269,-0.48090896523684556,-1.9309660065096648,2.0566705758269337,0.24297380045384337,-0.3487652448929383,0.32993010292201114,-0.09142952440466248,0.07450038735318872,-0.9392686051693405,-0.040149697672278536,-0.7981270267558191,0.5548102867440496,-0.45380255248134926,-0.0048914508739392095,-0.736654351408699,1.2449646841623718,-0.1373615010249051,-0.35989121635649485,-0.2623001786604593,-0.39144908592371047,undefined,1497357920840
903d185fccf839df,0.01655090314806145,-0.6039287354545947,2.7621841471325976,2.7183734265234367,-0.586471074328749,-1.9579944986940483,2.0821639173153232,0.3473696433401396,-0.25692010664295656,0.7861475899512196,-0.2057516281457677,-0.003062686987576302,-0.847879066399287,0.03576867517835671,-0.738126956403491,0.40730591934620874,-0.4426016547051716,0.01081424843831979,-0.7389632995240696,1.4045695760461008,-0.10584176365063568,-0.3117446567253883,-0.25645796146460254,-0.3690475095312592,undefined,1497357922375
903d185fccf839df,-0.026415543602036608,-0.5464012217967101,2.111412356963755,2.0863962038746986,-0.563451685552968,-1.9155627481309692,1.9299612585914088,-0.6095586908964765,-0.38662668710186165,1.1634600518338483,-0.300173218406414,-0.09021814011578776,-0.40398702094474154,0.06261783244608585,-0.7128637677242633,0.44165620501739655,-0.40042180822077844,-0.024168933404509985,-0.7540624170472665,1.41128329836838,-0.1254224677233037,-0.30923599985440786,-0.16240225911286627,-0.33851330178653516,undefined,1497357923828
903d185fccf839df,-0.030573618002093596,-0.33624966248730326,1.8900227324322063,1.7085157539586417,-0.5555111229340969,-1.8184823860418413,2.0190012380167333,0.10010035211159424,-0.45516776539945775,0.7853280182274177,-0.2958279865768143,-0.06997319831530864,-0.39528325534759357,-0.038297995927539845,-0.6886532017835986,0.6477581451622958,-0.38014393632640464,-0.0811590931531836,-0.7665727146990193,1.319893529706498,-0.17608960282440972,-0.31408588243037394,-0.05410904244407876,-0.25856086088746466,undefined,1497357925338
903d185fccf839df,0.09416778586978251,-0.24232708741992726,1.9295791486099585,1.7640425050585973,-0.5265054513800773,-1.7462014344361974,1.9858972353530953,0.033839939499786406,-0.5460786042941491,0.8663815046070314,-0.49471455051576674,-0.004816138906693272,-0.7303782308377896,-0.026262180651454747,-0.7539164594510798,0.7952625690895797,-0.34319152798829217,-0.11875144939119536,-0.8039286883243885,1.230305374571184,-0.21500952895399048,-0.31528870791467944,-0.005356145220990084,-0.2526286979449939,undefined,1497357926838
903d185fccf839df,-0.03888966328597838,-0.3180522267735326,1.9691360730616094,1.8732320350144704,-0.5242528867834483,-1.7251078441952477,1.9585604068742992,-0.08850799364011125,-0.5415650024529827,0.5431606594284678,-0.4957684301922381,0.17913765811201457,-0.3909313725490196,-0.1956897303060555,-0.7623375297063895,0.8700250469950876,-0.4421971829546536,-0.22553121378766772,-0.8164669733419893,1.0183149723965597,-0.2999885460757263,-0.3622008554263964,-0.04699974122827,-0.26740768176144275,undefined,1497357928382
903d185fccf839df,-0.03334561009311537,-0.293984465710594,2.2371006139031366,2.1247866924657886,-0.5424585664724779,-1.7843310815786937,1.9809295376577902,-0.024722213009694485,-0.4786959131309864,0.5059735005851311,-0.5389239613255966,0.088176903679246,-0.04713263146167557,-0.1651372602042708,-0.7781270180295107,0.7508092282936315,-0.4377309403163338,-0.2176403661428106,-0.8464902894194001,0.8094504569495865,-0.3311919740738096,-0.3976079180248073,-0.11923966823586654,-0.33946955289433245,undefined,1497357929920
903d185fccf839df,-0.34104094185651945,-0.3937771323031992,1.8504658079805554,1.7774004593993002,-0.674856061568379,-1.8265462126575795,1.9069978047953955,-0.6416199306159738,-0.41324386176833044,0.09569557748513613,-0.3677831699066377,0.18906607596388467,-0.3996351381461676,-0.17346976264630035,-0.8433902094368878,0.5123773930376686,-0.48510662333288235,-0.22186443970851102,-0.8569715121921843,0.5490473458324253,-0.3804212268888179,-0.4107934159887789,-0.17390252913466062,-0.44977538655645416,undefined,1497357931360
903d185fccf839df,-0.18026326124185327,-0.48006845393901254,1.8912984999183118,1.8425725128727921,-0.6607440833511103,-1.8589133212638431,1.950315967254399,-0.4273151053378332,-0.3258227018466009,-0.2702824281425494,-0.26511934986631874,0.05939834655546996,-0.8261196524064172,-0.1595822844778002,-0.7865480588358852,0.538645325056157,-0.5249824154999382,-0.1808269640810512,-0.8136612530368301,0.6181555659932643,-0.3371095027919861,-0.40812284386670084,-0.1555702581078473,-0.3958573735548829,undefined,1497357932886
903d185fccf839df,-0.22738771338118882,-0.4965048738864114,1.783474545701699,1.7658550306952783,-0.6698160724561639,-1.8770860452130105,1.8652075539586823,-0.9984688154563486,-0.28962773131203756,-0.30562676668621686,-0.3052289729945774,0.025122767411794977,-0.8957497771836007,-0.1373623038672705,-0.7402322092428508,0.7306031180441107,-0.5161833682135916,-0.16954165816003214,-0.7880599223021021,0.7722786048362065,-0.29911807869768064,-0.4201092913062581,-0.21863309712591716,-0.36183484617072315,undefined,1497357934361
903d185fccf839df,-0.19550926950058758,-0.6268223203813288,2.04505948670185,1.9046601463238777,-0.580639079464728,-1.8826249755144957,1.8609446325926553,-0.9932318444002805,-0.3259381747210632,-0.25408052632446154,-0.40965095225839937,0.06836458413383084,-0.7521376448306596,-0.11884559723847272,-0.6928637442734872,0.7548502920610951,-0.519071865109495,-0.18423408641193173,-0.754419255093205,0.8465761031317903,-0.28895719444491164,-0.3980605743264241,-0.22292536213292338,-0.28957402526319515,undefined,1497357935872
903d185fccf839df,0.016550868642651716,-0.6755446529093809,1.8319633673777846,1.6760549053389175,-0.6479281109667739,-1.88944498762183,1.819945952074739,-1.2977998845305956,-0.3184137659367071,0.055389358116956035,-0.37293968532498767,-0.01789480481311705,-0.8043602384135473,-0.09847726656958354,-0.6802321315282889,0.4376149151321607,-0.5896286975794853,-0.14533714792887667,-0.7383125957393979,1.0715781903353712,-0.2260772884483235,-0.46456371179519573,-0.26006265452015614,-0.3249424567907642,undefined,1497357937341
903d185fccf839df,-0.02502956480923059,-0.7459865111399321,1.948719472955782,1.8106949034320523,-0.6207018723043118,-1.9014941414429996,1.8175686086960812,-1.3425751269065653,-0.31904491970968646,0.26558933018597863,-0.28058783918938207,-0.04816784111981337,-0.7390819964349377,-0.11329051790580574,-0.7202321857920748,0.3163784232233652,-0.5483124486215921,-0.1839617703376404,-0.7627524559052999,1.132309658825505,-0.24027435883830034,-0.457649628963243,-0.27519981127590176,-0.32556413332983664,undefined,1497357938882
903d185fccf839df,0.17455652266088642,-0.7500956161267818,2.1535215787984656,2.2205336388471997,-0.5066026323058637,-1.9088079533676392,1.96580814679139,-0.39885044463031427,-0.3009480626964439,0.8085202878782783,-0.024110738595315,-0.0713269572918476,-0.7477857620320856,-0.1123647188365346,-0.6781268786889291,0.5285422981961182,-0.4709116622751435,-0.18981974260251142,-0.755839605859935,1.1417643016639878,-0.2404264112044062,-0.46121805905622004,-0.2062461047202465,-0.34439697757566523,undefined,1497357940327
903d185fccf839df,0.12743210502696056,-0.6767186536776314,1.7445562674039488,1.7303912802902122,-0.27316874031241734,-1.8972339641602656,1.942723713132114,-0.4457281203032467,-0.22443610627507668,0.4964402104220524,0.08753655762269502,-0.08952322075162358,-0.843527183600713,-0.0919963881676454,-0.7623375370686233,0.6841290757761015,-0.358082572081368,-0.2285076968509621,-0.7783763334245616,1.1870973231058204,-0.24158270516660144,-0.46901862496567676,-0.117180514697844,-0.4797000080472759,undefined,1497357941824
903d185fccf839df,0.31731613391497704,-0.6250613338429493,1.9512717703388411,1.9722131798457776,-0.2012614284974889,-1.9071076092722679,2.063226681099412,0.35768228978417427,-0.23686002101437634,0.21413687434714845,0.0390832728310199,0.026740173756654266,-0.9827874331550802,-0.16050810944862046,-0.7560217049282059,0.5851192825300016,-0.47313533076114556,-0.24977372083377766,-0.7730167767028698,1.023488845233543,-0.28002890716813,-0.46742981870625516,-0.2287393736735925,-0.5229416282507736,undefined,1497357943334
903d185fccf839df,0.07753559178578376,-0.5663597755748259,1.4721250155393562,1.2930574509534212,-0.48211238593082034,-1.8865753662830818,1.95221731777742,-0.4081548685063406,-0.36197114967995386,-0.34118604200778097,-0.18620417372454548,0.05301382219976347,-0.5432472704991087,-0.19476391828600978,-0.8307586555895597,0.797283129238033,-0.45066264575549847,-0.3488526220698787,-0.8213437498562736,0.9388435864689145,-0.35754865556125254,-0.4186598623265595,-0.024336118979424257,-0.4784308677278515,undefined,1497357944879
903d185fccf839df,-0.03195959679489962,-0.5299648018493113,1.3272964342541516,1.2747455833221708,-0.6453258209437825,-1.899183537955067,1.9813292683080252,-0.3162552876952228,-0.3713994123979215,-0.21644953304879216,-0.20462025045421048,0.017444761324891627,-0.5084322081105169,-0.20957724732687927,-0.8276007579249355,0.7629328718315668,-0.454231649878224,-0.37162588748948683,-0.8204971357096102,0.8872895898762146,-0.37794890384605123,-0.40453522039921114,-0.045398107011441244,-0.4639544288281003,undefined,1497357946754
903d185fccf839df,-0.26065210154918633,-0.5992326154696236,1.5710170725315344,1.3583350034442416,-0.8552671793649664,-1.9209060235069626,1.966231554576733,-0.48738047640849663,-0.41781677130338346,-0.149666399213138,-0.22836042984994176,0.07297237151955817,-0.4823209113190731,-0.18920896846108828,-0.8276007284760003,0.7831389255516445,-0.4794379249085479,-0.3522470800470608,-0.8199024072071699,0.8602191216911957,-0.37311839169696354,-0.42178862975828446,-0.06286285516503869,-0.44861142456687353,undefined,1497357947821
903d185fccf839df,-0.2010534262096798,-0.5880793451193134,1.626523631928998,1.5920935932856193,-0.7902512934201184,-1.9209572671113373,1.9249120396075345,-0.754800358202021,-0.4362786324068664,0.458943481448295,-0.2727426590354612,0.03875507126518669,-0.9131573083778967,-0.1345847382993879,-0.9012850416743237,0.9003341841046473,-0.4767574861352464,-0.28083047425801483,-0.8419283697310046,1.0557947753255215,-0.319904147289884,-0.4229041711721872,0.05240651149750381,-0.4126041980220829,undefined,1497357949320
903d185fccf839df,-0.22322967348654157,-0.6767186829056236,2.08397801913655,2.0201821660855774,-0.9008945427285566,-1.9560472563818514,1.9315312638294666,-0.7685317724422627,-0.30594915624193203,0.4794985626993907,-0.14872203989461158,-0.07570392049615352,-0.8174158868092692,-0.14106559079977696,-0.8697060576658474,0.7568709652684346,-0.4813201860948092,-0.26258526348469197,-0.8408298708760288,0.8729536354560087,-0.35561196203142204,-0.4391537204774428,-0.04067740495648072,-0.37013361196348404,undefined,1497357950820
