UUID,iqrAccX,iqrAccY,iqrAccZ,iqrAccXYZ,meanAccX,meanAccY,meanAccZ,meanAccXYZ, covarianceAccXY, covarianceAccXZ, covarianceAccYZ,pressureDerivative, pressureIQR, iqrGyroX, iqrGyroY, iqrGyroZ, iqrGyroMagnitude, meanGyroX, meanGyroY, meanGyroZ, meanGyroMagnitude, covarianceGyroXY, covarianceGyroXZ, covarianceGyroYZ, class, timestamp 
903d185fccf839df,-0.5385479748739032,-0.42342136048033696,-0.3519495465077806,-0.416787983191528,-0.9855895295874251,-1.2254802207596813,1.7571212493978274,-0.6544305836712602,-0.1499368081999296,-0.6009766265638561,-0.022165694916194346,-0.47553201143353274,-0.499728442513369,-0.18735722786402595,-0.36654756636958813,0.5103567198303292,-0.13187913768357343,-0.4738922993175425,-0.7086781718608554,0.8350650171090047,-0.3956610794708498,-0.4427501240957489,-0.18260012658287397,-0.17265250317277642,undefined,1498057718453
903d185fccf839df,-0.40271853362712046,-0.2605246400456673,0.289889838162728,0.1360126860385861,-0.9558997324293861,-1.4660553802387337,1.937749108987789,0.03178544861041566,-0.1319586277288088,-0.6252397857021635,-0.1384222198185726,-0.913078920580333,1.6936204879679146,-0.2854956201775145,-0.5454951252390744,0.6194695682011895,-0.3102049056717671,-0.37731629059967253,-0.672997180842128,0.5040031430910515,-0.4147779087603646,-0.38375173076415975,-0.2449297862531491,-0.21649244736190387,undefined,1498057719871
903d185fccf839df,-0.08185611003607643,-0.3661874566194864,0.9827703418923817,0.7202542385143292,-0.6449613182104273,-1.5209388336138006,1.9239610377378824,-0.0479012771034467,-0.31400398878261754,-0.338664826489391,-0.2527261431360552,-0.5853750687214649,2.803350601604278,-0.07996055994078576,-0.7644427751835156,0.1911007544882199,-0.4621100318207208,-0.3037240662589745,-0.7327135942118639,0.3924143533618915,-0.41249861118648257,-0.426797954055748,-0.3866469956785053,-0.2720328535437168,undefined,1498057721381
903d185fccf839df,-0.06106584155202068,-0.3292053948258696,1.4785053777915802,1.2486561557121074,-0.3048898160334221,-1.5742453490115507,1.8575916452230077,-0.4641540954676051,-0.44785256179708527,-0.2998264067474541,-0.10978703634506273,-0.3342414667921556,0.7187987410873441,-0.15032390526185221,-0.7928638615273674,-0.0917843650342482,-0.5330747507670719,-0.3191462011245909,-0.8034888298094508,0.2611092821515933,-0.46709742557373435,-0.43161696029069285,-0.4075245393800154,-0.3305178912743878,undefined,1498057722897
903d185fccf839df,0.033183062726650475,-0.3697095466082147,1.9563756026941113,1.8521508707221073,0.17340537811140425,-1.594025246291385,1.8230885850216663,-0.5673963586627779,-0.2648121743600129,0.17473285471373728,-0.052476827222543994,-0.06274765021271908,-0.24296735739750447,-0.12625222290658383,-0.798126997306884,-0.116031510786511,-0.5456882436326123,-0.3561094931611774,-0.8077938454421351,0.22923007378389101,-0.4877053024499544,-0.4371705909780516,-0.41301648695187004,-0.36720903893215806,undefined,1498057724401
903d185fccf839df,0.05258724890167101,-0.4119745680169699,1.8581221918558342,1.6433451571714952,0.14903855463539883,-1.613555918424705,1.7721255713235822,-0.9709191157003269,-0.24499501638711438,0.11604293337441618,0.0688438362976194,-0.0011334315408140316,-0.30824559937611407,-0.18828311758871893,-0.8739165780690347,-0.20493836196673665,-0.6202400511633173,-0.3765655865088955,-0.8474698418900004,0.08527696520805214,-0.5379196465518042,-0.41221544935510257,-0.4337112453555801,-0.42668342954731686,undefined,1498057725919
903d185fccf839df,0.09416764784814358,-0.42195393989700286,1.7152072617997876,1.558495197804914,0.08888780032294741,-1.6416908008748086,1.7402049880749986,-1.250885874842326,-0.21884119690635825,-0.044355239557223584,0.06577466672589487,-0.14749141270323715,0.24444351604278078,-0.23827817109321983,-0.9128640095942576,-0.23726808748947117,-0.6840598841761693,-0.4218588000771694,-0.8883871905143528,0.056127708260940275,-0.571913565339115,-0.4387872680964687,-0.5128037340931652,-0.48435005663131403,undefined,1498057727396
903d185fccf839df,-0.10126043423273591,-0.46480603475986415,1.633542132061224,1.6314194136457407,-0.3266029331544089,-1.6276035632594463,1.8247795533626388,-0.8785525326295651,-0.3030310600710779,0.1838618359140079,0.1274719569350983,-0.23426045208633248,-0.13417028743315507,-0.26975647911659933,-0.957074576898997,-0.2291856773073287,-0.7839751641742019,-0.4468042646023097,-0.9182355862831444,0.0019559779482559605,-0.6013193159292896,-0.46462164259135524,-0.5479397427411624,-0.5225911329310016,undefined,1498057728896
903d185fccf839df,-0.32163668667067946,-0.4700891697429566,1.3936495586530058,1.5575976512358063,-0.4231444899706245,-1.6583355460679634,1.8305256781207924,-0.9383081501009926,-0.3936399428314867,-0.00633619494150566,0.07514234913215105,-0.08301876926165011,-0.7260263480392157,-0.4280740902690334,-0.9939167408603924,-0.21302077214887913,-0.8623483124854046,-0.5029394776743021,-0.9407583204707,0.006960472799072862,-0.6359907174074317,-0.47308826550951527,-0.5742666583160267,-0.5061564545653843,undefined,1498057730444
903d185fccf839df,-0.38539336739942354,-0.5135283965159086,1.3853555451716237,1.4559404830870986,-0.26062018961940603,-1.6711673235596125,1.8323981002819518,-0.8556426937574635,-0.38737200293064833,-0.28146856572155654,0.015629905796181384,-0.03267683247397159,-0.9305648395721926,-0.4604782750663313,-1.0065483462433569,-0.14836132110341013,-0.8716287188792877,-0.4923887913816874,-0.9598036402275508,0.06451985806745836,-0.6246911091866679,-0.497332911159877,-0.5750336155405942,-0.5314325136450161,undefined,1498057731885
903d185fccf839df,-0.32995283547079346,-0.5023750530956176,1.4325683452246547,1.263882623826186,-0.24570592654901058,-1.6902600971851214,1.8611786955761376,-0.6903383803843515,-0.3197163507509499,-0.35808762221270835,-0.01461970784959472,0.0035803704059929773,-1.0437137923351159,-0.44103579526981146,-1.016022024512762,-0.1705880480308273,-0.8881040605567497,-0.48243340409800045,-0.9751616401263253,0.09186749621077675,-0.6181762417745779,-0.5051669842708164,-0.5774527025747872,-0.5243805368755468,undefined,1498057733387
903d185fccf839df,-0.1456127907648205,-0.4601098855469007,1.0484853284112339,0.9893167052803912,-0.30249325894214635,-1.7313665111700756,1.8410554221882096,-0.8942419864743991,-0.32047134694871926,-0.6271347010293432,-0.01716168318165006,-0.024083532612390424,-0.9436204879679144,-0.44659078394705665,-1.0307588900973204,-0.10592856872063676,-0.8916543912793009,-0.4745108926261597,-0.9691024028858527,0.11707475063899636,-0.6083995950267904,-0.5071392834080782,-0.5697604718798266,-0.49872206748682907,undefined,1498057734893
903d185fccf839df,-0.09017225883619041,-0.40551749072161164,1.0287068661854084,1.067054278312518,-0.3170680989815673,-1.7955929533805142,1.8750877418081882,-0.777283680267818,-0.4417948465961907,-0.7080815962878767,0.023115418710019434,0.05455700715184395,-0.8391753008021391,-0.4567749233799521,-1.0044430565928282,-0.061475199659967,-0.8362652979025065,-0.5060109554685706,-0.9532686197740594,0.14029560268332344,-0.6119973346829304,-0.48890435241382074,-0.5673312404549995,-0.48933882437246234,undefined,1498057736383
903d185fccf839df,0.006848810060551184,-0.4741982747298063,0.7811586713127596,0.805852872293492,-0.2949229916393229,-1.8121957716017987,1.912231118401899,-0.5469846620366825,-0.40308228628810355,-0.6112172943109225,-0.000490648766033807,0.030098650512280587,-0.6563962232620321,-0.4595524630462856,-0.9876009381689101,-0.07764002002425195,-0.8485039320299766,-0.5369283878082513,-0.9434520943465295,0.17808338982785707,-0.6124620858376378,-0.4847433081881814,-0.5722576236753997,-0.5163027797234332,undefined,1498057737888
903d185fccf839df,-0.20382548731152106,-0.4336942398594306,0.6650407036147646,0.7859185710546747,-0.3303983615112058,-1.798797986044146,1.823943277956243,-1.1208818823619744,-0.406994813748251,-0.4611521859511486,-0.03274127479056851,0.04811503043630413,-0.7826008244206774,-0.4577007613015469,-0.9960219863375185,0.03349338849506167,-0.8514747426404218,-0.5653063092017778,-0.9495603107312337,0.18282611067529325,-0.6256633505338187,-0.4577353136850437,-0.5496814979110546,-0.5116921534695918,undefined,1498057739424
903d185fccf839df,-0.09017218982537095,-0.48006845393901254,0.6937510630650249,0.7993493132738839,-0.4260862010220689,-1.7823116312089755,1.8118146086690812,-1.2051861750089776,-0.3521611005809713,-0.3367813859615681,-0.022408416600086578,0.02059742607040972,-0.9305648395721926,-0.5512099834332234,-0.9897062204572051,-0.10188730710012245,-0.8985168547611134,-0.6049568694551956,-0.9352658255351783,0.20723264685574297,-0.6349317298572664,-0.4408760098447339,-0.6258744455253967,-0.47158931670674775,undefined,1498057740899
903d185fccf839df,-0.25233602175989184,-0.5129413230618026,0.7294796685105619,0.8443439856318539,-0.42227020541427424,-1.7869095499405716,1.8476404542512663,-0.9924743536302092,-0.30937662576703473,-0.34602731729334063,0.024579086423212645,-0.0015157547016191911,-0.9523242535650625,-0.5836141747059085,-0.9581272217242613,-0.08774307514901235,-0.8799951215258465,-0.628566083135703,-0.9305919556248756,0.20242833202458688,-0.6448910698865009,-0.4483097618193042,-0.6223955393014536,-0.47574969214646134,undefined,1498057742386
903d185fccf839df,-0.06799597705391891,-0.5229206072578585,0.5604069305242636,0.5134197932732091,-0.34598119033791597,-1.7791392084425557,1.8206849425608507,-1.1333966300233826,-0.358670094614366,-0.5994472108308905,0.0819683105182946,0.013303657271153216,-0.8565828319964349,-0.6141666836600169,-0.9844430552287534,-0.11401106369694383,-0.885172238063194,-0.6361212841400149,-0.9423955751884551,0.27512439239762626,-0.6373768200429768,-0.4523158512878457,-0.67168253553409,-0.49710050726134564,undefined,1498057743884
903d185fccf839df,-0.12759461788801574,-0.5469882221808354,0.6229319900539533,0.5246627265441612,-0.2654647555932196,-1.7852022166919062,1.7702163429129107,-1.4490252579747633,-0.32710248437281303,-0.8360571672891924,0.04890439006483017,0.0007590167700158224,-0.8696384803921569,-0.6317575264656707,-0.9833904251279566,0.05572005889303579,-0.8971695130153707,-0.6562157143564029,-0.9366791804636445,0.2884748475208778,-0.6417836329673808,-0.46819127477814876,-0.6579922168011997,-0.4854338417766211,undefined,1498057745382
903d185fccf839df,0.060903397701784996,-0.4366293440780299,0.5380764250523283,0.5407517973651973,-0.2734361724084523,-1.8020496039161678,1.8587014191421005,-0.8877563696607677,-0.2942094441519453,-1.0512301890966185,0.0053901491863186796,-0.0029605261811260124,-0.8174158868092692,-0.6465708555065403,-1.0044430639550619,0.011266633302922956,-0.8993503515946608,-0.6207005660142689,-0.9159406319302194,0.20801797062944766,-0.6382617985323972,-0.4730153245061833,-0.6891436611576579,-0.47762047177712813,undefined,1498057746886
903d185fccf839df,-0.20936947149356458,-0.5998196596957373,0.4883113276162382,0.4978129374570843,-0.20640428036959632,-1.8633342166823164,1.8680004115222055,-0.9296823758311236,-0.26528693238794215,-0.7211353608156861,0.028109281608548836,-0.10883818405885969,-0.8391753008021391,-0.6104633319736377,-0.966548255168402,0.05774070383565371,-0.8586687813799445,-0.6103082043932389,-0.932670006981037,0.14143509234469467,-0.6531572463752783,-0.4678306612519132,-0.6423854521651657,-0.47120245314238357,undefined,1498057748376
903d185fccf839df,-0.2980743915901922,-0.5440531764182208,0.2567132759633009,0.36322276323907,-0.1682854808113822,-1.8966633013931604,1.8480796330009774,-1.0928610929290088,-0.31463404964888136,-0.8213956519710445,0.0770939815603438,-0.06846737839635078,-0.6302849264705882,-0.6493483822220992,-1.0297062305475884,0.013287334774983952,-0.9246786086613815,-0.63988938408887,-0.9629522040576869,0.04621110441247713,-0.693938310871998,-0.45224784865731493,-0.646988109857525,-0.4772420118608168,undefined,1498057749877
903d185fccf839df,-0.3812352584939568,-0.5229205780298661,0.12400651889169345,0.09717929308190242,-0.1308866868036212,-1.8551399539293383,1.8820435808734668,-0.8019045604646294,-0.33286861307133797,-0.8175359210869801,0.0505604938693618,-0.013997084063039516,-0.5824142156862745,-0.6410158797800697,-1.0023378037534683,-0.10996974554698645,-0.9724463318799745,-0.6301873132511623,-0.9701099421656484,-0.046780106197180135,-0.7091972574764414,-0.44193042443090486,-0.6118177087313527,-0.5002529163023051,undefined,1498057751382
903d185fccf839df,-0.3313387797581897,-0.4589358555506579,0.2401247407266379,0.23740568884399202,-0.21465340434913402,-1.8110497855704668,1.8304467824456003,-1.1084921989822114,-0.3176919156556786,-0.7306680185231821,0.05387443263156003,-0.0037233166909941017,-0.7826008244206774,-0.6410158797800697,-1.0160220171505283,-0.23726808748947117,-0.9472957508391152,-0.6354689881895206,-0.9773796288439107,-0.08495285389899146,-0.7247731895699667,-0.4290076791908244,-0.6207100197678314,-0.469844785554286,undefined,1498057752928
903d185fccf839df,-0.30639054039030617,-0.4712631997391994,0.518936100706505,0.5458999244179467,-0.1797437486845936,-1.793233434947551,1.8256710446903144,-1.1051859061359628,-0.29787910047569793,-0.6204919313158918,0.01405642966899438,0.13818851152611614,-0.678155637254902,-0.6317575264656707,-0.9939167555848599,-0.2594947861521668,-0.9379372262161351,-0.6387557856037404,-0.9857967930442496,-0.12545076659394594,-0.7350816362534877,-0.43873434952552043,-0.6264032910606536,-0.4409204271050057,undefined,1498057754381
903d185fccf839df,-0.19135122960594034,-0.6139079904226582,0.6918371576989173,0.7607721537173446,-0.19946143064953128,-1.8509985673973128,1.8206244523673387,-1.20716187070504,-0.22293875727964518,-0.294247299188169,0.04334250348737177,0.21075914462733314,-0.4213945521390374,-0.6206475361604059,-0.9654956618787742,-0.2877831935249439,-0.9126906160222418,-0.6664117523039109,-0.957431721114026,-0.1751723444494779,-0.7412829360916866,-0.4657562728724445,-0.6665205811809135,-0.4683438061835695,undefined,1498057755883
903d185fccf839df,-0.32995283547079346,-0.5334868772240434,0.8424077092193943,0.8111867341246702,-0.19769228409317857,-1.8329236695518125,1.8218183789497466,-1.1839993230522026,-0.2814007866658709,-0.3686609043003291,0.048550148894099324,0.17107407264169183,0.14435021167557935,-0.6169442103755758,-0.9591798665495257,-0.3342572075282316,-0.8797358874385987,-0.6666144063354874,-0.9563821996415679,-0.15470780913205678,-0.7403545584755631,-0.4699154206226051,-0.6624855352297665,-0.4440769521859142,undefined,1498057757397
903d185fccf839df,-0.09571631202905342,-0.5129413522897949,0.772864911968327,0.7858428972079519,-0.29052070337627184,-1.8548231760176033,1.8254001744097976,-1.1808485302749037,-0.37891395702397973,-0.4508090896353933,-0.001382297459572964,0.18659205464613846,-0.3778757241532977,-0.6428675685740338,-0.9623377494896824,-0.26959778474748414,-0.8790243942453596,-0.6710411341763777,-0.9542481722752449,-0.09282145668149651,-0.733207355126097,-0.4769028172235844,-0.662091322986891,-0.43490430237984296,undefined,1498057758882
903d185fccf839df,-0.2578800059419354,-0.3884939680921144,0.6918369035619679,0.6412485840654568,-0.13270725660980257,-1.699875195813878,1.8581544137365316,-0.7172541879403195,-0.3263252507198674,-0.7678276238171906,0.060077173624710725,-0.04919383939961975,-0.6868594028520499,-0.6789750532546127,-0.9591798812739933,-0.3362778524708495,-0.8986380528553897,-0.6749168957124784,-0.9693472897678564,-0.12508119907026605,-0.7449067179835698,-0.483942426195435,-0.6612229073180621,-0.44994204394731013,undefined,1498057760362
903d185fccf839df,-0.27589824782955963,-0.44484752482373696,0.6312260035353353,0.6765681372152147,0.022411330094650402,-1.567707174158712,1.775610066150522,-0.998890762129305,-0.16838952606012186,-0.531467202836293,0.10316095476102213,-0.03684225559776285,-0.36917195855614976,-0.7261925865189419,-0.9644430244157436,-0.2473710860847885,-0.9348876181521094,-0.6909709069436037,-0.9761831734560686,-0.13013189085943655,-0.7575507770706489,-0.47936041170900745,-0.6432946925147631,-0.4645594943487136,undefined,1498057761917
903d185fccf839df,-0.34242688614391575,-0.44660851136211643,0.5757191900009223,0.6049743786894165,0.17853791918593556,-1.5157138951172269,1.7513632509801402,-1.0326749532129,-0.17708339171709672,-0.49056315633068337,0.12363716358752343,-0.06613037021171692,-0.6476924576648841,-0.7215634163371298,-1.036022055325772,-0.3322366473797783,-0.9536244837732031,-0.6710601310474301,-1.0048351147484602,-0.11439468079801503,-0.7597627228428926,-0.45858342242920686,-0.638202905141837,-0.47209568313133093,undefined,1498057763372
903d185fccf839df,-0.007011253910786871,-0.4207798514447754,0.49469168986846207,0.6586461108544107,0.18330019774096165,-1.5315806727798158,1.7573381644495434,-1.024554682526428,-0.1205974161242241,-0.3369176701721699,0.16052478216245222,-0.01262837296345417,-0.9610280191622104,-0.7465609236632185,-1.0433904807558172,-0.28172140002069784,-0.9901221571332842,-0.699083406183173,-0.9982371219510614,-0.16038983719798758,-0.7828630265494881,-0.4420420769097607,-0.6025324651511361,-0.4567966549879359,undefined,1498057764890
903d185fccf839df,0.23415526701121245,-0.5364219814426427,0.4500306789245915,0.4599725958590759,0.16480652143961166,-1.6052195716984425,1.775394418076416,-1.0268342986600765,-0.20191515236860866,-0.6113733064389241,0.12184894833351882,0.04465981601973308,-0.9653799019607844,-0.731747594622349,-1.040232583091193,-0.231206237455782,-0.9687072055821169,-0.6717630874855675,-0.9996504780050668,-0.15004208535828356,-0.769756101225516,-0.44435805740658324,-0.5716219368099313,-0.45981467038484447,undefined,1498057766426
903d185fccf839df,0.4365134155831707,-0.5358349664445213,0.44046038968320506,0.4770211749587318,0.08764323097529114,-1.649356327481909,1.7591580052067355,-1.2132465464887279,-0.286553294950974,-0.47926639045178854,0.1450215153644539,0.066848125272952,-0.843527183600713,-0.7363767712795484,-1.0318114981114157,-0.16048496464134537,-0.9582514619618907,-0.6691539148344352,-0.9876439510239364,-0.0873088193370768,-0.7553082014535046,-0.447539155912814,-0.5602275527759705,-0.4534171605387418,undefined,1498057767899
903d185fccf839df,0.3491945777955783,-0.5587285513712554,0.46406717091514466,0.5138237930006403,0.10866719465764374,-1.6761472374703863,1.7387612390674798,-1.373949501810782,-0.3265116994965345,-0.358146256024333,0.10989975209495229,0.0160229061874434,-0.7434338792335116,-0.7363767712795484,-1.0012851662904376,-0.012980597243504468,-0.9279030450269001,-0.6780200362208607,-0.9664226234331116,-0.011902627799833546,-0.7397075381564555,-0.44390341034498443,-0.5519549398064083,-0.42503267381304444,undefined,1498057769377
903d185fccf839df,0.26326154627374326,-0.6520640529845254,0.6816287305775287,0.7997300974033534,-0.06664223494042999,-1.6844975605860293,1.7692301734229352,-1.2723610813865776,-0.21462002461164453,-0.37385898646315807,0.12851656307167098,0.07747144763065042,-0.8000083556149733,-0.6761975524406029,-0.9918114880210326,-0.049351527857310215,-0.8888517837271759,-0.6460830023575694,-0.9517922919205648,0.07853244237351881,-0.705230278428836,-0.45225802506959034,-0.5168146868480655,-0.4195463504696929,undefined,1498057770878
903d185fccf839df,0.1440642646055496,-0.6379756345736275,0.8564442012099476,1.047147681440894,0.13782713187208445,-1.716156579748846,1.7579193756317713,-1.285866699941225,-0.3350199119543923,-0.20292702223202944,0.05925256879120196,0.01406769240407087,-0.9523242535650625,-0.671568388734178,-0.9718114351213213,-0.04531029450151744,-0.8568666078880819,-0.5837858361449779,-0.9347970391146851,0.18398099740895515,-0.6495690954184012,-0.4710373063952102,-0.5381776842584333,-0.4040481930678087,undefined,1498057772374
903d185fccf839df,0.22029506501823545,-0.5769260163130184,0.6784390577253157,0.8215959816616617,0.30607028637841094,-1.7405507027094476,1.843251316984289,-0.7023965401423296,-0.2949146694938274,-0.37557060596609826,0.007998162141996851,-0.04683711970736382,-0.8261196524064172,-0.6447192055648997,-0.9454956384279982,-0.1362376210360318,-0.8780898907894333,-0.5576497772894013,-0.9321522441812239,0.15473935100077352,-0.6417213150613142,-0.46425862520379513,-0.5231863050126883,-0.4374585497427231,undefined,1498057773881
903d185fccf839df,0.038727184930332954,-0.5041360980899817,0.33199880586048885,0.4255040572498556,0.4416872048934166,-1.7174609536021206,1.8924760232602509,-0.3144627105141114,-0.21233755533919013,-0.4242147765736189,0.06523865436153144,-0.016279853214964432,-0.7434338792335116,-0.6410158668292951,-0.9444429862404999,-0.09784610200905121,-0.8684404198623853,-0.5482516898189216,-0.9420527313453909,0.17735967005383044,-0.6376728627237525,-0.4693716785513727,-0.49875641266592996,-0.44913157635375267,undefined,1498057775370
903d185fccf839df,0.16346838176975068,-0.579274076305504,0.6216559684308983,0.568114634618613,0.5169065098223847,-1.679738924040796,1.7608621220412652,-1.0752178015894511,-0.17858260086859346,-0.3991015743288962,0.18720693355929754,-0.14857304998836063,-0.7390819964349377,-0.6002792443438404,-0.9465482464420936,-0.10390795204274036,-0.8757670932451829,-0.5222739550591163,-0.937476817233907,0.14101933521961987,-0.6270577530596668,-0.45511765963626555,-0.47441495876428014,-0.4808712934820526,undefined,1498057776880
903d185fccf839df,0.12743203601614111,-0.5651856578946061,0.7097012062847363,0.8740506980244057,0.5420961838441085,-1.584892303357799,1.777587682545271,-0.8185515790342142,-0.16312766868932224,-0.15931705500685753,0.2974703613668071,-0.0912227002947641,-0.5214878565062389,-0.6104633319736377,-0.9023376644128867,-0.027124857459336103,-0.8764032184068066,-0.5486696637638928,-0.92438578448737,0.11370249368448526,-0.635515162526201,-0.4614061088840064,-0.5184350562586134,-0.48070032603010077,undefined,1498057778373
903d185fccf839df,0.02209488733010499,-0.46304498976549996,0.8896205092724253,1.0278082476827823,0.3674141933984113,-1.5041748472511625,1.707387637131464,-1.2147992873434144,-0.1640584430647889,-0.008682374541752384,0.33147666566437806,-0.035056978284585226,-0.7260263480392157,-0.5669491698218494,-0.9128640022320238,-0.11603159558067562,-0.9047060161117229,-0.5884912125719769,-0.9267297153664241,0.06881602554511775,-0.6656084571675102,-0.4526139828023517,-0.5074294904185009,-0.5146142196984533,undefined,1498057779918
903d185fccf839df,-0.1941233252131913,-0.5117672346095751,0.7747785631974852,0.7473582225611494,0.34565994166339953,-1.4486923699207837,1.7068721872724149,-1.143427372253406,-0.16432131203536143,-0.3848783872716718,0.26353759217577244,-0.02724000638093373,-0.9305648395721926,-0.6058341812179873,-0.9244429627897239,-0.10188736362956552,-0.8306326419594832,-0.660775432198492,-0.9572498039027739,0.006359929266814037,-0.7156731232700076,-0.449404339704964,-0.5261075377487795,-0.4776401959817429,undefined,1498057781379
903d185fccf839df,-0.022257538212799084,-0.5070712315365734,0.5514747791628793,0.6913793834828195,0.3638553311522177,-1.4241468465582552,1.7244603405966064,-0.9684677748984925,-0.08466131202434976,-0.35518545551099695,0.1880274367739964,0.031715711934736684,-0.8304715352049912,-0.6021308424823827,-0.913916654419522,-0.11199033396016131,-0.7885581675379235,-0.6883807344523035,-0.9534925164864666,-0.03912708183939537,-0.7342454674960824,-0.43205546033362247,-0.556336225487674,-0.4646298486460747,undefined,1498057782882
903d185fccf839df,0.00407671445330021,-0.5264426095626098,0.3843154382687899,0.4732504751245066,0.36513075783305243,-1.4350523425530515,1.747124007796743,-0.8764289821482558,-0.09281815752304955,-0.3386161254734668,0.17474452077927735,0.003619732808371138,-0.8304715352049912,-0.681752541117848,-0.9676009073559003,-0.30192751027021864,-0.808487214975122,-0.7556745935198006,-0.9842435003200481,-0.12996251185013488,-0.7927103990526332,-0.4362582145318785,-0.6184770170649443,-0.4441033205652057,undefined,1498057784378
903d185fccf839df,0.3339482244827466,-0.5370089379847794,0.48894946549624035,0.6609245263377628,0.0892786495645221,-1.4962554305942912,1.7192428052871236,-1.2376441400256657,-0.10738979003175238,-0.282677582993451,0.10390154951532272,-0.0636262818693406,-0.9044535427807487,-0.7067500678700984,-0.9928641033973618,-0.23726805922474964,-0.8609008015843779,-0.7542243499547344,-0.98538398023603,-0.20567666963076683,-0.8077662518279949,-0.4398347881402179,-0.5785415606386807,-0.45940394236715454,undefined,1498057785886
903d185fccf839df,0.060903397701784996,-0.43545528485379476,0.5833753197392516,0.6146935873772513,-0.3729708569742343,-1.568941670961392,1.7747238208119909,-1.1275972205624878,-0.11092367331834918,-0.5990261653786122,0.02787785951214834,-0.030144384901250047,-0.8957497771836007,-0.7058242428992783,-1.000232536189641,-0.21706201963703267,-0.8111720061756377,-0.7564345475971243,-0.9932483959733853,-0.2758165920580286,-0.8229948846436825,-0.4247032122881253,-0.5544054780101539,-0.45576528772617436,undefined,1498057787381
903d185fccf839df,-0.4283597451387021,-0.545814221412585,0.6816287305775287,0.67579674018862,-0.9059653918186388,-1.7045662837046527,1.8483583921681244,-1.0183773361975874,-0.35082778788815044,-0.8021427332150737,-0.018476700800074963,-0.06194174572619673,-0.7260263480392157,-0.664161717738356,-0.9981272686258135,-0.24332988099371725,-0.8492556261804991,-0.7168029847905721,-0.9906245929834682,-0.29948400051461443,-0.8089897656665078,-0.44462883079965987,-0.5480107400949867,-0.45820433302908037,undefined,1498057788881
903d185fccf839df,-0.5018186224711857,-0.4894607523649394,0.6605745008655978,0.610324047421864,-1.0528348595848673,-1.7682337083741457,1.8773230768473308,-0.9591184573602487,-0.36639581637761315,-0.626231816554131,0.009260597735560214,0.03637740079374088,-0.6041736296791445,-0.6465708684573148,-0.9886535756319408,-0.22716501823235,-0.864192584846161,-0.7117302948564148,-0.9819625411976637,-0.3353777735381803,-0.8082287871319424,-0.4583746316328214,-0.5302579355011311,-0.47697194800629367,undefined,1498057790371
903d185fccf839df,-0.5461710825194995,-0.5270296830167158,0.7345837550027814,0.7475929356110874,-1.0263389098492923,-1.889412378289542,1.8208269592805397,-1.4823086389470226,-0.40093043048442073,-0.39323474175302997,0.023214935238603237,-0.022515901494970094,-0.5519510360962567,-0.6724942137049982,-0.9760219996979114,-0.16250558131924175,-0.8449010891551775,-0.6741316076180954,-0.9688365242254656,-0.24230956954353286,-0.7733640683273648,-0.4628479161314535,-0.5095559141611082,-0.46657080059185896,undefined,1498057791886
903d185fccf839df,-0.4242017742548743,-0.4929828131256754,0.7294799226475113,0.7278655718820829,-0.9724624284697178,-1.9111744607862768,1.8734467465419165,-1.135541087250388,-0.44699392552765177,-0.4584491111429138,-0.02000799410591304,0.0959776483662044,-0.8000083556149733,-0.6317575264656707,-0.9718114719324903,-0.16654677227795223,-0.8173342009597807,-0.6841946542023847,-0.9781003011900118,-0.23916828589167666,-0.7801549533307457,-0.4570448551217665,-0.5199378893720104,-0.4425175610075889,undefined,1498057793405
903d185fccf839df,-0.4311318752513628,-0.39495119152743435,0.6937508089280755,0.7268846538905285,-0.9472830401330293,-1.8807522664707272,1.927862692187768,-0.7284654739297703,-0.42716077728323637,-0.552694088400859,0.03009183066901956,-0.04664514070727203,-0.9479723707664884,-0.6474967128542969,-0.9770746150742405,-0.22716503236471078,-0.8368371964948877,-0.6777033871323779,-0.9771627285814736,-0.2313150782294273,-0.7769954649238137,-0.45159776232143284,-0.5250964490787776,-0.46261639868771576,undefined,1498057794890
903d185fccf839df,-0.5184507130389552,-0.446608555204105,0.6420723143997766,0.6829662426909153,-0.983488692972247,-1.8768531196875113,1.8594588098722833,-1.1938221367905726,-0.3711428019662634,-0.6901579631111278,0.02602278801047942,-0.02343691065719544,-0.8783422459893049,-0.628054207156228,-1.0065483315188894,-0.1524025544592029,-0.8530201697499343,-0.6750688838913826,-0.9803462771572209,-0.189415908398941,-0.7678933675386821,-0.470034934872534,-0.5595579560565678,-0.4577114733349591,undefined,1498057796376
903d185fccf839df,-0.3618310723189363,-0.4190188502923997,0.8526158822038334,0.8939836100566423,-0.8948465530499838,-1.873829769205947,1.8743487680824256,-1.0589782351504848,-0.35618177906023946,-0.6577886240801517,-0.02537843789118447,0.02784776732522185,-0.7695451760249554,-0.5502841260854667,-0.9960220084242198,-0.1321964442096821,-0.8343115520638252,-0.5930825943130265,-0.9787090233692591,-0.11718180012383303,-0.713805578013797,-0.4637299075887467,-0.5526071788879843,-0.46307215860983475,undefined,1498057797886
903d185fccf839df,-0.3188645910634285,-0.420192836446654,0.9323673607132388,0.869688541742174,-0.7145897164558656,-1.8412274085046507,1.8639557669862261,-1.0507539571513462,-0.2981954965466521,-0.8347536834472499,-0.05282244078094519,-0.006331757561221093,-0.678155637254902,-0.5799108359703039,-0.9833904104034891,-0.017021802334575706,-0.8857487660222406,-0.6062424532899933,-0.9697670986529054,-0.04807357510310042,-0.6988272156979476,-0.46851778755093626,-0.6306356332230065,-0.4822315441223997,undefined,1498057799375
903d185fccf839df,-0.19273738092579504,-0.41021358147859044,0.7607423253438814,0.6937451877429665,-0.8164695413587864,-1.8104371957472283,1.8580649988474847,-1.0662579718953331,-0.3410385512388249,-0.9206249366982037,-0.12140209557438814,0.020328274201182873,-0.8087121212121212,-0.5956499770312191,-0.9507587815697485,0.12240015488112273,-0.8520538845812955,-0.6317452182705939,-0.9618746958983747,0.18655254372190122,-0.6566312669161563,-0.469183451174494,-0.6850416832963169,-0.47046523228735154,undefined,1498057800877
903d185fccf839df,-0.32579465755450726,-0.5692947921094481,-0.0501697973129255,-0.07534418518433779,-0.8601117529027504,-1.8409432403605621,1.9053252450786684,-0.8320853510644153,-0.30306751475876736,-1.00739635084931,-0.043905700644240944,-0.028885589951569608,-0.8783422459893049,-0.665087562135338,-0.997074623800549,0.16281234711544276,-0.8578303851045024,-0.6624979921036095,-0.9831589941509153,0.19343565058649156,-0.6740155601914971,-0.4799910101320328,-0.6834257930165747,-0.49824740136361984,undefined,1498057802365
903d185fccf839df,-0.3521290654949503,-0.5869053005090744,-0.3678999438644414,-0.3941720264957833,-1.2014528934730169,-1.8272449843305196,1.8852703491995995,-1.0420358780976398,-0.3492821697433465,-0.7871878436011392,-0.010051645481334878,0.024562353308505192,-0.8957497771836007,-0.6826784049409919,-1.0297062452720558,0.13856503177485074,-0.8469824314202552,-0.7169929721762707,-1.0194444549719883,0.25068706821140835,-0.6973891782837898,-0.4555776579995706,-0.6803236435042316,-0.47782541453537974,undefined,1498057803970
903d185fccf839df,-0.38816539399585503,-0.5610765821357487,-0.3723661466136083,-0.4296693154452527,-1.227516849452414,-1.8580841112234145,1.8683896245298686,-1.1965761383378217,-0.36884303162267906,-0.7598743158886402,-0.002604118042475415,-0.01569764117351041,-0.9610280191622104,-0.7132309138951003,-1.0349694178627413,0.17493601891809957,-0.9062790059835356,-0.7884919062054393,-1.0166387336085778,0.23701324679730723,-0.734325533027446,-0.45458004704292604,-0.6546109277183051,-0.4982395826905408,undefined,1498057805372
903d185fccf839df,-0.5600311809962473,-0.456587854014157,0.19291219481055638,0.13649496424668114,-1.273123633489861,-1.8490606387299113,1.8875872055273106,-1.0493179106144557,-0.3806142762603131,-0.596275671536687,-0.045680275633489774,-0.009462962838498533,-0.9740836675579323,-0.7326734131177819,-1.02128518237898,0.2981930427106269,-0.827799568611684,-0.7980736506814166,-1.0138400097900913,0.2676253564656858,-0.7400225328505609,-0.4572793534034565,-0.5530921530207684,-0.4318426593368729,undefined,1498057806919
903d185fccf839df,-0.557259119894406,-0.5663597171188411,1.333676542369426,1.3317044951305346,-0.9956978136064533,-1.9034949601455329,1.9695319547810433,-0.44942637632850396,-0.37436773145155966,-0.6415026666605063,-0.1616005518932094,-0.014111976673248844,-0.9479723707664884,-0.657680891139516,-0.9991798987266103,0.3285020384965789,-0.7447971880852168,-0.7290635621997366,-0.9911563488422649,0.3477742617691904,-0.692257019799083,-0.3922111341243995,-0.44070151282653114,-0.3999794542837827,undefined,1498057808381
903d185fccf839df,-0.4782563273906984,-0.5475752664069491,1.262219331478352,1.2879275046359913,-0.9711047118494389,-1.851851068437317,1.8973779653937473,-0.8357223245262058,-0.42515510301731335,-0.37179389730887424,-0.13827007114233317,-0.12610482227700442,-0.8261196524064172,-0.5660233319002547,-0.9960219936997522,0.2315129184578184,-0.795467366892712,-0.6893053421474163,-0.9878328642080277,0.2918932996232554,-0.689178142473406,-0.39813948114233044,-0.4284471261484326,-0.40399181383776167,undefined,1498057809884
903d185fccf839df,-0.3909373515814671,-0.4730242447335635,1.2679615558505737,1.138638288715905,-0.9416979019819274,-1.7996691197964672,1.9270605947987034,-0.5486807656241,-0.4486676373693299,-0.6021603488734725,-0.11837413929591493,-0.1469713499822922,-0.3430606617647059,-0.570652482655905,-0.9707588344694597,0.19312139943083784,-0.7751950176910752,-0.597382664736512,-0.9439068868394165,0.35519630595854274,-0.6279329153890362,-0.4409564383550282,-0.4582736523972093,-0.4039389913172602,undefined,1498057811391
903d185fccf839df,-0.5447850002104643,-0.48241645547551343,1.2296809071589272,1.03786005322514,-1.1485946976666588,-1.7220565400234331,1.8742409513780247,-0.9077356994320286,-0.35489918180849156,-0.48380995911591285,0.06287069892285385,-0.1077311855564983,-0.7042669340463459,-0.5188058051113127,-0.9581272217242613,0.18503890445453075,-0.7187889803819907,-0.5771045792531396,-0.9680528814072777,0.30759971535162317,-0.6371191825463903,-0.44757875179228873,-0.4088281856744071,-0.38327219289694603,undefined,1498057812892
903d185fccf839df,-0.7041767365377342,-0.4260629864278679,1.2220247774205977,1.1840227823603946,-1.115279326773532,-1.670503486041171,1.789887293247657,-1.3473058548765224,-0.4029802118287582,-0.6023894562468441,0.01548171100803203,-0.08433182652727715,-0.7477857620320856,-0.5095474517969137,-0.9686535300944633,0.06986426257942435,-0.7418061377383047,-0.5793527750448203,-0.979569632079703,0.24232570453939753,-0.6521953317516348,-0.4448936889893933,-0.44188283726793404,-0.3920409676651039,undefined,1498057814372
903d185fccf839df,-0.6334900238233211,-0.3438807990068966,0.980218298646272,0.9780164688567768,-0.8977882681064715,-1.7026097210618967,1.8422809142685945,-0.9803076323360096,-0.5499926568878069,-0.25321962735574727,-0.0577243687070004,0.00903298762809072,-0.8000083556149733,-0.47621742907802106,-0.9897061983705038,0.09209101777156306,-0.7488633717927528,-0.5260167246063551,-0.9976913718221027,0.2809142106182789,-0.6135397463034034,-0.42839618996639217,-0.5076654361950105,-0.4028399762990225,undefined,1498057815886
903d185fccf839df,-0.19689542082044229,-0.39025507154246325,1.078471709484549,1.1532792582201292,-0.783390748945484,-1.7281009157942282,1.8783907733872445,-0.7362251418822989,-0.5983725227652027,-0.2416869963535823,-0.1877768591224695,0.07291089821817519,-0.5998217468805704,-0.46788495253754064,-0.9581272290864952,0.021369744957126426,-0.7001928897431586,-0.4865751517268312,-0.9922408559534253,0.24095524634102924,-0.6011956943054323,-0.4190997026027745,-0.44434391883803837,-0.39302612778470364,undefined,1498057817384
903d185fccf839df,-0.02918757019846811,-0.4724372005074498,1.1295128285436942,1.0350141543594744,-0.6773863557671571,-1.8103510119902855,1.847866620491705,-0.9800404621816022,-0.7037589800871963,-0.3193009952743036,-0.14798711549813567,0.06281913504732964,-0.5780623328877006,-0.3827082263725065,-0.9507587889319823,0.02339033337030128,-0.5777136967528796,-0.4505660331577539,-0.9621055912017235,0.26365255484808175,-0.5705304300975519,-0.3911661014361723,-0.3611156376294323,-0.3629546661721843,undefined,1498057818899
903d185fccf839df,-0.16363103265244475,-0.3849719365593708,0.872394344429659,0.7411311402030408,-0.8494660647841015,-1.8145902264045597,1.8433722884673776,-1.0853153607639732,-0.5545077066097367,-0.41986123050384533,-0.07389501663858106,-0.00583742638903626,-0.6955631684491979,-0.386411539206562,-0.9560219688849015,0.12037956646794787,-0.521810907989525,-0.4365828942599857,-0.9531216861155918,0.27906639588580506,-0.5559163941939209,-0.36824320437035335,-0.3823776680698844,-0.3779369449451767,undefined,1498057820377
903d185fccf839df,-0.26342409364020813,-0.4865255896903555,0.38622959777184696,0.29409569285614645,-0.9019539715160378,-1.804225110729873,1.8437930580690831,-1.131503902844035,-0.3710382969284461,-0.4227308444431664,0.005251980135942893,0.048199042730926775,-0.47361714572192515,-0.32067734464114594,-0.9497061367444841,0.24565715040892852,-0.5106331540167066,-0.3731014676959919,-0.9480280081582774,0.27132097687049894,-0.5160920331068443,-0.3749917060384728,-0.40125463877624606,-0.3870792709395479,undefined,1498057821924
903d185fccf839df,-0.3521289619787211,-0.5023750530956176,0.16739176234945857,0.16704560941028512,-1.028385759718947,-1.8387630725577486,1.918350685203347,-0.7730842542624933,-0.12297534550484121,-0.42151315043937254,-0.10135869450917118,0.153642577922727,-0.19074476381461675,-0.42807405141670973,-0.9697061970064291,0.04965823712406816,-0.5464551617057917,-0.421409160007498,-0.9746368799345149,0.16202281093120952,-0.5702513223560881,-0.40756556484294754,-0.3704184224976654,-0.4201979508117057,undefined,1498057823378
903d185fccf839df,-0.3285667186563485,-0.571642881329926,0.5667867845025887,0.5264230045708762,-0.8585277589737157,-1.8272799241025452,1.9696371542522415,-0.3907503848705878,-0.12876515242273442,-0.357166022986932,-0.13285042423671445,0.3430839214888123,0.5838903743315509,-0.4354807159371445,-1.0486536533465027,-0.06349575980842032,-0.6218773486879117,-0.43692487205032843,-1.015183398836401,0.06522818218273695,-0.6077079139940418,-0.4190224176947571,-0.41939600961168944,-0.46007738848865815,undefined,1498057824897
903d185fccf839df,-0.39093738608687684,-0.6156690646450147,0.599325462958963,0.5650895694986079,-1.0239629093482376,-1.8210468794934698,1.9472969481642857,-0.566677144592226,-0.20904078916726374,-0.3914309336580274,-0.21019516772810734,0.3309685960626147,0.5447234291443851,-0.45955243714473654,-1.0728642045626997,-0.20897953879308637,-0.6420728702288365,-0.4713887522015586,-1.04817336206488,-0.07084787816636373,-0.656336009364779,-0.4119046745243405,-0.4813913182995024,-0.5226441094219804,undefined,1498057826372
903d185fccf839df,-0.49488848696928744,-0.6913941163146431,0.6561082981164309,0.5292073468317113,-0.9752704214146085,-1.765471230785895,1.9470234454615012,-0.48772159293028305,-0.3040902253957341,-0.2408422173459291,-0.24750939908162503,0.2922284785960179,-0.04713263146167557,-0.3317873737987344,-1.1044431996145267,-0.3160717704860503,-0.6117932271664674,-0.4181540277988918,-1.0748801886367387,-0.12732937454210194,-0.6453028518484767,-0.4145134993341763,-0.5023114918361041,-0.5316396810837997,undefined,1498057827890
903d185fccf839df,-0.4990465268639347,-0.662043307952589,1.101440606973436,0.8500317253055358,-0.9664247193228382,-1.7349325756773546,1.8705697394576444,-0.9113891004708262,-0.2975120323823286,-0.5814787603378985,-0.3057166145359184,0.20256360861197734,0.04425690730837791,-0.43270321512313464,-1.078127355066684,-0.18877342854356557,-0.6328735638047862,-0.4728199958061128,-1.0472078009343695,-0.046318150100942514,-0.6545031028738484,-0.4262914137462347,-0.5218515448635559,-0.5021096422127889,undefined,1498057829377
903d185fccf839df,-0.30500445808127097,-0.5786871197633673,1.0019106662382051,0.9378016961701532,-0.9289333541217517,-1.6849564178012528,1.8189413938634322,-1.1389972709768417,-0.3564879319581294,-0.344360260526137,-0.39334094100249795,0.21132383963663864,-0.2212079434046346,-0.3253064953967963,-1.0118114820228734,-0.1988765119330475,-0.6384872053798274,-0.3903080735579961,-1.003631662598678,-0.0014008882747122502,-0.5968469709788058,-0.3650350809171863,-0.4491979150638525,-0.4655743758994149,undefined,1498057830897
903d185fccf839df,0.2008908788432149,-0.592775421262296,1.2143686476822684,1.0188871426853319,-0.71336570887978,-1.7130377266670658,1.8871112294320223,-0.693129052008683,-0.36111221635398283,0.08141959898726925,-0.40851957903524505,0.29607694065205276,-0.2864861853832442,-0.2966056234335539,-1.0065483241566555,0.17897716747972772,-0.5640162765376783,-0.35372265860363933,-0.9713553746362724,0.2727838273839466,-0.5105895791137758,-0.3786016111443715,-0.4733684054881051,-0.4569453352883685,undefined,1498057832390
903d185fccf839df,-0.0028533520377785515,-0.632692499590535,0.9987207392490425,0.8158490494517108,-0.8399620694356174,-1.704317055680514,1.8889152725130398,-0.7079945903753574,-0.362338947821642,0.4403470365234535,-0.3606452126078932,0.3049046601385324,0.7100949754901962,-0.27253395402906005,-1.0012851810149053,0.215348126358255,-0.5402240032283424,-0.3550399105563369,-0.9456770790614225,0.2520729196183845,-0.5061518415959347,-0.3610631828726593,-0.5010023032431965,-0.42218607409060965,undefined,1498057833885
903d185fccf839df,0.08723758135706482,-0.6039287646825869,1.0663498852709516,0.9128612183127925,-0.6168344439922262,-1.7593034067939395,1.9473916399443694,-0.36529962017379286,-0.2851402398344627,-0.07113234516878812,-0.22956674082073947,0.3870417331946384,0.6535204991087344,-0.30678980171877307,-0.9476009133540594,0.12442082808846218,-0.5450458539844897,-0.3436722764727084,-0.9301161719102577,0.4071814602084217,-0.4664062138513498,-0.38471266134262505,-0.5254711661215771,-0.44072835231499424,undefined,1498057835377
903d185fccf839df,-0.16224498484881927,-0.5510973271676851,0.9980826013690404,0.8812569144452725,-0.7096011455361623,-1.775307609092439,1.9544552889051565,-0.37008124256378794,-0.2887799201949606,-0.48164111863853953,-0.06286125706845201,0.3507919947633915,0.6665761475044564,-0.20679981126674216,-0.9570745842612307,0.24767782361626797,-0.43029534104194156,-0.2655997471278736,-0.9264988212436682,0.4332356285034583,-0.42214637371719055,-0.35225279363102563,-0.4190212353400862,-0.40870360152403756,undefined,1498057836919
903d185fccf839df,-0.041661724387819614,-0.5475752079509645,1.8779003999447101,1.658642272006382,-0.2601367653635109,-1.728000759308358,1.9406251357294941,-0.16742309316110524,-0.279962228237227,-0.5785242632622314,-0.019317088813976122,0.3377740343607537,0.1878690396613191,-0.1725439376754801,-0.9160219072588818,0.6073460377221404,-0.2598008638833953,-0.2340300235770844,-0.8545855984108887,0.880776050427606,-0.30830218779970764,-0.31862860151824685,-0.14403555189741674,-0.0930722667120803,undefined,1498057838385
903d185fccf839df,0.14129216899829863,-0.42958510564458857,2.1618155922798477,1.9476438332232402,-0.2664830420426642,-1.732559081205653,1.8997763618654189,-0.37337447508402416,-0.3296153403445645,-0.5387359770647466,-0.04798091228950506,0.26451625498835346,0.1487020944741533,-0.19939309494320923,-0.9054955694397447,0.6497787335754707,-0.3094147747875335,-0.22878001273147008,-0.8504644764864386,0.862729073845412,-0.3118217656489032,-0.3206064503622253,-0.14983290409133845,-0.09271600990848011,undefined,1498057839912
903d185fccf839df,0.22168100930563173,-0.3579692174177946,2.2626215546381334,2.0368883265979183,-0.327868082368349,-1.7882302270046428,1.806273608581092,-1.038068721433745,-0.2251457748137169,-0.6693400354790235,-0.1002512140520667,0.16072270350340437,-0.4083389037433155,-0.14662060537857122,-0.8844429011637043,0.8033449227422792,-0.275494811972937,-0.1417400339213816,-0.8467281788298845,0.9787255626518617,-0.24990880553040368,-0.37421989419747564,-0.08729231476005897,-0.1269951530561841,undefined,1498057841377
903d185fccf839df,-0.11650658051310918,-0.5516843421658065,2.2881419870992312,2.2398697438965343,-0.4813101062470401,-1.8551143321044998,1.782697395912744,-1.3363635804814624,-0.23763400083012215,-1.0278591241316872,-0.13181376699509811,0.07680662987650481,-0.8130640040106952,-0.1669889619490095,-0.833916516443015,0.8558808150439775,-0.3064676119828275,-0.09767541150403507,-0.8564537453795791,1.1053623774501675,-0.20993591704498418,-0.40922263045050633,-0.04956662190516719,-0.1380939234291249,undefined,1498057843193
903d185fccf839df,-0.2953023649937607,-0.602754720072348,2.223702513929535,2.2420329183012204,-0.6836708991270954,-1.912744369283057,1.8269123208290903,-1.2880380122589683,-0.29300113931754973,-0.5699320962191224,-0.17796596011661264,0.03269313700858554,-0.7913045900178254,-0.11606807052291378,-0.8033901919842709,0.9730760453322588,-0.3652837187537016,-0.079816510361473,-0.844713095945531,1.2141677942794722,-0.18798238341796394,-0.42486888160773206,-0.08294158370012468,-0.1783052043817538,undefined,1498057844380
903d185fccf839df,-0.23847578526150512,-0.670261488698296,2.2045619354467623,2.253814494327357,-0.7076674353251469,-1.8755650535934187,1.8072229571562504,-1.416129790796787,-0.38187549307434476,-0.21900629192614623,-0.1190354697757285,-0.05606050000562818,-0.7738970588235294,-0.1808764919206078,-0.8276007137515328,0.9468081133137703,-0.4836986126382586,-0.11198153074528025,-0.8677326039316619,1.2922687085060525,-0.19458662071703373,-0.42185635115490594,-0.1163262703363587,-0.19242930342096196,undefined,1498057845880
903d185fccf839df,-0.24263382515615237,-0.6444328287809551,1.4357582722138171,1.7398757689602562,-0.7211828451267086,-1.8697233205477666,1.8836161949645525,-0.9263627151105496,-0.4315706483425545,-0.20487738042906967,-0.1405842592211981,-0.055267410317526224,-0.41704266934046347,-0.15124973023267246,-0.9423377334011401,0.6800878424203087,-0.5498469153735602,-0.2245686022847914,-0.9624554301551215,0.9533181228325197,-0.3302489981007854,-0.5097298855704252,-0.29584948336658273,-0.48314977053610697,undefined,1498057847377
903d185fccf839df,-0.3632171546279715,-0.5399440422033788,1.1709836583614528,1.301177350103473,-0.8154512608428871,-1.8388096563182663,1.859729662344929,-1.0876713815806003,-0.4431934937745934,-0.2734377770660188,-0.09836356936475861,-0.029791941607500934,-0.4083389037433155,-0.16698892309668584,-0.9465482538043274,0.5628927251909136,-0.6014930519349144,-0.2749281703686555,-0.9672902262935106,0.7496428835009452,-0.3911645413309205,-0.5182133301833639,-0.23759161935227524,-0.48018918434126273,undefined,1498057849122
903d185fccf839df,-0.4339037983315651,-0.3808628608005134,0.9649060391696133,0.9028106753155045,-0.8844477163168666,-1.8098851629905905,1.8532892616159597,-1.1251866908935122,-0.49846748942323593,-0.2030865703760287,-0.06882263308323708,-0.054116406414704055,-0.5606548016934046,-0.2901248356870376,-0.9644430170535099,0.37901731412038087,-0.6482563811467624,-0.35357066522580566,-0.9849781647035837,0.5055159311456188,-0.4764023620592202,-0.5090382780743584,-0.3193436604033414,-0.4740727364196195,undefined,1498057850377
903d185fccf839df,-0.4824144017907554,-0.2570025792849313,0.7486199928563853,0.7100728605332798,-0.9474476087309796,-1.7814684439129798,1.9022825514722512,-0.7726577048600879,-0.5949239228623263,-0.13421330246034943,-0.06200617658995414,0.08018714961540317,-0.8739903631907309,-0.35493320528163347,-0.9739167026851487,0.3062753963633263,-0.5625833677041859,-0.4656511026552919,-0.9821724436521433,0.3357634677245554,-0.5570307592430253,-0.5048811191089879,-0.3524366884623018,-0.46361019561520017,undefined,1498057852117
903d185fccf839df,-0.45192204021918936,-0.20358406831592335,0.6012393683250706,0.6739313307569706,-0.9612818740224425,-1.7741150360143363,1.9228765701553903,-0.612210529898486,-0.5730874957794321,-0.20512615700955716,-0.13952739187711438,0.014691780675563832,-0.9958430815508021,-0.45121989585038336,-0.966548291979571,0.1870595776618702,-0.6319693481925377,-0.5200384234218141,-0.9795976173106966,0.221322219390729,-0.6011147761487851,-0.49419272227279537,-0.43538596211724684,-0.4761906481366948,undefined,1498057853380
903d185fccf839df,-0.6126997553392654,-0.42371501411935936,0.35688084630463507,0.4047182787415102,-1.2129111649531679,-1.7598461178224316,1.9018986095942552,-0.8014862919772656,-0.4958617076863003,-0.35566631273216603,-0.1519190991090279,0.07248157696739442,-0.8565828319964349,-0.6576808846641288,-1.0539168112127206,-0.16250555305452022,-0.8215739672655157,-0.6534482153007097,-0.9978173128825004,-0.1400792927565509,-0.7400291465620185,-0.48939130565767647,-0.5168414557077573,-0.4657349996249234,undefined,1498057855177
903d185fccf839df,-0.9481153185615747,-0.5827961662942324,-0.13630189221150416,-0.22884651739903764,-1.4120525448848458,-1.694680993868444,1.8618072196514708,-1.044494500709911,-0.3795044884390517,-0.5485939593245636,-0.1031110055112592,0.141955818598273,-0.147225935828877,-0.7465609236632185,-1.0697063068980754,-0.4069991394176469,-0.9754827913514782,-0.7609246022891654,-1.0112162059132004,-0.30313343154689193,-0.8285816396377468,-0.4750710991350028,-0.5222895918329656,-0.42682175606567596,undefined,1498057856363
903d185fccf839df,-1.0298901894198285,-0.794708814439992,-0.33089557093279903,-0.4092387491293715,-1.5745151286252008,-1.6915318629714102,1.873260029972237,-1.0281116954095983,-0.280239043517225,-0.6602844390498388,-0.054625034904215365,0.21180215717929518,0.5012046011586453,-0.739154265618171,-1.0865484400464611,-0.46559676869414834,-0.9927857036283344,-0.7771876018686379,-1.0326614313113867,-0.42587443957997567,-0.8695446712624257,-0.4594178340755038,-0.48679737804529705,-0.4230487704809358,undefined,1498057857871
903d185fccf839df,-1.1477014060316917,-0.8927404360382329,-0.6026879225065412,-0.6722223175408303,-1.7376668524207046,-1.6572804001192287,1.904696728859749,-0.8264301995030099,-0.2769677702881328,-0.6134827876885804,-0.014425047856467236,0.252956890059731,1.0408380681818183,-0.7919267940351326,-1.076022109589558,-0.6757399563272011,-1.044627511449242,-0.8836950485796493,-1.0846477363820146,-0.6315052782791989,-0.9785639600520819,-0.4257586168349404,-0.59452764209993,-0.4197136773399999,undefined,1498057859379
903d185fccf839df,-1.1948259099291418,-0.8176024578227107,-0.6773355686606765,-0.7483144505556794,-1.7456999819597878,-1.6045930093356418,1.8550407232930093,-1.0846443893905207,-0.2803516254634865,-0.6492895640535877,0.057205272731375566,0.3081236641407613,0.2705548128342246,-0.8548834845488452,-1.0970747484166632,-0.7020078600809679,-1.0579679026482869,-0.9295962245748529,-1.1151748221513185,-0.6805493251005111,-1.0195285780673375,-0.42377796635289094,-0.5916622233619673,-0.43700411839616643,undefined,1498057860941
903d185fccf839df,-1.0853307644802208,-0.7876645760065506,-0.6601091496809607,-0.7197463255192431,-1.7337994316445815,-1.575640563395918,1.8276723319350403,-1.1997911871132796,-0.27143736297055154,-0.6496723751016158,0.0398717770857606,0.3362584207348412,0.3401849376114082,-0.9261727034061364,-1.1328642730744696,-0.762626091903005,-1.1070504227357478,-0.9694494388764573,-1.1545668673625427,-0.7522290881952564,-1.064675383003617,-0.4517754336564184,-0.6260785604374952,-0.4784943359447067,undefined,1498057862372
903d185fccf839df,-0.9106929250043397,-0.8757170010927128,-0.5120906414065934,-0.5163366675103555,-1.4757518641354281,-1.5182900358259324,1.809763347302132,-1.172518169621067,-0.29750249268869117,-0.6505385608628852,0.0020404119410103484,0.4903289156001688,0.9450966466131908,-0.9289502042201463,-1.1728643162949046,-0.790914626467029,-1.1224981927167146,-0.9779355834706025,-1.1671891145143896,-0.7645940402924938,-1.0726569884750705,-0.46277647563389407,-0.6385000116787245,-0.47909077358487767,undefined,1498057863881
903d185fccf839df,-0.8843586378328306,-0.8898053610476261,-0.37683184108887624,-0.4132563541809559,-1.3824811646469224,-1.541058347450389,1.8412894877904966,-1.0035546834707743,-0.2714280783059721,-0.6605508710177262,0.009112514265289482,0.47415415702311114,1.1670426693404636,-0.9391343825053655,-1.2107591085165386,-0.7848528046980614,-1.1461601491598536,-0.9712606608290946,-1.1821622896620207,-0.762453656510083,-1.075948971455352,-0.46520327272163314,-0.6378010572987692,-0.4783797447107663,undefined,1498057865377
903d185fccf839df,-0.8469362442755957,-0.9854888057414122,-0.49932991690214573,-0.5670565891390134,-1.336781812683001,-1.5698104769246326,1.855498338426294,-0.975350941157547,-0.26025698001578784,-0.6658365456749871,0.04178804505780682,0.5223284625883968,0.7057430926916222,-0.9641318898314541,-1.2181275357871422,-0.7787909758629133,-1.1618026383215876,-0.9626098595996773,-1.1854228033470402,-0.7561094968785145,-1.0720238538892586,-0.46649117042517796,-0.6421605304827149,-0.4785040812299623,undefined,1498057866872
903d185fccf839df,-0.9980118318027515,-1.0447773205516724,-0.764105039028409,-0.8380203751445681,-1.4065291244588973,-1.5866695108048052,1.8667433832744529,-0.9672279684212467,-0.2784328334018682,-0.630764595111953,0.09245075680600909,0.3733295299640634,1.5282489416221035,-0.9641319092576159,-1.2233907028561524,-0.8353679955276988,-1.1607617818736113,-0.9948762077079659,-1.2051678037572475,-0.8786811233713823,-1.1171894752454905,-0.4604386118214598,-0.6264140164569788,-0.4801788444082297,undefined,1498057868413
903d185fccf839df,-1.1906678527817898,-1.0799984542628942,-0.8259919606780964,-0.8901874405222924,-1.4442159174475961,-1.5973956562500904,1.8519454514251898,-1.0907676741198002,-0.28684099007538627,-0.647377012752909,0.08477697441638404,0.3564534456563122,0.5795384915329769,-0.9678352285670587,-1.2476012540723496,-0.9545838495600568,-1.1300090924268356,-1.0311513093135338,-1.2283692286365433,-0.9564894679556843,-1.1584490360644768,-0.4597923576098449,-0.6140095418511354,-0.4850931936020213,undefined,1498057869877
903d185fccf839df,-1.2835308127730647,-1.1087621891708423,-0.8987249390552757,-0.9602175439464137,-1.5336397697606303,-1.6003933876874916,1.8605449118938773,-1.0559085716179182,-0.2884097876747529,-0.6682589975863804,0.08884113835311419,0.1778101168486892,-0.321301247771836,-1.0326436013993483,-1.279180239921384,-1.0576348372979574,-1.2110816350251166,-1.0961716421545138,-1.2713786249425514,-1.1470760266789555,-1.2400958411731287,-0.4644885123952851,-0.6496407118392347,-0.5148421777643655,undefined,1498057871383
903d185fccf839df,-1.3043210467517108,-1.1134583091558135,-0.9408339067530366,-0.9913924995948739,-1.5878042501851588,-1.6072087417377048,1.8608263013882484,-1.0719625372232124,-0.2877832730870215,-0.6703118883702142,0.09020266598445234,0.1416132379313738,-0.321301247771836,-1.1428178381281646,-1.327601357078246,-1.1808919282191983,-1.3236949580293407,-1.1650740696579815,-1.2982043978620827,-1.2198336817626796,-1.2952949754065304,-0.4697265030451913,-0.6632682882751862,-0.5166717321776674,undefined,1498057872889
903d185fccf839df,-1.254424533510534,-1.1163933841464202,-0.9453001095022034,-1.003127115509004,-1.672784678544837,-1.6031279144214372,1.8606395973888301,-1.0718476956127339,-0.2872849804971833,-0.6686460847160051,0.08996969690618185,0.32262364623555834,0.02684937611408201,-1.1696670123937853,-1.3433908472419256,-1.2354483453384482,-1.385484287749891,-1.2000635837302587,-1.3181942866101541,-1.2963485567544832,-1.332484648666368,-0.47643827464890465,-0.6726123264547912,-0.529620200588438,undefined,1498057874379
903d185fccf839df,-1.2391783699774557,-1.1046530841839926,-0.9267979230363822,-0.9833373881947345,-1.690383504235151,-1.6070270621831901,1.8576205725373465,-1.097476203923625,-0.2906487369655798,-0.6580298922046858,0.08711649859331443,0.24373829380257567,0.7666694518716578,-1.1733703503199666,-1.3433908472419256,-1.2354483347391776,-1.3925143238023792,-1.2028057482982761,-1.3194816997747607,-1.3044635375585256,-1.3362765696212546,-0.47663817114997303,-0.6721983982091658,-0.5294800098070631,undefined,1498057875873
903d185fccf839df,-1.113051073576298,-1.0858684873321387,-0.847684582406979,-0.910170061149009,-1.6560498469005815,-1.625132236557349,1.861199732432564,-1.0987570473240063,-0.2965705589688642,-0.640501406151363,0.0844756697944782,0.440332054153441,-0.3125974821746881,-1.165037849496784,-1.3476013786884635,-1.2071598249067848,-1.3772427812864811,-1.1975810696038645,-1.3212518929265598,-1.2823359713579756,-1.3296903230008588,-0.4765386810858394,-0.6723657894132927,-0.5291985718190196,undefined,1498057877365
903d185fccf839df,-1.0271181455706921,-1.0565177374260695,-0.7966437174847834,-0.8562515880561475,-1.6436144395751755,-1.634719386524448,1.8596691752939825,-1.1212012837473913,-0.29554842746655824,-0.6436503819524971,0.08356574692909788,0.334675458383986,0.4141669451871658,-1.1511503373325005,-1.3412855815186566,-1.1283561277778449,-1.3468929127242795,-1.1842565560235816,-1.313898244566714,-1.1960276848873237,-1.3033684793724323,-0.47557234798766523,-0.6689357923538708,-0.526023208623279,undefined,1498057878879
903d185fccf839df,-1.0617685039051432,-1.0518216174410984,-0.8349243661764301,-0.8865143311261786,-1.737913710217906,-1.6264971742825867,1.8714927884268833,-1.0361874332599779,-0.29916256491511023,-0.656275158480461,0.08685375944833251,0.47920036909921776,0.8101882798573976,-1.1483728397561843,-1.3370750500721187,-1.1202736963971613,-1.3533480437983798,-1.1794435188010806,-1.3104208295732394,-1.177287776833042,-1.2964542038799423,-0.47579633108668445,-0.6695280412092268,-0.5266012467767713,undefined,1498057880382
903d185fccf839df,-1.0201880790796134,-1.0160137025556937,-0.8330102066733731,-0.901938859421282,-1.6912063597601665,-1.6157966499798821,1.8561820590437532,-1.0985074497406464,-0.2812463089695307,-0.6379595821333964,0.11148309420050259,0.5854765825393277,1.7110280191622105,-1.1280044896611334,-1.317075024780784,-1.0455111902269318,-1.3108453365189137,-1.1394636455262686,-1.2862048671902304,-1.1187120900995844,-1.2586688700342537,-0.4621575910651005,-0.663390435429061,-0.515924905717968,undefined,1498057881908
903d185fccf839df,-0.8621824250613787,-0.8176024578227107,-0.5739775630562809,-0.6668131333009505,-1.599385945320545,-1.6786698041707684,1.921030449171432,-0.7004534682094609,-0.3601037384554717,-0.5791474048220285,0.0373558996068558,0.47314970827913294,2.2158464237967914,-1.0631961265419247,-1.2865486763947802,-0.8616358922152852,-1.1413825202585857,-1.0062375090140172,-1.2503462114044401,-0.89700527244279,-1.139809825373292,-0.43778369568917197,-0.5183483526312421,-0.49361702827714454,undefined,1498057883377
903d185fccf839df,-0.7887235822343048,-0.4389773163865384,0.8538921579638378,0.8476674462255008,-1.3002573064344236,-1.7558584621044366,1.8906193746822644,-0.9050248325891461,-0.3984126685901007,-0.6663598451746259,0.0243793434377631,0.45559383126661807,-0.17768911541889482,-0.678975069443081,-1.2181275339465838,-0.5726889650562104,-0.8078131582848238,-0.8624606890162406,-1.2091419923046147,-0.6527705279403201,-1.010360432645073,-0.4208145253725126,-0.42442782119193023,-0.47108927507142156,undefined,1498057884866
903d185fccf839df,-0.7152648429234602,-0.3374237217115384,1.3126220585205455,1.275955314412484,-1.2734219230711141,-1.784932025930232,1.9312577647930083,-0.6477201726073063,-0.4185012400084989,-0.5954299661150471,0.00896184890249709,0.22216502804269952,-0.2734305369875223,-0.6021308619085445,-1.145495858211291,-0.22716498996762846,-0.7468364478631726,-0.7694677442622737,-1.1579953052548841,-0.5428410266800945,-0.9295139486386261,-0.4303394152620011,-0.4213693782834097,-0.4675866409078429,undefined,1498057886365
903d185fccf839df,-0.46301021561573485,-0.3292054532818543,1.2239386827867054,1.057263215241218,-1.1466301320189591,-1.8116786790901462,1.9639541442534547,-0.4377060133048805,-0.44479846632202674,-0.759647069814304,-0.024923088587260705,0.23403324472150538,0.02684937611408201,-0.5863916755199183,-1.1118116140012213,-0.0938048827856192,-0.8833808774484411,-0.6664750819842982,-1.0874254704162796,-0.33046566832344315,-0.8152117776466197,-0.4662467626481307,-0.5063100954212021,-0.4977450564291464,undefined,1498057887878
903d185fccf839df,-0.4699402476014039,-0.36794853084184287,1.2047981043039326,1.057263215241218,-1.162572960320036,-1.8405472705714911,1.9364121837718418,-0.6563482999000547,-0.4519277378353384,-0.7791094779129083,-0.07436881204608958,0.3304694614019976,0.19222092245989306,-0.5762075619885719,-1.0823378975565725,0.0031842655178627856,-0.8868545853964195,-0.5749007162098904,-1.0542675836105357,-0.13393530959059363,-0.7267556884733476,-0.4857279694895051,-0.5381973982760584,-0.512509188176221,undefined,1498057889390
903d185fccf839df,-0.352128979231426,-0.3450549313011126,1.290292061322509,1.1281287545335845,-1.1100541908135042,-1.842645915080959,1.8524898097431854,-1.1722544540703184,-0.5110408148833867,-0.9180171580119282,-0.09153987764504234,0.1220256875260401,-0.0950033422459893,-0.5706525344590032,-1.0444431108566141,-0.010960022962690386,-0.8811698592615227,-0.5994915359942934,-1.022446088122666,-0.09468467189222547,-0.7203754040876506,-0.4985189418556596,-0.5463274937048652,-0.5162065607416527,undefined,1498057890874
903d185fccf839df,-0.4685542688085979,-0.3644263531691375,1.3968394856421682,1.4300098937229495,-1.1349250097754389,-1.775771128608735,1.8794979091226995,-0.9278435530448846,-0.4797631206423952,-0.9383031279622668,-0.002717365453641295,0.2028330453253952,-0.17768911541889482,-0.6410158797800697,-1.0223378198420106,-0.18271163503931948,-0.8852452347078308,-0.6763608060570337,-1.0129234277548755,-0.19329631735144528,-0.7720559082084117,-0.4640225062346252,-0.6083687424596638,-0.5098123781273877,undefined,1498057892385
903d185fccf839df,-0.5683473297963613,-0.3791017281221722,1.477867239911578,1.406402111384279,-1.1867649213469291,-1.7747252995280784,1.8381915499797115,-1.2123136688197855,-0.44446658485280655,-0.7983861147540826,0.017969449303761587,-0.026942856238451395,-0.17768911541889482,-0.5410258116233915,-1.0065483204755388,-0.2999069218570438,-0.8488935160037225,-0.6481095427453117,-1.0206828909008863,-0.14540715166347418,-0.7487506456594017,-0.4817905546210147,-0.6013501160447303,-0.5241585084987315,undefined,1498057893870
903d185fccf839df,-0.4768703485978924,-0.3902550423144709,1.2877395098025004,1.2832028693984778,-1.0514154368244522,-1.772340158554495,1.9196866180302266,-0.6257806559344814,-0.4501891395769914,-0.7649337328481386,-0.027754901365663557,-0.14826230652141043,-0.27778241978609625,-0.5067699639336785,-0.994969378323423,-0.3544633177777524,-0.8018415790154085,-0.6063311118383405,-1.0173734000902654,-0.08101085189166672,-0.7197374445167665,-0.4882466239194745,-0.554933750308527,-0.5114336916287688,undefined,1498057895376
903d185fccf839df,-0.39093742059228653,-0.45776182555441514,1.1588613258739566,1.1601793653056665,-0.9131962388432048,-1.8240096714560305,1.899634349335817,-0.8025547264258784,-0.32644587520795687,-0.6780807184186265,0.015255207725903235,-0.42677641735197686,0.19222092245989306,-0.5771333286809067,-0.9939167298170417,-0.30798933203918627,-0.8243416188859793,-0.6441704504325642,-1.0189196950248602,-0.05099928035716094,-0.7296416931033455,-0.4935921213356858,-0.5601717467387121,-0.4829794114688538,undefined,1498057896900
903d185fccf839df,-0.4034116092870478,-0.4941568723499105,1.0759201745123381,1.0842881239605118,-0.8537449141599502,-1.8420333242547202,1.8506752568760096,-1.126928883066266,-0.29747934608165505,-0.7690119126613901,-0.024200355169278456,-0.3507029585137189,2.472607508912656,-0.565097519880209,-1.0044430565928282,-0.32819541402398555,-0.8244408246132474,-0.6172871046272319,-1.0299256785644588,-0.020849124294492694,-0.7125758129944317,-0.4977736828283443,-0.584134326350836,-0.489973677381719,undefined,1498057898363
903d185fccf839df,-0.4838003805835614,-0.4483696148124653,1.1301509664236962,1.0686279780219212,-0.9513973198306467,-1.8621299988908797,1.9010518149740043,-0.8605352396872246,-0.28011266036032983,-0.9403655809459094,-0.01701676593648441,-0.19463821421655197,1.4934338792335118,-0.5475066641237805,-1.0086535880393661,-0.19685592351987266,-0.7920943177935204,-0.5928609404316711,-1.0354181755124936,0.09009667544217241,-0.6865124174560948,-0.5228125937142802,-0.5736134793908068,-0.4531851404959049,undefined,1498057899877
903d185fccf839df,-0.5531011145051685,-0.41725784914002406,1.4491566263243683,1.4784425719204988,-1.0049240902036145,-1.8527245317110914,1.8262916835453438,-1.3328882173747336,-0.46305442176940853,-0.9783400240934055,-0.05516763329203485,0.05251597834507997,1.088708778966132,-0.566949182772624,-1.0254957175066348,-0.05541340615572091,-0.8178418795231812,-0.574077431234113,-1.0261194137656335,0.152999324309439,-0.6615556407618634,-0.5402990970481532,-0.5837755628933144,-0.43537438954876956,undefined,1498057901363
903d185fccf839df,-0.4810283539871299,-0.4636320047636214,1.4765909641515735,1.4033710485708946,-0.9219699372927256,-1.8661479364107603,1.9078998200507733,-0.7947393399898718,-0.5264452374593409,-0.7476641068855937,-0.027157477708726126,0.09291247615926175,1.0321343025846703,-0.476217403176472,-1.0223378272042443,-0.045310322766238975,-0.8010973326416699,-0.5466621188519631,-1.0133152496594513,0.21865829410385218,-0.6339875066811521,-0.5249901750394647,-0.5954972548171301,-0.42513902099152323,undefined,1498057902880
903d185fccf839df,-0.6126997553392654,-0.48828666391271197,1.2737037802227955,1.2690188548971446,-0.9836429787919188,-1.857611275179716,1.9133619239398096,-0.7814775384975693,-0.5180715749256548,-0.5258393627960122,-0.022978936808306344,-0.09021183855924039,0.7013912098930482,-0.44196156843753354,-1.0254957138255179,-0.03722788431937497,-0.80979977276151,-0.5042693940194546,-1.017562314130745,0.25623049932346503,-0.6089293879547769,-0.529333256347406,-0.5649415820554035,-0.4426199922758194,undefined,1498057904365
903d185fccf839df,-0.4560801491246561,-0.5962975404790166,1.0746438987523337,1.1081906316408905,-0.8327415170504189,-1.8815185871460502,1.8828772160011813,-0.9633409965374765,-0.4653871828279249,-0.7669283099672216,-0.07454688563442653,-0.3822896162099418,0.42287071078431376,-0.387337428931255,-1.027600992432696,0.04561708856244,-0.7393295942255655,-0.5111596371778537,-1.016680716186615,0.329742676982062,-0.5979000811876313,-0.5276751226767176,-0.49290302792277263,-0.45005276433934815,undefined,1498057905858
903d185fccf839df,-0.6043837100553805,-0.49650493234239607,1.0465714230451262,1.0143365265239659,-0.8854660006017474,-1.809731436055372,1.9070845778344776,-0.7182210104048227,-0.46642001762690055,-1.117843514852888,-0.023468839735143895,-0.26693166141859903,-0.12111463903743315,-0.38085656348009145,-1.050758917229213,-0.04733093944413536,-0.7412688515061029,-0.5009129350829667,-1.029365934122519,0.28189970571499284,-0.6039083628382378,-0.5103678431260551,-0.4837834134861274,-0.48086406203264265,undefined,1498057907382
903d185fccf839df,-0.47687038310330215,-0.596884555477138,0.6899232523328097,0.684546462145381,-0.7344102522743761,-1.8060954938125224,1.905272647438113,-0.7308188290834682,-0.39553373036414075,-1.2193744623238905,0.05373641324274722,-0.1305912413154057,-0.19509664661319073,-0.39566993137328454,-0.9707588307883428,0.1527093202554039,-0.6424483816280532,-0.5427736922922276,-1.0048561050709834,0.7099610880242369,-0.5157119523853094,-0.4923942975706228,-0.5361832651184294,-0.3822115936941455,undefined,1498057908857
903d185fccf839df,-0.2509499049454469,-0.629757424599928,0.10486695695671837,0.10777548485348004,-0.8134661201961714,-1.7434203243204647,1.8836530074991957,-0.8317750202660946,-0.4525440397276004,-1.1950070891798725,0.0899319247610128,-0.1846725716982091,0.013793727718360084,-0.4428874646376138,-0.9654956397920729,0.3123372181322939,-0.6664663334670972,-0.6076420343299236,-1.0035616949976274,0.7414817078048204,-0.5289039770936235,-0.47680486079227313,-0.5490411345540442,-0.4441413833910087,undefined,1498057910479
903d185fccf839df,-0.3576731014351085,-0.6162560796431361,-0.19308472736897206,-0.20097792295976163,-0.8299849484596444,-1.7516402088692873,1.9010018382329774,-0.7665956088982155,-0.43923705018026177,-1.1517863619448105,0.14262333878809236,-0.3006913007894121,0.13999832887700536,-0.5373224793631741,-0.9497061551500685,0.7144381846209397,-0.6189275621837222,-0.6464946439014566,-0.9730276118485602,0.8871817987522064,-0.5110743335616201,-0.40049207876796056,-0.5331867153597757,-0.3998812281013106,undefined,1498057911932
903d185fccf839df,-0.3091624979759182,-0.49239573967156935,-0.4061805925560881,-0.47328842795671283,-1.0073926483724713,-1.6686750381718474,1.904357481594134,-0.6654384495071138,-0.42290141367992556,-0.7479320676964817,0.01851541627405157,-0.2074328882345372,0.9755598262032086,-0.5502841455116285,-0.8486533930709239,0.6235109146158684,-0.6582965759124542,-0.6500537583754942,-0.9309977687471996,0.9909365257847625,-0.48075513980541756,-0.37665687360514377,-0.543423200543377,-0.44102239119592956,undefined,1498057913365
903d185fccf839df,-0.4962745002675032,-0.3920161749928121,-0.3111166004330747,-0.2844546747571699,-1.0329011744832106,-1.7274440737642018,1.8849889701804468,-0.8767951320091399,-0.34626319229782254,-0.6686267994660968,0.029262405562634843,-0.2963106352837959,-0.03842886586452762,-0.5993533546191474,-0.8728639700549393,0.6012842159531727,-0.6803949723788699,-0.6773234126876441,-0.9279191722611978,1.0005759514225299,-0.4920575320150242,-0.369112642155091,-0.58393513762813,-0.43636505431308625,undefined,1498057914871
903d185fccf839df,-0.6085416464337986,-0.4084525949402109,-0.3379133086541768,-0.44023705373829264,-1.1475146971850225,-1.8066521818755052,1.91369593097765,-0.8089077884436913,-0.2940112588184225,-0.6881053643754408,-0.013284398319533168,-0.23935531129325543,-0.36482007575757575,-0.7002692153697094,-0.8591797051222427,0.9771172786880515,-0.583980271566741,-0.7523434630028027,-0.9067258322931374,1.2872334111370975,-0.4544724167133164,-0.34118258136651985,-0.571454290195928,-0.43457940436384895,undefined,1498057916360
903d185fccf839df,-0.7679334172664782,-0.760074841866853,-0.4036285493099784,-0.46428566611011884,-1.2344596935750212,-1.8584544616312708,1.9346738999189597,-0.8091084301455309,-0.25035535293541394,-0.6609829775024174,0.020363884043245312,-0.19736185779362672,0.3097217580213904,-0.7798909593328857,-0.979179882638068,0.9569111684385307,-0.6330498504936136,-0.7523497960239934,-0.9270865524825693,1.0229036948560426,-0.5237905557627148,-0.36150049410698626,-0.5987738286312224,-0.47714660272112835,undefined,1498057917866
903d185fccf839df,-0.9203949835864402,-0.8363869377625951,-0.41830241676968544,-0.4635203712588472,-1.4915301233784353,-1.8517765328946962,1.909985271481554,-1.0296044066101206,-0.2834100854924905,-0.6802534616714423,0.034742291611605074,-0.16819694892235465,-0.2647267713903743,-0.8141467940718241,-1.0381273081651317,0.8457777881839387,-0.6595588019381202,-0.8431135444429552,-1.0015466139545093,0.9323146386396749,-0.6002830287097916,-0.457326021670568,-0.6553887620833425,-0.5073487663559423,undefined,1498057919362
903d185fccf839df,-0.9273250845829287,-0.929135365921759,-0.5765296063023907,-0.6124871633054176,-1.527375778739806,-1.8325696266585036,1.8945956438044276,-1.126065303138081,-0.26176831604498496,-0.6665674297838879,0.05560273785579536,0.07930702566976552,-0.49537655971479505,-0.8576610015513233,-1.0907589678118823,0.6053254210442439,-0.7406215694751197,-0.9329463509164734,-1.071682646145619,0.7658882395292455,-0.6892096291029238,-0.46475011455695336,-0.5874678907207287,-0.4432514909588245,undefined,1498057920915
903d185fccf839df,-0.9675195219893001,-0.8956754525728552,-0.638417036225977,-0.7007818392490486,-1.6575412751097163,-1.8474884031417116,1.9024114186508616,-1.103249769592229,-0.269660114941854,-0.6979837489040319,0.06074829234629985,0.16129923276275993,0.16175774286987524,-0.8761776758031846,-1.1233905708778045,0.5649132853393669,-0.6946671859667353,-0.9457135661175454,-1.119100033236646,0.5654774737286149,-0.7488359330392941,-0.4661221051800044,-0.575212163073696,-0.37139654377444464,undefined,1498057922360
903d185fccf839df,-1.0271181369443396,-0.9649433392631483,-0.8157842959675562,-0.8663913494342645,-1.730436009529215,-1.8864798673061707,1.9110292987427737,-1.0956726004112625,-0.2701836684288907,-0.6971872358738084,0.07522710787853087,0.12618854411613556,-0.47361714572192515,-0.9419118833193754,-1.183390650432925,0.00318430791494509,-0.8194268955111793,-1.0037423296203747,-1.1714711626241066,-0.09881146003748781,-0.9396977410654674,-0.4658752073512761,-0.6314206076444047,-0.4654176316438784,undefined,1498057923871
903d185fccf839df,-1.175421697875064,-0.9878369241898824,-0.8464083066469746,-0.887615386850281,-1.821721570667603,-1.8945786317871467,1.912073338574254,-1.107706196561486,-0.2770815336036961,-0.6838221452006839,0.0771228694963705,0.030538226533756714,-0.8870460115864528,-1.0039427488622676,-1.207601205330239,-0.21706197723995038,-0.9295096818592237,-1.030347025815315,-1.197954091510945,-0.3506838308427032,-1.0132224103455767,-0.4649860590527148,-0.6233742057386062,-0.4677493442656723,undefined,1498057925425
903d185fccf839df,-1.1005769021342415,-1.0201228075425435,-0.8802227525894546,-0.9414000336108881,-1.743005132138439,-1.9112094003299773,1.9162626191581686,-1.0939522354059381,-0.2660474378748104,-0.6825250702436657,0.08326326031202098,-0.1234159169641424,-0.7434338792335116,-1.0511602853642905,-1.257074950747339,-0.8171825160884352,-1.1187691948405187,-1.0603778447058243,-1.2272077580126635,-0.8192585230538159,-1.1408919205182142,-0.46528452402275733,-0.6348257411467025,-0.5029880883743004,undefined,1498057926869
903d185fccf839df,-1.0520663849385756,-0.9126989459743602,-0.9057431850505524,-0.9579213779197859,-1.5778579804187696,-1.8654095686664158,1.9054514798350106,-1.103579536738582,-0.23721456677443825,-0.6966078314139625,0.0832368356681144,-0.09902117511539743,-0.5345435049019608,-1.065973624118241,-1.2760223459378768,-0.9485220207249088,-1.2466351083961207,-1.0851966514204567,-1.2472536212905678,-0.9349932392569646,-1.1820698707418749,-0.47036246888582406,-0.6555302825713755,-0.507682127515044,undefined,1498057928361
903d185fccf839df,-1.085330773106573,-0.9561380558353428,-0.8649104931127959,-0.926394734144632,-1.3740366073123225,-1.8334920030420987,1.9041470973170422,-1.0628532303212415,-0.2544702190509203,-0.6891257626722159,0.0842120609171828,-0.1083063409945589,-0.49537655971479505,-1.0937486322583394,-1.2939171036653838,-1.0697585126337044,-1.3162792709050535,-1.1249992020785187,-1.2707768994763078,-1.1113054384457244,-1.2489213681159719,-0.4755149261882094,-0.6683142828136218,-0.5265858620590751,undefined,1498057929876
903d185fccf839df,-1.1504733981227135,-1.0394943024805492,-0.8904309255738937,-0.9335423258142358,-1.2977064484075393,-1.8166399566408347,1.9095855371649926,-1.0045624475003583,-0.26725613143206955,-0.6825327805248834,0.08827927162592193,-0.11753106549227917,-0.5606548016934046,-1.1076361525168568,-1.303390798499815,-1.0839027481179047,-1.3289683878506748,-1.1420538191470486,-1.2811391762195061,-1.1325090984579895,-1.2633659684993308,-0.4761223403331925,-0.6715356074626053,-0.5280294535437592,undefined,1498057931365
903d185fccf839df,-1.230862307440866,-1.030102062510607,-0.8846889553386214,-0.9385536458634646,-1.3066755768492464,-1.8076025091460237,1.91012465263641,-0.9925103786968871,-0.2627217921087023,-0.674360427090512,0.08904364278622548,-0.08816843600983791,-0.7477857620320856,-1.1326336598429456,-1.3097065938290635,-1.049552430648905,-1.3334264922747825,-1.153237797908326,-1.2870304910143706,-1.122469311528905,-1.2676244489008253,-0.4765864004545345,-0.6718511438604594,-0.5283703236804445,undefined,1498057932866
903d185fccf839df,-1.1975979192728685,-1.016013644099709,-0.8904309255738937,-0.9415808121488902,-1.3523749278489168,-1.7485097107117522,1.9000209278261686,-0.9940674853138015,-0.2792455715899343,-0.6690967486526294,0.09175279677938357,-0.18790279764499232,-0.29954183377896615,-1.12522698560943,-1.3054960660636425,-1.0394493755241447,-1.3427641426394594,-1.1550363538462651,-1.2851203615961013,-1.1117365945143514,-1.2650033500299989,-0.47671958704685824,-0.672744729886833,-0.5286594522968545,undefined,1498057934407
903d185fccf839df,-1.126911137547636,-1.004273402593266,-0.8719292473819713,-0.9325764055182014,-1.3363806678638144,-1.7339799171475736,1.8995975258021949,-0.9741541884807295,-0.2918797963011216,-0.6702766098447315,0.08490754252621596,-0.2531320393394595,0.40111129679144386,-1.1224494831765732,-1.305496067904201,-1.087943974407517,-1.3437438176593306,-1.1461005703728318,-1.2864077748891658,-1.1462291118697767,-1.2661903491997055,-0.4756744543784778,-0.6681422655310045,-0.5277381539334808,undefined,1498057935875
903d185fccf839df,-1.1449293794352602,-0.9602471608221925,-0.8783091013602964,-0.9204966367953036,-1.3801874503043274,-1.6761192844814206,1.8880816075309546,-0.9641901819397414,-0.29299143006729406,-0.6699518134351365,0.08111987030017553,-0.28193982068506834,0.5403715463458111,-1.121523656586906,-1.3076013336274699,-1.077840926348937,-1.3353785467515984,-1.1360248570651514,-1.281384064728648,-1.1377599665916107,-1.257830207866902,-0.4738515487702447,-0.6664099780192314,-0.5267052595544676,undefined,1498057937372
903d185fccf839df,-1.1657196134139063,-0.824646520888198,-0.7928153984786693,-0.8613448034072899,-1.273391056471522,-1.6516459676963762,1.8799607702451284,-0.961718616619229,-0.2925590140542976,-0.6672465681749772,0.06855568815021212,-0.26877379971074056,-0.23861547459893048,-1.0881936306303197,-1.3012855309359876,-1.0839027445848144,-1.3068635998128906,-1.1038155058319892,-1.2781515381953792,-1.1282899223728984,-1.238348549078155,-0.47400249301222713,-0.6655391650112141,-0.526566916909779,undefined,1498057938917
903d185fccf839df,-1.2183881877569243,-0.9432237258766722,-0.7711232850236855,-0.8458067086321154,-1.28389275676274,-1.6081241346435204,1.8565107986182536,-1.055377719949815,-0.2856078900579464,-0.6720746544003051,0.0782285016044145,-0.2575458788068153,-0.34741254456327986,-1.0641219547504386,-1.29918026337216,-1.0636966837985564,-1.3076141174299654,-1.0889584200866342,-1.276598246186874,-1.0807549208898048,-1.2222551370580963,-0.47420686743986035,-0.667768842121381,-0.5272586380913793,undefined,1498057940379
903d185fccf839df,-1.2461084537212395,-0.8892183460495047,-0.7730369362528438,-0.8506054747936662,-1.2805499075158344,-1.6544853140363356,1.870456655289903,-1.0378569819613603,-0.2807645297701613,-0.670333036422841,0.076760585899606,-0.04344401376764317,-0.31694936497326204,-1.0567152837546165,-1.3076013336274699,-1.116232470107549,-1.304894478572252,-1.0716061543607502,-1.2806144156178525,-1.105407832722425,-1.2210129524089666,-0.47355833984180307,-0.666656677997504,-0.5263415908843361,undefined,1498057941863
903d185fccf839df,-1.129683233154887,-0.9344185009048515,-0.8425804959147595,-0.8831642586003402,-1.4372319314290674,-1.655840932030368,1.8725131605509526,-1.0469517061265075,-0.2911858085682902,-0.6790472783736881,0.08622042107197836,-0.42556245912160523,-0.0036138034759358177,-1.056715280516923,-1.3044434304411703,-1.1020882098917173,-1.3102902586896954,-1.0802062916254984,-1.2766542205087266,-1.118034558042229,-1.2255105571721143,-0.4754014947544198,-0.6717642738740501,-0.5282443648604063,undefined,1498057943369
903d185fccf839df,-1.0603825164859848,-0.9849019076552602,-0.8629968418836377,-0.907613462072133,-1.6045699344613689,-1.6819517021612296,1.8882919959981328,-0.998165666946632,-0.2867360008948479,-0.6679117166834229,0.08655206340273228,-0.7112309696419838,2.7293685940285206,-1.0715286257462606,-1.3107592294515356,-1.0960264022551105,-1.3257790123557365,-1.097691549229511,-1.2856871032954633,-1.1254720074889561,-1.2381565022303038,-0.47611913867154815,-0.6733148472011379,-0.530477844705108,undefined,1498057944875
903d185fccf839df,-1.1227531407847509,-1.02070976408468,-0.9331777770147073,-0.9895859621385296,-1.8119501580989583,-1.6623325191288083,1.869536223030105,-1.1080891885933946,-0.2748503479396465,-0.677221593381002,0.08532207006473473,-1.2852241177577888,5.227349320409982,-1.0983778056778453,-1.3202329261265253,-1.0778409228158468,-1.3368505500237688,-1.1365568243174422,-1.2910536571338846,-1.129229228379785,-1.2600370612886704,-0.4759230045255969,-0.6741784455384714,-0.5298657543357151,undefined,1498057946380
903d185fccf839df,-1.2571965773596703,-1.0500606309027187,-0.9529562392405327,-1.0274448491436778,-1.9148482717419202,-1.6647852079595242,1.8576363482155633,-1.1984742186665485,-0.28765554583986175,-0.6712970486363702,0.086735970160041,-2.434760264630286,10.815166833778967,-1.1280044864234398,-1.3233908247114288,-1.1081500457930458,-1.3203922100894283,-1.1632058510849044,-1.2971198921700808,-1.1910231903326776,-1.2864143789893265,-0.47555582075977776,-0.6737950310569197,-0.529182502753633,undefined,1498057947859
903d185fccf839df,-1.3140231657182782,-1.0653229623978901,-0.944024342016098,-0.9984424824704398,-1.9559807736526138,-1.6386115468072924,1.846396556689201,-1.2341397555049516,-0.2819295704609388,-0.6800114679784696,0.0875200756233763,-1.850502111149872,12.277399454099823,-1.1215236598245997,-1.3160223946799874,-1.0940057820441238,-1.3127472257373074,-1.166410320596738,-1.2911656060895602,-1.1899760958134709,-1.286309352553878,-0.4751916484786968,-0.6722518514909696,-0.5288190506613634,undefined,1498057949357
903d185fccf839df,-1.280758803429338,-1.0676710223903758,-0.8885172743447355,-0.945872685734355,-1.9277671058978918,-1.6443670992037625,1.8617704055455453,-1.140747756072369,-0.28618875938313715,-0.6776374149922167,0.08541971160959073,-1.4633411796989104,3.3865028966131905,-1.1381886614709653,-1.3181276622438147,-1.122294298942697,-1.321759377055792,-1.1746114826921805,-1.2943771423308916,-1.2012477580013132,-1.2945994206256866,-0.47521948361512406,-0.6709045026130189,-0.5281348463681669,undefined,1498057950865
903d185fccf839df,-1.2779867768329065,-1.083520485795638,-0.8553407121453084,-0.9170833156173408,-1.8885374572991482,-1.669420395062238,1.8809416864133073,-1.0522476717991998,-0.28226020875030605,-0.6805812735080714,0.08559073839612942,-0.12119444909924755,-0.21250417780748662,-1.1428178316527773,-1.3202329224454084,-1.1970567874474753,-1.3378898334388012,-1.174028851934764,-1.2956575587029722,-1.248228414950235,-1.3036227858605538,-0.4753361607852848,-0.6706240350879957,-0.527821688219444,undefined,1498057952362
903d185fccf839df,-1.2752147416101225,-1.1146322806960713,-0.8993633310722273,-0.9468183798647046,-1.8895454560010205,-1.6890861612100674,1.9077814930364536,-0.9070765335130739,-0.2807556957908897,-0.683042658427235,0.09135550019770704,-0.26676394155224864,-0.4779690285204991,-1.1502245042674462,-1.3118118595523325,-1.193015577056769,-1.3513398076902854,-1.1732309010148025,-1.2921801436911469,-1.2558352470141627,-1.3036870058907075,-0.4755880011667721,-0.6704368627478746,-0.5281022109979063,undefined,1498057955537
903d185fccf839df,-1.2960049755887686,-1.1017179507374009,-0.8789469851033491,-0.9410660283729478,-1.901487150860838,-1.6789912382831225,1.9046835814137129,-0.9121194554549569,-0.2800197550451636,-0.6827731443797768,0.09113810828036509,0.08862867612764627,-0.5737104500891266,-1.131707828396738,-1.3139171252756014,-1.158665236622683,-1.3499257692923465,-1.165314721412526,-1.2904519314596612,-1.2366949794321271,-1.2954310292512508,-0.47595143031261744,-0.6709838519763323,-0.5287553494531475,undefined,1498057956861
903d185fccf839df,-1.2849168519503378,-1.0289279740583794,-0.9210559528011099,-0.9586425869512374,-1.9362322360629427,-1.6484782031211729,1.9017566148725233,-0.8853411006727232,-0.28568721977501543,-0.6770883596414297,0.08989241243191375,-0.031228864335984433,-0.7738970588235294,-1.1520761720164017,-1.324443452051388,-1.1505828105416347,-1.360523216107737,-1.1834902697002008,-1.3008072116060798,-1.2322602271974459,-1.305334348703038,-0.4768682971418744,-0.6732897433120795,-0.529924155522718,undefined,1498057958370
903d185fccf839df,-1.2863028652485535,-1.026579914065894,-0.9076578528275082,-0.9548850735524174,-1.93732251998503,-1.6542081308958196,1.9044916083796717,-0.8733699307972679,-0.28824644300156965,-0.6764421674542095,0.0883646802502788,0.1948073812396768,-0.26037488859180036,-1.150224505886293,-1.32549608767386,-1.1445209905392122,-1.359208322619872,-1.1842502229082679,-1.303773859436142,-1.2061906588010989,-1.3010146106800087,-0.47685947979646043,-0.674080414866935,-0.5302582355126961,undefined,1498057959861
903d185fccf839df,-1.307093090600847,-1.0500606309027187,-0.929349966282492,-0.9749139356727632,-1.932951097247291,-1.6721362869727634,1.9018065753769628,-0.9177023049947223,-0.29532609113578867,-0.6822581585788728,0.09145939450984615,1.7723848036965264,2.2114945409982174,-1.1511503413796176,-1.3276013543174083,-1.1323973399350966,-1.355781033760013,-1.184224891072655,-1.303864818087646,-1.157331391063474,-1.290766152576214,-0.47643048382670483,-0.6689705234571625,-0.5280278599134347,undefined,1498057961367
903d185fccf839df,-0.9799936502995943,-0.8909793325878841,-0.891707201333898,-0.9326788927714462,-1.6980052046743785,-1.7525206623111351,1.9106663848172687,-0.9440669754514539,-0.3468706455318624,-0.6733568799409415,0.09142372107611402,2.170841117548597,16.30289104278075,-1.136336992103163,-1.3233908201100326,-0.883862555547079,-1.2685698874816396,-1.1708433812484256,-1.2949019032873348,-0.8742771664121165,-1.215150479454323,-0.47598264208355695,-0.6594216020085649,-0.49775148513602563,undefined,1498057962854
903d185fccf839df,-0.9744495539749691,-0.8804130626216992,-0.9057436933244513,-0.927572277610535,-1.65955726967072,-1.8081265905917057,1.8993818850607413,-1.0841710337478232,-0.32200047947869176,-0.6636239045679052,0.09173091884297976,2.3634261155457357,14.753620766488416,-1.1307819872374496,-1.3191802923446116,-0.14634069029315297,-0.9636760305953698,-1.1656883649953687,-1.2784454043194873,-0.5928089832706659,-1.1412439250555824,-0.4740193187259324,-0.6536216651184508,-0.48185966592369384,undefined,1498057964359
903d185fccf839df,-0.9647474781401637,-1.0412552890189286,-0.8987254473291746,-0.9492037539426511,-1.6064110740312023,-1.8949932372404543,1.9055698078968524,-1.1347789807043545,-0.2671523675828415,-0.6658756603931526,0.09246569846904673,1.6214436590589862,1.9373259246880572,-1.1187461590105898,-1.2749697066342878,-0.09178425197536204,-0.9746118199349004,-1.1566385885911088,-1.2509199503856927,-0.41415621974134204,-1.089119056189139,-0.4732335258032822,-0.6604359971463678,-0.47934597411370294,undefined,1498057965874
903d185fccf839df,-1.0437502706438713,-0.9731615492368477,-0.878947493377248,-0.9074927563801133,-1.6530052818235192,-1.9267244629807552,1.9145190379875747,-1.1008983055463282,-0.2806729390857869,-0.656520635304112,0.07928241130156191,0.4051917345763974,1.4977857620320856,-1.0789352918855422,-1.2307591319673146,-0.20089715687566542,-1.0163656700030133,-1.1127766207700787,-1.2013825293543499,-0.18715233721450766,-1.008145840830843,-0.45665124954816677,-0.6498563841434172,-0.4867465623427197,undefined,1498057968868
903d185fccf839df,-1.0104859514866933,-0.8228855343498185,-0.8866036231155773,-0.9085596717853879,-1.6239687569793744,-1.8908518487196428,1.9191290955058466,-1.0279072398430165,-0.28758900671433196,-0.6620595845305615,0.07879807401892841,0.31795048937669296,1.07565313057041,-1.0807869628721913,-1.240232828642304,-0.28778327831910855,-1.0153402637403361,-1.1100344562075979,-1.1925945347709024,-0.17032183634171652,-1.0026621752469957,-0.4581668873644125,-0.6526311839464899,-0.5007678397272415,undefined,1498057970358
903d185fccf839df,-1.1532454592245547,-0.9391146208898226,-0.8362001336625355,-0.8836545098340217,-1.655597275034577,-1.8536515703232748,1.923115896412126,-0.9710797443112423,-0.3068002207886897,-0.6605756233966503,0.0760973604768632,0.1305591265901638,0.38370376559714797,-1.1048586419897661,-1.247601252231791,-0.18473230824665893,-0.9747122348945497,-1.121775733696896,-1.1949174761043002,-0.4112921096287598,-1.0649205960945156,-0.45585417565439307,-0.641546005901051,-0.49139940152294714,undefined,1498057971909
903d185fccf839df,-0.942571230863302,-0.9972291641598247,-0.8598064066205763,-0.9057738129813958,-1.5622545742944447,-1.8049401901493098,1.9104796787228064,-1.0022842933052991,-0.2889537178334225,-0.6679116646832843,0.07935055310103685,0.0920138900206772,-0.6041736296791445,-1.086341964500211,-1.2391801967009488,-0.4635761237515304,-1.0522828750581776,-1.1062410228894737,-1.1930423307404143,-0.6306275648694141,-1.113043277702669,-0.4563645046723594,-0.6351625997469251,-0.47585460745090347,undefined,1498057973371
903d185fccf839df,-0.8774285713417519,-1.040668332476792,-0.8502366256530888,-0.896793637320945,-1.4194068163928626,-1.8221742305989979,1.9223190675339241,-0.934092773555304,-0.27542139376717356,-0.6648665660217291,0.07996721528485942,0.025874246426548852,-0.7390819964349377,-1.09930364359944,-1.2486538878542632,-0.9040686587304194,-1.2139428030201418,-1.11182667923508,-1.21874161683965,-0.8770796845603255,-1.178564358377744,-0.45511315562210325,-0.6225976847378673,-0.4787724374328888,undefined,1498057974859
903d185fccf839df,-1.011871964784909,-1.060626842412919,-0.8483224661500317,-0.9010485595593084,-1.3600789166111675,-1.809917772996529,1.9249304618495637,-0.8977486567034081,-0.2844034691268069,-0.6696045050332305,0.07920551421315175,0.11243765859676012,-0.7826008244206774,-1.1178203146136079,-1.262338112294674,-1.0111608621586619,-1.2996681595249626,-1.1477534686172643,-1.253725671015056,-1.0270297456700728,-1.2375021634353045,-0.4704347547808905,-0.6558218168911225,-0.4986713283154028,undefined,1498057976361
903d185fccf839df,-1.0326621642581453,-0.9966421491617032,-0.7621908795253519,-0.8271073267977952,-1.589079674617408,-1.7796120426777726,1.9034423141788719,-0.9956689807456844,-0.3028562126639337,-0.6333593794565365,0.052677790144590536,0.06936481644274432,-0.3517644273618538,-1.095600309720376,-1.225495966738863,-0.9667074930979921,-1.1882272497715654,-1.1200278409152726,-1.2204348450167524,-0.95538077929121,-1.1951686458817685,-0.467351581027097,-0.6522059472478808,-0.4859523051583534,undefined,1498057977869
903d185fccf839df,-1.0021698889501036,-0.6649783244872113,-0.6301225144706961,-0.6959448746746819,-1.5601254368679662,-1.7062153862578255,1.885843651592283,-0.9444420659361678,-0.3014761090599679,-0.6257654095569458,-0.0057222420455236315,0.12041231558242249,0.11823891488413549,-1.024311095719625,-1.1770748495820011,-0.6737193608478459,-1.0246566801948502,-1.019055386225315,-1.185282866854239,-0.7466856480096034,-1.0919330342831404,-0.45596659119110966,-0.5683459832662232,-0.47300151546216035,undefined,1498057979359
903d185fccf839df,-0.6944746434502239,-0.5857312997408239,-0.11843758948873569,-0.19709026416537528,-1.3420480877102132,-1.6540870127198108,1.8695730381835525,-0.907907635480908,-0.30595983014801853,-0.5500747746187468,-0.03456987192070935,0.1725046908684775,-0.9392686051693405,-0.954873565656298,-1.1023379283695824,-0.09178425197536204,-0.7810275686916441,-0.9465748460479576,-1.1269644480564422,-0.4272910926973512,-0.9766819446454799,-0.4458788590460239,-0.49927713790542533,-0.41601079238385846,undefined,1498057980865
903d185fccf839df,-0.4976604790603092,-0.4753723631820338,0.5833753197392516,0.5976931902572332,-0.8708191621214321,-1.6318683988851612,1.855527245313958,-0.8468418832421022,-0.49274949267377166,-0.38076549676081406,-0.08869575380027901,0.0848199213373366,-0.9262129567736186,-0.731747594622349,-1.0623378667435626,0.029452183403990438,-0.782588511056296,-0.8182884062075685,-1.0646018725352235,-0.08355159642690176,-0.8352248004239236,-0.4435520808183837,-0.47335116978665154,-0.44921898180059233,undefined,1498057982380
903d185fccf839df,-0.4727122741978354,-0.47243722973544217,0.7747783090605357,0.7258334164021445,-0.7859621613420112,-1.6783949520448804,1.8359115187569048,-1.0357418254278543,-0.4380393247379381,-0.3884687181247571,-0.07348772842270826,0.02523390030588336,-0.7826008244206774,-0.6928625702754365,-1.0981273932419275,0.01732853986605519,-0.9008185160987863,-0.7240035411593436,-1.0438983092979452,0.0017403930212401095,-0.7638327013447246,-0.4677831848139256,-0.5457962460645386,-0.5040160010581343,undefined,1498057983864
903d185fccf839df,-0.33965479053666475,-0.5581415363731341,0.3811255112796274,0.1916411241707123,-0.6029693254166394,-1.6581468744698462,1.8451368776875487,-0.9128760385409171,-0.3097393089112504,-0.6055850228660382,-0.05151025191502482,-0.027654992853856974,-0.7913045900178254,-0.5928724956433711,-1.087601070147258,-0.043289720220703355,-0.8800295172919568,-0.679729931451153,-1.040294951733159,-0.03577022034169788,-0.7506674480740093,-0.47247556982245636,-0.5464208122531297,-0.49736110446925963,undefined,1498057985373
903d185fccf839df,-0.4879584204782087,-0.5516843713937988,-0.3761939573458235,-0.5808434025496704,-0.7479153707154241,-1.563137205489531,1.8496601495964773,-0.7676929613618376,-0.37496853880888464,-0.7455016471741807,-0.03520407676994507,-0.04801635639527655,-0.6868594028520499,-0.6252766869160563,-1.0644431416696238,-0.004898130531918921,-0.8025254698334258,-0.7255994429051429,-1.0658053243057481,-0.18746030683693568,-0.8129101446833357,-0.43992569300193396,-0.49259782897255655,-0.4528998065940751,undefined,1498057986917
903d185fccf839df,-0.6445780611982276,-0.3697095466082147,-0.6779734524037292,-0.7639760272849547,-0.8148958293177979,-1.5181595962370844,1.8315697174285124,-0.8242240392347817,-0.4214806210554176,-0.6731681030070903,-0.05549071251636093,-0.09740227547908963,-0.6650999888591801,-0.6956400905156082,-1.0539168112127206,0.06380246907517825,-0.7324939068685755,-0.7852621051625093,-1.0514758563398923,0.1250511400087113,-0.7557421714638711,-0.422921957351318,-0.548931988732075,0.011616689381800249,undefined,1498057988372
903d185fccf839df,0.2494014823024052,-0.3133560483325768,-0.508900206143532,-0.6529113217765136,0.5044505318631003,-1.3373221238950266,1.9801669023788058,1.9205500687784627,0.6583660644754108,-0.9558324847988546,0.019119114306407618,-0.15054745217730708,-0.5388953877005348,-0.38548568833419267,-0.8507586753592189,0.7487886681451782,-0.11596363762387439,0.23842025395385552,0.17110488870558874,1.145783293609951,0.3542147907640154,25.161812559910846,6.17067908876186,11.678470460741277,undefined,1498057989857
903d185fccf839df,0.5252184046906178,-0.4513046898030722,-0.32260104917751814,-0.3583411461833095,0.3316816798622442,-1.4197981558725425,2.0150696853739682,1.9382859985579661,1.0194929115648144,-1.0273737432592869,0.08115158023571606,-0.22470047091247092,-0.38657948975044565,-0.6067600320903567,-0.7770743732042463,0.17089471490050295,-0.13779816188783267,0.17576211005131262,0.17725508580262642,1.008074996199208,0.29645059329058976,25.29722458096028,6.434071781937068,11.92734307206642,undefined,1498057991370
903d185fccf839df,-0.3438128994421315,-0.29457156839269244,-0.4629639359874549,-0.48212081368662457,-0.12778040861660736,-1.5091105049250257,1.974736352465007,1.3398337195400873,1.5094622957188217,-1.4155277777535429,0.18307768207517117,-0.2354538856256091,0.1835171568627451,-0.6363867160736447,-0.6297057615320673,1.9813593583059963,0.2439854045365949,0.15307750481890486,0.21217616853333274,1.4847800719946727,0.402197077754659,25.27914596513803,5.919161494686948,11.162735475181169,undefined,1498057992863
903d185fccf839df,-0.6196298218303441,-0.38673292309775026,-0.6996655658587129,-0.7309099649974518,-1.3123841380974381,-1.8350758853378548,1.9008256592087838,-0.9732728891723181,-0.44767852459400476,-0.6028606328272232,0.04623983331471704,-0.2969302602327979,0.1356464460784314,-0.6187958344156672,-0.6833900439173807,2.539047130639347,0.2478017238644788,0.18852932318720833,0.2537162351118913,2.224721573111737,0.5996628173683562,25.105206902284813,4.937704875131616,9.822516355704412,undefined,1498057994354
903d185fccf839df,-0.5905235253151084,-0.45541379478992194,-0.8298202796842106,-0.9039935262513711,-1.3843017327586626,-1.872227252773559,1.9105401626311878,-0.9830619114977107,-0.4549204573359683,-0.6141616973827989,0.059873646187403914,-0.28962308091719763,0.21398033645276296,-0.621573380557388,-0.6960216419381114,1.890431890447874,0.1685275548768847,0.1437237464260469,0.19012222161654202,1.769913091223841,0.45491667295488053,25.33366439673857,5.558438220994919,10.318785296580936,undefined,1498057995865
903d185fccf839df,-0.9009908319168294,-0.7072434628079358,-0.9146760988227849,-0.9840857547974735,-1.6195767664865064,-1.7646955956054795,1.8882025816328474,-1.0387764099637071,-0.5235832978809071,-0.627146236513863,0.062068923943786845,-0.21610075993533795,0.31407364081996436,-0.9095076952843838,-1.031811520198117,1.019550031070825,-0.19918760311968295,-0.974553792560085,-1.0469209323368343,0.4434140081188647,-0.7586053423182969,-0.37620691395443184,-0.5057012904331438,-0.2565514804737099,undefined,1498057997361
903d185fccf839df,-1.2558105640614545,-1.0248188690715299,-0.935729820260817,-1.0170966554537424,-1.896138588368826,-1.6403677954127898,1.8729444483189905,-1.0574465305351957,-0.29186324124673174,-0.6729322546789365,0.08352441723372975,-0.2578560641153902,-0.5911179812834225,-1.0215336013810026,-1.1244432046597181,1.173116248502355,-0.26071634895780443,-1.0385101907469931,-1.1283218298191802,0.30433524882108015,-0.8439327423901988,-0.4318890698205504,-0.41889375341373586,-0.1203978929265453,undefined,1498057998890
903d185fccf839df,-1.1393853089896924,-0.9766835807695914,-0.9229701123041669,-0.985745454108243,-1.6614601242990128,-1.6814975007234985,1.8748720979241693,-1.0714440035604629,-0.3673275225458595,-0.67825557645752,0.08383543143096185,-0.1855808005927361,-0.20815229500891266,-1.0743061233225768,-1.1402327132289825,1.524701911102477,-0.26999733358298766,-1.0767801689243928,-1.1528946295507827,0.3768157369620618,-0.8469680793563168,-0.43857399885650633,-0.4219177732966965,-0.12494444947997595,undefined,1498058000365
903d185fccf839df,-0.9841516643151843,-0.8892183460495047,-0.9223317202872153,-0.9939878940672764,-1.5210912177812839,-1.7548405837077476,1.8886102121686916,-1.0705377345888605,-0.35370649368601187,-0.6758961479132265,0.08161278522288937,-0.25337755759633906,0.3401849376114082,-1.1076361492791633,-1.2307591282861976,-0.25343293611847767,-0.9967315452086585,-1.1278426934630041,-1.2114229529379135,-0.13125597638080463,-0.9978493185142058,-0.4542181491891328,-0.539760241231464,-0.3099225820781382,undefined,1498058001908
903d185fccf839df,-1.0728566189172217,-1.0207098225406648,-0.9427480662560936,-1.01222997348606,-1.3616423420948933,-1.8014486594341579,1.8931229486271768,-1.092264168826018,-0.31597487022942894,-0.6824170359695957,0.0857265634271745,-0.2302312611984626,0.47074142156862747,-1.131707828396738,-1.2918118361015565,-0.5686477670313195,-1.126415196575317,-1.1563029423934972,-1.2523822836203529,-0.6615322414606846,-1.1455814080564455,-0.4710793494222168,-0.640816143809763,-0.4839364605109317,undefined,1498058003365
903d185fccf839df,-1.142157318333419,-1.0371462424880635,-0.9746488609694153,-1.0293949639566586,-1.544954036046827,-1.8070341756774828,1.8991031227510295,-1.0883531062496352,-0.3030108336942047,-0.6798293892220159,0.08827828891666496,-0.27361734429314083,-0.3125974821746881,-1.126152820293331,-1.2623381196569077,-0.40295793432657573,-1.051813507811035,-1.1545677161359449,-1.2367723984199106,-0.6066983771456843,-1.126828739705053,-0.469743541913845,-0.6400992239022523,-0.48547593524492394,undefined,1498058005051
903d185fccf839df,-1.093646818390458,-0.9749225942312119,-0.9791150637185821,-1.0286041955001577,-1.662457837990025,-1.7734651807057586,1.899155720915346,-1.05679932863929,-0.30699706480257677,-0.6771376680282261,0.08881401500097158,-0.19202968386426314,-0.09935522504456328,-1.1280044912799803,-1.261285485874994,-0.4090197631617237,-1.05214332609289,-1.158190159902803,-1.2395151482407487,-0.5965815987297955,-1.1268327411022931,-0.46903366578852485,-0.638398872171669,-0.48441093511133476,undefined,1498058006361
903d185fccf839df,-1.2516525155404548,-1.0142526575613295,-0.9765625121985735,-1.0250846768354192,-1.847312385725528,-1.6996748835307374,1.8869113580836543,-1.0490775948655113,-0.30522233472584376,-0.6759548300928586,0.08744653078694481,-0.27940744815704094,-0.012317569073083769,-1.13633699857855,-1.2665486511034456,-0.5383386369879403,-1.0863009106978079,-1.162078587315185,-1.240333775107203,-0.5915309103465893,-1.128735534902443,-0.46864574177413115,-0.6403193795995756,-0.4922701683491906,undefined,1498058007884
903d185fccf839df,-1.3029350507061999,-0.9514419943063563,-0.9689063824602442,-1.0355798405143422,-1.932992241763895,-1.6299537665594226,1.8731863965227766,-1.039332698593388,-0.2866868389265023,-0.6748557779577657,0.08485782819318823,-0.3728545244209156,0.2705548128342246,-1.146521170388382,-1.2949697337661807,-0.8272855641470152,-1.2283270778625939,-1.176891342576605,-1.2609813639125214,-0.8962045543969549,-1.2131963721114445,-0.4712576250486099,-0.6703782746679754,-0.5027243938859701,undefined,1498058009357
903d185fccf839df,-1.3029350420798473,-0.9954681776214451,-0.944024342016098,-1.0116528342822242,-1.936170522072762,-1.605380293281259,1.8645843004892553,-1.0549624338545338,-0.28736356114010453,-0.6756959477550973,0.08081420751601036,-0.3329741166812114,1.43685940285205,-1.1354111590381086,-1.2949697356067391,-0.9505426303366248,-1.2592336382698515,-1.1632438492120485,-1.2630734103340626,-0.969254780199942,-1.2242913868182832,-0.4724285563799362,-0.6738982151418242,-0.5124342172530187,undefined,1498058010860
903d185fccf839df,-1.2932329403659846,-0.9678784727097399,-0.9191417932980529,-0.9908849539769764,-1.8819031837776146,-1.6112010619929107,1.863666484938899,-1.067912367453373,-0.2898046685687149,-0.6661537915276847,0.08069341986425654,-0.42038049835035246,0.7797251002673797,-1.1317078219213508,-1.3107592294515356,-1.112191250884117,-1.3279002901065056,-1.1644977718110223,-1.2793270022330319,-1.1670786081214204,-1.2743416406604637,-0.47592818686149,-0.6753301344874137,-0.5252078134968408,undefined,1498058012384
903d185fccf839df,-1.2280902722180822,-0.9866628941936396,-0.914675590548886,-0.9784264874831013,-1.8940917341920496,-1.6345796357865272,1.8647473430663923,-1.099819527630396,-0.28770732010600286,-0.6667914572773329,0.07996300783927779,-0.20238921017712144,-0.12546652183600712,-1.1243011590197627,-1.3118118613928909,-1.1465416001509283,-1.3398914854929946,-1.1587537918181143,-1.2825665255955288,-1.2272557321043072,-1.2851292572684383,-0.47700292500176167,-0.6731601393391807,-0.5267439424628643,undefined,1498058013874
903d185fccf839df,-1.2474944583931027,-0.987249909191761,-0.9140377068058333,-0.973399551566795,-1.8953671607008393,-1.63513865335103,1.8690602291269462,-1.0724789980897147,-0.28892125157863585,-0.6664378510625201,0.08051390436134745,-0.16617991069583588,-0.17333723262032086,-1.1233753259547083,-1.3149697562966776,-1.1627064487799348,-1.348956535671347,-1.155644316306415,-1.285505186127031,-1.2461650230046486,-1.2886841259603379,-0.47458587699281174,-0.6677392044079746,-0.5268257362138773,undefined,1498058015892
903d185fccf839df,-1.1407713309142606,-0.9825537892067899,-0.9102093877997192,-0.9680810625123549,-1.740587990899765,-1.6639606590060574,1.8761501876451097,-1.0513411593280573,-0.3318400340979193,-0.6573388899191656,0.07963902809871999,-0.08696972074220524,-0.5824142156862745,-1.1094878121715783,-1.2949697356067391,-1.144520987006122,-1.3243436067836172,-1.1282986659835899,-1.2573780063538522,-1.1779345112456154,-1.2522729413397138,-0.4556420574099443,-0.6568662500750164,-0.5068101167317967,undefined,1498058016859
903d185fccf839df,-1.0368202214054976,-0.9813797007545625,-0.9114856635597235,-0.970799359268816,-1.7009983433627942,-1.6652557147517733,1.8807313105163903,-1.0191430701582427,-0.34196452381082026,-0.6553431486079518,0.07726583015403432,0.03204229736976769,-0.6520443404634582,-1.0807869628721913,-1.2654960210026487,-1.091985172432408,-1.2766638139049802,-1.1057597191866018,-1.23824872547207,-1.132093339219332,-1.225920339805389,-0.4532480061966662,-0.6510358804929968,-0.5071669445630916,undefined,1498058018358
903d185fccf839df,-1.0160299874268515,-0.9402886508860654,-0.9197801853150044,-0.9671757315036534,-1.6114922078100606,-1.6542896548850134,1.8741147103365519,-1.0361358304062065,-0.336495115107405,-0.6505944575183679,0.06905354554768045,-0.287210646542842,-0.4649133801247772,-1.0724544604301618,-1.2549696905457455,-1.001057837065168,-1.2498517668055529,-1.1020359481492685,-1.2258573734889966,-1.0843119624744746,-1.2110879416333467,-0.45178038767319273,-0.6511972925191133,-0.5050396618115066,undefined,1498058019930
903d185fccf839df,-1.1504734153754184,-0.9608341758203139,-0.8444941471439177,-0.9247375889155922,-1.7252931610819993,-1.5982248657650087,1.845910038334578,-1.1382564310853898,-0.3074689812706244,-0.6564200266552538,0.05796556229532812,-0.39288815039352964,1.1975058489304813,-1.0437536078930814,-1.2339170259508219,-0.8980068298952714,-1.2069312944681152,-1.0757985628204971,-1.2111710673303928,-1.0382860091432229,-1.185247763020154,-0.45236526978202024,-0.6512786411278135,-0.5084308302826936,undefined,1498058021361
903d185fccf839df,-1.0437503051492811,-0.807036129400541,-0.7806930659911732,-0.8586105255780482,-1.6921115012856,-1.6401767940395247,1.8295368641620482,-1.2934313013538061,-0.3349623525478836,-0.6496498946949965,0.046248158648740184,-0.3488835278854887,1.6892686051693406,-0.98264857703409,-1.2054959432880867,-0.8919450222586646,-1.2132981339749669,-1.0392828090340618,-1.1923356524687292,-0.9604160706559748,-1.1487523770338646,-0.45707730153548426,-0.6609575926873656,-0.5172891351048317,undefined,1498058022862
903d185fccf839df,-0.7637753601191262,-0.5593155663693768,-0.5025203521652071,-0.5928680060497662,-1.4501610516981858,-1.609684725496641,1.8540256202035637,-0.9600099604347596,-0.4305962106038878,-0.43297024519048594,0.08242613426439312,-0.2835638454053448,-0.4213945521390374,-0.9298760486171284,-1.2086538372715943,-0.7565642842663981,-1.140148533064305,-0.91795627284452,-1.188025617078803,-0.6630720879034988,-1.0284828990475066,-0.4490212366917534,-0.5205642221956683,-0.5046388206003976,undefined,1498058024357
903d185fccf839df,-0.5059765588496037,-0.5346609364482786,0.492777530365405,0.5151019763957161,-1.0604154196945812,-1.7025351897922205,1.8683238721106246,-0.8435288862728837,-0.4311088092339885,-0.5298155898531255,-0.05022014878065922,-0.09225443449321516,-0.852230949197861,-0.8141468199733732,-1.181285384709656,-0.5848126015279652,-0.8961611308375673,-0.7719439227763176,-1.1437428011993567,-0.5176183712755147,-0.9152579225313385,-0.38607477959726333,-0.42617447823366505,-0.47969968005074,undefined,1498058025856
903d185fccf839df,-0.19135126411135006,-0.33918470824991787,2.3328022356322533,2.358437106696569,-0.6842469080118153,-1.7374271927266696,1.8762501055114236,-0.6706509703620892,-0.46862047776010773,-0.3430450219639685,-0.1309976197158701,-0.02537787324045673,-0.8739903631907309,-0.438258255603478,-1.1465484956743217,-0.21302075801651837,-0.5923879117557084,-0.5433309890768785,-1.0966542638953292,-0.32735518141439396,-0.7417400831829594,-0.41074852650421917,-0.4369463874674737,-0.505520637592238,undefined,1498058027365
903d185fccf839df,-0.21352751138821185,-0.5481622521770781,2.4412643277288684,2.38694627763484,-0.5680493874739508,-1.8002421156566857,1.8787773492587918,-0.7367501420503931,-0.33676413361824525,-0.7162082415900377,-0.18036882085550407,-0.009957007693321565,-0.8609347147950089,-0.22346481615080124,-1.0781273697911515,-0.0008569395732084517,-0.5398147253315362,-0.43878042288680447,-1.0657843342095563,-0.19996384424314953,-0.6551247799317836,-0.42392565682134803,-0.4845411662858173,-0.5154105812028811,undefined,1498058028881
903d185fccf839df,-0.0527497962681359,-0.5804481063017468,2.2217886085634273,2.2315794120277537,-0.6465498289219728,-1.836554953740259,1.92028884197588,-0.5486262894175108,-0.3729917574270648,-0.7686420514656669,-0.16996210655441316,0.0627236642725871,-0.9001016599821747,-0.08181218398087717,-0.9970746311627828,-0.05339270468365991,-0.6964535609849098,-0.32749160399834215,-1.0202700798543805,-0.004157210776949241,-0.549879778770161,-0.46059374441855994,-0.6070614075754819,-0.5374883089772508,undefined,1498058030366
903d185fccf839df,-0.1123485061130522,-0.5141153822860377,2.1662812867551158,2.0596891126336048,-0.561898542147338,-1.8129085167874017,1.8256237124180559,-1.0985152353219165,-0.4816282769176661,-0.8001236039604407,-0.10814144265411504,-0.03340590836232908,-0.8913978943850268,-0.21513230075799716,-0.9865483007058795,0.03147277181716529,-0.7790036788303772,-0.2750484985740957,-0.9836977493836375,0.00537442807167397,-0.5133596510845584,-0.49129143986955853,-0.6205012676905356,-0.5446700373875523,undefined,1498058031885
903d185fccf839df,-0.2966883782919765,-0.517637472274766,1.6699083671128643,1.5991566248183549,-0.5900402130375759,-1.862621470431195,1.8725026292905975,-0.8913888709613119,-0.47858845017528334,-0.8007481491271595,-0.09132808621072591,-0.005721848154388378,-0.8783422459893049,-0.24290730889809564,-0.9854956779673165,-0.09986674695166912,-0.8077071676230286,-0.3145850669984837,-0.9638198094933688,-0.1444832451790185,-0.5529275392058591,-0.5233786373215984,-0.6245244329757184,-0.5355602622429307,undefined,1498058033364
903d185fccf839df,-0.3992534313707616,-0.5992326154696236,1.451708669570478,1.2404537084887237,-0.47670211810288166,-1.8876654506873476,1.871221928621585,-0.9343695074868199,-0.4532604459906398,-0.689082307707071,0.02777632414519595,0.01924300015112109,-0.7173225824420678,-0.4808465668828969,-0.9676008999936665,-0.07764002002425195,-0.8816347956824709,-0.4237523501702697,-0.9581663862805453,-0.14035646083012746,-0.6139572604533668,-0.5154086375590985,-0.70014140727514,-0.4950683926817219,undefined,1498058034919
903d185fccf839df,-0.4519220747245991,-0.6109729154320513,1.4019440804082868,1.1888680858073337,-0.5957590661344083,-1.9007627633516373,1.9154053016577373,-0.759199424733928,-0.3897601960894493,-0.6154585958868308,0.07038847339018287,-0.006515705105341376,-0.6607481060606061,-0.5058441130613092,-0.9697061896441953,-0.08572245847111595,-0.8470164581568982,-0.47256034664345953,-0.950162034686563,-0.1997790608649854,-0.6518404504157487,-0.5113137100920232,-0.6522724022577908,-0.4739244160988555,undefined,1498058036411
903d185fccf839df,-0.4408339683388731,-0.632692499590535,1.419808383131055,1.3161074603635152,-0.5385088738856326,-1.8840364950717174,1.8744250370967188,-0.9899384196867878,-0.3677353046821454,-0.7023439164860996,0.1037974444192673,0.05788216048884031,-0.517135973707665,-0.5965758797066866,-0.9697061896441953,-0.12209340321728247,-0.8889636161227852,-0.51464908928805,-0.9472093802213375,-0.1633925318118076,-0.668394264543141,-0.5026913482616887,-0.6569814234461716,-0.46539212440577105,undefined,1498058037865
903d185fccf839df,-0.3853932983886041,-0.6268223788373134,1.1971422287025526,1.1436072268388573,-0.5862756491318118,-1.8993186333132528,1.8433801778777688,-1.2378365945236836,-0.35597076719060716,-0.7813331664222412,0.12138360944987694,0.07377152435205103,-0.8217677696078431,-0.5725041714498691,-0.9476008691806567,-0.1382583225080928,-0.9033164689941351,-0.5495056108344087,-0.9640157190173227,-0.23724347790883593,-0.704841984158591,-0.48266954031868886,-0.6127646920544731,-0.45937860138411507,undefined,1498058039371
903d185fccf839df,-0.4380618727316221,-0.6731965929168954,0.8851545606602079,0.8989725207833011,-0.6776126360646914,-1.9322237949710734,1.9243466507182432,-0.7783004745344879,-0.3578654239365769,-0.8740420726299297,0.12273905454936225,-0.015081236289733973,-0.9523242535650625,-0.6465708814080894,-0.961285141475587,-0.1988765543301298,-0.9465012742761987,-0.6088389595388608,-0.9830120608166522,-0.3181161131369488,-0.75545905789049,-0.48447222721780964,-0.6186693456159588,-0.44949562361800055,undefined,1498058040862
903d185fccf839df,-0.4740983565068706,-0.5968845847051303,0.8979145227538073,0.8852887732684965,-0.7289794075669316,-1.915723463552627,1.8952925569113597,-0.9599623776707004,-0.4018148677127117,-0.9917396642563995,0.13237380526370582,-0.02802409284417751,-0.9784355503565063,-0.6373125280936904,-0.9676008999936665,-0.16048500703842766,-0.9433903247027885,-0.6145956047713335,-0.9890013309637901,-0.27667889516207234,-0.7523959983929185,-0.48448563656031285,-0.6231174101440369,-0.4492390714636221,undefined,1498058042871
903d185fccf839df,-0.43667585943340637,-0.7066564478098144,0.8583581065760552,0.9031572817406198,-0.9074979615495978,-1.9362463903414955,1.9300743699947167,-0.8098686680405737,-0.4012189743709887,-0.7561723690117108,0.1031351168473922,-0.08352134460570285,-0.7216744652406417,-0.6660133741553838,-0.968653574267866,-0.17867042994824825,-0.971861734043585,-0.6507187158393772,-0.9785830800210803,-0.2787576855665672,-0.7651806647943327,-0.4951774368634991,-0.5990417524326127,-0.47441738703157854,undefined,1498058043862
903d185fccf839df,-0.6958606912538494,-0.7606619007069629,0.80221315516164,0.7824254823184028,-1.1640129570812072,-1.9682990513502736,1.91437704745593,-1.0065560035102514,-0.36505243834968387,-0.557803272241155,0.09168710795266424,-0.06608501238430439,-0.5780623328877006,-0.634535014328906,-0.9802325127388648,-0.34233967423981715,-0.9503328059806828,-0.6528402518882536,-0.98105295492119,-0.3402744751917934,-0.7702602314305353,-0.4977810063259762,-0.6139486438260646,-0.5013509522230629,undefined,1498058045361
903d185fccf839df,-0.7984257443326346,-0.7242669562094407,0.931729476970186,0.9716960711059839,-1.2604207961169538,-1.9812356467332322,1.8933727794324624,-1.1726686648923035,-0.3468908049307674,-0.589455500285631,0.06333222888284362,-0.059237851960379666,-0.847879066399287,-0.679900904126982,-0.9991799134510778,-0.4696379596528588,-0.9971673487077013,-0.696436236872113,-0.995494372503364,-0.4148029520268704,-0.8130904671234402,-0.4873663872301244,-0.6065045282573884,-0.49897485992449814,undefined,1498058046864
903d185fccf839df,-0.7887235822343048,-0.6338665149727816,0.9176932391165823,0.9330897123119691,-1.2408985446463332,-1.9643789419414197,1.9413299256765555,-0.8273394294410286,-0.32644335281901726,-0.6702220485622872,0.07742992479854859,0.06380909851132532,-0.7477857620320856,-0.6687908879201682,-1.0012851736526716,-0.4433700558990919,-0.9765809959380063,-0.7068855941834231,-0.9981041838656898,-0.42701392054469495,-0.8180038047705847,-0.4820687431145518,-0.6547216207451475,-0.5178304223013399,undefined,1498058048360
903d185fccf839df,-0.4006395654379114,-0.5857312412848393,0.9030191175199258,0.892433129368491,-1.1332278728809033,-1.8847259496337572,1.9669889489732422,-0.5401512455121157,-0.30686925349730393,-0.5915209052125001,0.10190712338098348,0.08358425542299355,-0.42574643493761144,-0.6539775459285241,-0.9886535756319408,-0.45549372770174873,-0.9607549378518406,-0.6947580070301441,-0.9980831940202974,-0.3896572917439185,-0.8004027711287187,-0.47657077468813125,-0.6609907026339514,-0.545831191708873,undefined,1498058049873
903d185fccf839df,-0.5004325746675602,-0.48182952816136904,0.8341139498749617,0.8332498125458384,-1.127272452165075,-1.8381784327896773,1.9681197655101317,-0.4860988822072098,-0.31746612876673747,-0.46380091351082475,0.09739918465665472,0.03071105056002559,-0.691211285650624,-0.6086116885073845,-1.0086535990827168,-0.41508152133506787,-0.9381504998829612,-0.6839286735245138,-0.9793597281448947,-0.36597448381875064,-0.7873485112130582,-0.4627553927294709,-0.6615873404319573,-0.5598385799494423,undefined,1498058051362
903d185fccf839df,-0.43528988064060037,-0.44602155481997974,1.0210512447209779,1.0735666523977963,-1.0455525900286595,-1.8434751231072326,1.871913571646372,-1.1126425641767983,-0.3505067157716203,-0.2946427174792369,0.09290035257826848,0.045409583881411815,-0.9218610739750446,-0.6132408522138093,-1.019179936901854,-0.36456631637306974,-0.9073474385934447,-0.6880450860898554,-1.0010008634218244,-0.30250209073333356,-0.7947009279038888,-0.4417848796665137,-0.642638372773651,-0.5200527387508481,undefined,1498058052915
903d185fccf839df,-0.4740983565068706,-0.5117672930655598,1.0031869419982093,1.044852162608215,-1.0835582416780853,-1.8698863668345542,1.8918133085973245,-1.0256544827424665,-0.4094957294487292,-0.3286165750705465,0.025464584725245508,-0.030949880709237397,-0.9175091911764707,-0.6354608522505009,-1.020232559640417,-0.30798936030390783,-0.9222287183701794,-0.6627576422794726,-0.9878608522589866,-0.19910152954805727,-0.7604266187038686,-0.44709873892879487,-0.6408011647012086,-0.5554973151222952,undefined,1498058054365
903d185fccf839df,-0.5018185189549564,-0.5939494951005272,0.9789420228862676,0.9257513664054434,-1.047290871577835,-1.905239559572668,1.892483901671663,-1.0586794762737455,-0.39967506076268966,-0.2979643073410262,0.01695956741705625,-0.019393282108549875,-0.8261196524064172,-0.6058341682672128,-1.014969401774199,-0.15442314287237774,-0.900519967437871,-0.646526307700757,-0.9817806235398662,-0.029102692628792556,-0.7166229283891478,-0.4460023527525098,-0.612071819608405,-0.5677577504828307,undefined,1498058055880
903d185fccf839df,-0.6126997898446751,-0.5898403608856851,0.48703505185623386,0.42723451093018133,-1.055149142394777,-1.9142397394646948,1.912070697771812,-0.9479347956674756,-0.3734761143673205,-0.32795649735178045,0.012342518029751802,0.005186194397030963,-0.6085255124777184,-0.6465708814080894,-1.0170746398890913,-0.1766498415350734,-0.9039049742279948,-0.6761644844542246,-0.9958442124049064,-0.06538143062527366,-0.7428581891917141,-0.45896126989778885,-0.5925754439587472,-0.5531475569384668,undefined,1498058057360
903d185fccf839df,-0.5877514469605624,-0.26639479002688116,-0.3092029492039165,-0.3928005650365819,-1.1163078962013069,-1.799275479327706,1.9364174465213342,-0.6429296128518914,-0.38258870729945355,-0.5399146823321392,-0.005508594196862224,-0.13385819010802957,-0.691211285650624,-0.6826783855148301,-1.0454957483196445,-0.23726801682766732,-0.8435322858834341,-0.7416471219123576,-1.0148475506113863,-0.13575232679944635,-0.80000393816468,-0.4432153607635319,-0.5486395093446435,-0.519584525141317,undefined,1498058058861
903d185fccf839df,-0.8025837842272818,-0.2798961934396577,-0.5567511440765652,-0.7228131957380117,-1.201638040256813,-1.5617000659290898,1.8430172545245675,-0.9039134474751392,-0.3486790249889095,-0.6489282746597365,-0.0001593158190239499,-0.14429315391775763,-0.3909313725490196,-0.7576709398700323,-1.0644431416696238,-0.2655565372593306,-0.7696753797162739,-0.833208822126074,-1.0694016848944972,-0.26251233027869403,-0.8866547068314129,-0.4278556203674914,-0.47537516841218175,-0.4602342898260133,undefined,1498058060360
903d185fccf839df,-0.9702914968276171,-0.7753372025900168,-0.7111500146031563,-0.8383900702071535,-1.3155727081583999,-1.4243541476648867,1.8301154251141376,-0.7896976876970861,-0.34173266153393694,-0.6908571296283802,-0.0029390640846309753,-0.2270067440814708,-0.3517644273618538,-0.782668456909202,-1.0823378938754555,-0.3989167292355045,-0.8182760809143902,-0.87895800790488,-1.1078491609615744,-0.3717181053164465,-0.9399560027547729,-0.4215321708943175,-0.4528643815551893,-0.450881419997609,undefined,1498058062440
903d185fccf839df,-0.99523980520632,-0.7236798827553347,-0.826630352695048,-0.9398516372733956,-1.4742912981047338,-1.405836696548862,1.7951889670789105,-1.047655877827699,-0.23341373214233724,-0.6915544405045504,0.05956455248835454,-0.21117258732108957,0.1356464460784314,-0.8715485023836789,-1.1539169284666009,-0.5221737530280318,-0.94768674963068,-0.9468028332273368,-1.147108266380767,-0.5729757876225069,-1.0191006410509287,-0.42994038321003064,-0.48481916137356645,-0.4605837704212509,undefined,1498058063365
903d185fccf839df,-1.0673125657243587,-0.5704689682456525,-0.8521507851561458,-0.9554656908214042,-1.5437711825738423,-1.4595233324206385,1.8027181053943073,-1.1153806986166488,-0.20640425961873665,-0.7006238756342815,0.053664253692190925,-0.2704355746609346,0.5360196635472371,-1.02894025942605,-1.20549593960697,-0.9161922952021743,-1.1206438424245124,-1.054690861471773,-1.2021941587064653,-0.9396435694451855,-1.1584733397208522,-0.4524457859904453,-0.6228540481657004,-0.49310573794802587,undefined,1498058064868
