UUID,iqrAccX,iqrAccY,iqrAccZ,iqrAccXYZ,meanAccX,meanAccY,meanAccZ,meanAccXYZ, covarianceAccXY, covarianceAccXZ, covarianceAccYZ,pressureDerivative, pressureIQR, iqrGyroX, iqrGyroY, iqrGyroZ, iqrGyroMagnitude, meanGyroX, meanGyroY, meanGyroZ, meanGyroMagnitude, covarianceGyroXY, covarianceGyroXZ, covarianceGyroYZ, class, timestamp 
903d185fccf839df,-0.25926601924015114,-0.7565528395621017,-0.619914341486257,-0.662062061896638,-1.2378848378681298,-1.3989694350485715,1.8570360251478513,-0.5465569148851314,-0.15071381464541223,-0.7963462851288532,0.049418224541478394,0.23235852846035004,-0.9240370153743316,-0.37159821016569256,-0.8160218047294692,0.2173687430361514,-0.8233483677988686,-0.5918390232664098,-0.7699897153309785,0.555690446515301,-0.5107935058135616,-0.4833401141036533,-0.6728827018760194,-0.4546835300640948,undefined,1495632091892
903d185fccf839df,-0.23639678256688637,-0.4251825223866705,-0.14555298544441475,-0.1878269633868932,-0.7333835804033696,-1.4148810753763041,1.800552818234007,-0.5966476899321514,-0.5901347009506712,-1.0451759488024208,0.04028381422059593,-0.8971504647988134,1.6979723707664884,-0.30586401560027643,-0.820232339857124,0.06986426257942435,-0.8607530938344146,-0.49103018934339343,-0.8169872060261819,0.09821346434287742,-0.5434648664794277,-0.45446629386906834,-0.8459197976921314,-0.5230104010792195,undefined,1495632093427
903d185fccf839df,1.6132397754360461,-0.2118023075176151,0.41525915323058304,0.290657822651043,0.5479892084252445,-1.3827977800694953,1.7767737200289064,0.06455784463871239,-0.4879077850961771,-1.0315302569089724,-0.019860976998928134,-0.44139526448287103,1.5217211174242424,-0.4132607612281639,-0.8170744127435646,0.3002136593885233,-0.744057413911649,-0.42235117216241413,-0.7684481027410979,0.5611317784803999,-0.421975061135084,-0.45783019796294316,-0.6595435258661158,-0.16815415891687738,undefined,1495632094915
903d185fccf839df,1.6534340575680737,0.03415723974717727,1.0427433581759615,1.008079205905421,1.2200881863348916,-1.4169215470870506,1.696232004553547,-0.16831451544316095,-0.38393384564335786,-0.8070426439202544,-0.13656062642657577,-0.2581083495298962,0.022497493315508033,-0.35122987949680334,-0.736021674115196,0.2981929579164623,-0.7070134713316787,-0.3909381989679337,-0.7641728073204386,0.4584813817377553,-0.4256500172458481,-0.4476984909883618,-0.5947419192405152,-0.2554443934277343,undefined,1495632096414
903d185fccf839df,1.2099093880741163,0.025351897863387107,1.6233339590767848,1.5722248212703216,1.9132721673665383,-1.4800066613672223,1.720573483744685,0.1161470405178569,-0.18179066053050288,0.7853991066603396,-0.15267336288327993,0.20285855267036654,0.2792585784313726,-0.38548572718651636,-0.7654954347332475,0.09815278301108761,-0.7300303463794828,-0.37990937674401815,-0.7962891536933516,0.3071238053178576,-0.4588383329566735,-0.44854503087519865,-0.6336829670234531,-0.30149871343925516,undefined,1495632097888
903d185fccf839df,1.0061654332364007,0.07231318539707511,2.249222946390633,1.996583755781747,1.6148738124380095,-1.5756405656225427,1.663412014902613,-0.7341933887699583,-0.05913440282965406,1.8066805913024648,0.20829248725010255,-0.00604146114795681,0.26620293003565065,-0.35863651811568903,-0.8023375471590064,0.08400852279525599,-0.7338137465891454,-0.3543242848922354,-0.809190290036362,0.2175188084407869,-0.46965541529748034,-0.41631485682731034,-0.6327904558576749,-0.3481036712367249,undefined,1495632099432
903d185fccf839df,1.338809176894737,0.12925372789882672,2.713695325456512,2.6959736300041115,2.109482120959554,-1.595814104664982,1.7551633201276735,-0.008728274662283047,0.031622844190367615,3.0438322622578986,0.5535070320886847,0.05345951404094281,0.1878690396613191,-0.44196156843753354,-0.8065480970111288,0.025410921783476127,-0.7369776095508677,-0.3135337941235605,-0.8220224407498766,0.20190478576792545,-0.45479757375344765,-0.4212058531694402,-0.6445358456972594,-0.33888515104756095,undefined,1495632100910
903d185fccf839df,0.6125371044565713,0.17210588121767267,1.7949589944461424,1.8205295519321654,2.259046448635759,-1.5632955935171475,1.6498501163455472,-0.5703031547256179,0.16389906080234506,2.3955504428546024,0.593319335657731,-0.28970685097765303,0.5055564839572193,-0.459552424193962,-0.8181270649310628,-0.012980568978782931,-0.6353028318710455,-0.3532540174550494,-0.8690969843832143,0.1132867332342198,-0.5078946311015563,-0.3971006666682874,-0.5599056875347279,-0.3029949254588243,undefined,1495632102413
903d185fccf839df,0.4891819209153693,0.17680200120264378,1.2303190450389292,1.1327549115077462,2.340097752101705,-1.5517775057574414,1.6908119817100162,-0.2391910780196428,-0.08287568207097969,0.7189730596802355,0.3201567430815719,-0.0010757713529028629,-0.27778241978609625,-0.4725140903424164,-0.8444428763488535,-0.08774307514901235,-0.6744237317045604,-0.3940128428630842,-0.9234272209017833,0.020849861396865906,-0.5622352187522263,-0.37387810819995515,-0.6654469501553266,-0.3610347508249159,undefined,1495632103893
903d185fccf839df,0.4919536714685229,-0.2411531451076615,0.42897619507571105,0.09074280761309718,2.589659620428349,-1.5486190581880368,1.6199965633332376,-0.4978342099271571,-0.5103389658897173,-0.8901445900719379,0.24072155061018424,0.0779319180974284,-0.24731924019607843,-0.4077057207478206,-0.8012849317826772,0.08400862172178136,-0.5691994789867518,-0.45049636878410293,-0.9066978457530926,0.20207416707928227,-0.5592648712874227,-0.3086414288670201,-0.5417753333445822,-0.17867119452296604,undefined,1495632105395
903d185fccf839df,0.32979039162055773,-0.4354552263978101,0.02192504318425166,-0.2479902629365651,2.416160485576189,-1.5523784510802683,1.6328457919605468,-0.5620164297859236,-0.6622281791413543,-1.677331582480258,0.12747902489639276,0.0450116896721143,0.03990502450980393,-0.4669591146159458,-0.7665480280228754,0.26788382080690265,-0.5691994789867518,-0.5288222167785099,-0.8995051235723965,0.35653597364715317,-0.5685804422079183,-0.3499957339188257,-0.5326947970002758,-0.10106531200917125,undefined,1495632106887
903d185fccf839df,0.947952874711339,-0.590427419725795,-0.17841085990926495,-0.2655675206392334,2.472742097076745,-1.5970136632988965,1.673534151479666,-0.36568591090485286,-0.7608323318815632,-1.5537246132008304,0.06373740713553636,0.09467363301395931,-0.7564895276292335,-0.6641617242137432,-0.7844428207209929,0.11229709975636232,-0.7027982512688189,-0.6574253045169984,-0.878962486599907,0.2954041427483306,-0.6429916785436058,-0.35137988191005703,-0.44014227579107096,-0.082556551874679,undefined,1495632108451
903d185fccf839df,1.0505179968009437,-0.40903955148234766,0.14506125687752328,0.05747226108039704,1.4486775186861733,-1.604916772383233,1.7529411435335458,-0.5004760148213524,-0.45572647158239893,-0.8484076579146012,0.06774668949386618,0.010726501145911265,-0.8739903631907309,-0.6724942137049982,-0.770758570512764,0.15472996519802185,-0.6132871883109062,-0.6899133056816792,-0.8379401847419187,0.4515135835309091,-0.6109060341733701,-0.33656595782556636,-0.41714119078446543,-0.13397066311711883,undefined,1495632109911
903d185fccf839df,0.4988838759812406,-0.5235076514839723,0.5859273629853614,0.542035779418145,0.8946384342595614,-1.6677363558275855,1.776546286658798,-0.7173005026831499,-0.3211808990384034,-0.45006858774568015,0.14645836954932084,0.0036764853806011766,-0.6999150512477719,-0.6836042299118121,-0.766548042747343,0.21130689300246222,-0.6508256676991604,-0.6981144668857187,-0.8233028561371105,0.3936000292650636,-0.6185384000604786,-0.34610496967757726,-0.4118593489980707,-0.14664636312603724,undefined,1495632111416
903d185fccf839df,0.3103860674238983,-0.524681681480215,1.463192864177972,1.3762716425775876,0.39020729449073444,-1.693660787350153,1.870503996989858,-0.4813864770339552,-0.15087704275013764,0.09840934376084141,0.1239205787271045,0.02158920831094892,-0.9088054255793226,-0.7215634292879043,-0.8391797037581681,0.23555413768125041,-0.7605157902463319,-0.6955812889109252,-0.8515419853063934,0.16916768956443715,-0.6593145684755876,-0.3859823977297544,-0.5330083134976558,-0.35350894985839787,undefined,1495632112888
903d185fccf839df,0.44621550867068094,-0.46069695900100677,1.697342959077019,1.7577308291942226,0.823338007195358,-1.8068035809192595,1.8871322615746005,-0.34405835744942964,-0.2975916554789575,0.4038693847238292,0.19036951199482677,-0.052490450078205055,-0.7826008244206774,-0.7298959317299338,-0.9065482069027753,0.001163634707605631,-0.778558625793409,-0.6803758911913371,-0.8834614357733962,0.016291921962096598,-0.6870467043702224,-0.4050771996436887,-0.6511445256698933,-0.48812204859304353,undefined,1495632114390
903d185fccf839df,0.5848168384922562,-0.4577618547824075,1.9129911216471944,2.166494295166434,1.0147239805783796,-1.8049378593077379,1.8444794430582252,-0.5264187255930601,-0.151648220031704,1.2326552882175863,0.22444487010397318,-0.13682336989186003,-0.5519510360962567,-0.630831688544076,-0.9244429627897239,0.02136973082476566,-0.7601579394848413,-0.6398513845609493,-0.9212162278083648,-0.037618035572277206,-0.6818949628710911,-0.3969022751023134,-0.6992430400758337,-0.5235023979549521,undefined,1495632115885
903d185fccf839df,0.7303485108481881,-0.27050395346971556,1.5914334185004126,1.4648146569948526,1.0666255918023164,-1.7722632918559016,1.8431671700823442,-0.46841687588554215,-0.04143979056665346,1.1895421990773418,0.2342480039247614,-0.12002189883395505,-0.2908380681818182,-0.6002791731145803,-0.927600867816582,0.013287292377901647,-0.7592688296089404,-0.6217898293148341,-0.9457050643841719,-0.12623608915604298,-0.7019532161047836,-0.3809252895862289,-0.67215221985781,-0.45594287449474513,undefined,1495632117383
903d185fccf839df,0.33949220866479013,-0.23586995166858432,0.9559736336712795,0.9616441383697119,1.198179643132737,-1.6955544565949625,1.8239827349596547,-0.3456328041941298,-0.05044966212055084,0.1956249152937126,0.16572838784432647,0.07168218547076302,-0.4126907865418895,-0.542877487466581,-0.9033903166003848,0.2941518658842772,-0.702518239344109,-0.5573964592599358,-0.9102452267204796,0.10189188130191291,-0.6207377516406636,-0.3540041765314582,-0.6553325365172665,-0.4342949739032072,undefined,1495632118923
903d185fccf839df,0.19257466103228146,-0.3004417183739063,0.9534215904251698,0.9076473424517717,1.2087019040432256,-1.6850658920286363,1.7886828374999373,-0.5357235174661544,-0.01670050902817357,-0.310465248957727,0.12533619676771018,-0.004117587506631108,-0.35611631016042783,-0.5178799671897178,-0.8570744449206491,0.15472983800677492,-0.718514402050551,-0.5093104181611119,-0.9001628226080943,0.02072667416985338,-0.6081337443627481,-0.3712988685145807,-0.6989056063245493,-0.38722581869474937,undefined,1495632120397
903d185fccf839df,0.3311762668971346,-0.3503379932142242,0.8226295011305182,0.821523288441904,1.0752449917128526,-1.6469082944141886,1.7500378295107015,-0.7882416778472043,-0.11169520712073139,-0.253750917409692,0.1427761119311461,0.054717952481909936,-0.7390819964349377,-0.529915782465803,-0.9076008590902735,-0.10794918539853314,-0.6728599555732248,-0.5333439396991843,-0.9292695567542794,-0.15674040949090048,-0.6579976509396492,-0.35825566360627176,-0.6510546149151312,-0.390637890501393,undefined,1495632121886
903d185fccf839df,0.2979118097183176,-0.4008213999646329,1.158861580010906,1.2041044624243324,0.8262282792668769,-1.5939087862558543,1.805408395385139,-0.5942749099883057,0.02454491278563127,0.6689473591359171,0.2582463733701048,-0.045773292601985344,-0.8000083556149733,-0.5039924760704432,-0.9160219146211156,-0.19281470429644065,-0.6751736831022733,-0.512331233535441,-0.9151569892466068,-0.1936812786760746,-0.6479410146363331,-0.36056014475713394,-0.662152625296751,-0.4106880710313738,undefined,1495632123403
903d185fccf839df,0.3949330166366981,-0.3068988248972569,1.268599693730576,1.1576792185869924,0.8888681740030908,-1.5734184709660994,1.7432765979967764,-0.908257019421858,0.07590106064561618,1.0604468979607136,0.4114793090523636,-0.08424575023565296,-0.9349167223707665,-0.4234449006610594,-0.9307587654812062,-0.2817214282854194,-0.635175247518137,-0.43770382548466735,-0.9385893096249973,-0.20955707676585936,-0.6169085592860565,-0.3627562979159549,-0.6844788553809295,-0.46709152477464827,undefined,1495632124902
903d185fccf839df,0.4877960456387925,-0.3268574517453534,1.31900216663582,1.1520203201498758,0.828460266439858,-1.5392159232025575,1.710467143796285,-1.0517580592896754,0.28557499528730923,0.8460109640187748,0.45738135919279876,0.003434995348498261,-0.7608414104278075,-0.4928824598636293,-0.9423377113144388,-0.32011297557712154,-0.6590016532795989,-0.48382032122162905,-0.9535065109768427,-0.22048997342312968,-0.6441895246090283,-0.386450741281466,-0.7051191240981036,-0.45615989222357584,undefined,1495632126420
903d185fccf839df,0.7663847185801587,-0.05917832032207736,0.5182979628265028,0.48024775484240095,0.6273543192880713,-1.651843955039519,1.816974276255863,-0.5644319660967532,0.5598316845971048,0.06595503539566538,0.22559326236349925,-0.02146568418319393,-0.7608414104278075,-0.5021408261288027,-0.967600914718134,0.42549127159422545,-0.4268931335466572,-0.5517918060155935,-0.9508897033113565,0.5646459671385191,-0.4953370190467749,-0.43759935625752094,-0.8568354257768926,-0.2962134512203276,undefined,1495632127896
903d185fccf839df,0.8065792422500544,-0.10907465361837997,0.41238842224989636,0.27836595772445616,0.4894745517697338,-1.7082301776775075,1.8632956795079594,-0.4226437568581255,0.5191367499413088,-0.41607940574723473,0.20814872370589477,-0.027174169968053604,-0.7477857620320856,-0.4808465798336714,-0.9728640946710533,0.8659837571098518,-0.3920138457309791,-0.5325269901641206,-0.9444246502754038,0.6856007561864114,-0.45750002405632834,-0.4370778444436848,-0.9123718201671757,-0.3016736139905272,undefined,1495632129409
903d185fccf839df,0.5889748783869034,-0.24291419010202564,0.5074519060990109,0.37432795373611505,0.580945255562843,-1.7548312656713143,1.8660596003294467,-0.43643437730225165,0.34235194650382345,-0.7549684972302462,0.16098352065612934,0.02797279470226467,-0.7477857620320856,-0.46695908871439673,-1.0212851897412139,0.8659837853745733,-0.3647762787750702,-0.5441669405933371,-0.9770157952472103,0.6834757692743566,-0.4754542962448519,-0.46319203070514026,-0.8922499241300628,-0.2292865139639776,undefined,1495632130873
903d185fccf839df,0.37830085705810906,-0.3385976932517965,1.1186667718162022,0.9422332691496139,0.7860317640136174,-1.6863306678498078,1.859077472133467,-0.33656091695403983,0.14611341856483695,-0.45476884526814226,0.25803853113720987,-0.05624782544217278,-0.9436204879679144,-0.386411539206562,-1.0244430947680718,1.0033851259123754,-0.33159458465214353,-0.5177838975932055,-0.9615108626258785,0.6433782169418196,-0.45664725557487246,-0.48965160097746074,-0.9478912612243088,-0.27017687566415405,undefined,1495632132383
903d185fccf839df,0.3242462004060558,-0.3644264116251222,1.5416683210643225,1.185469217267155,0.9969914118930298,-1.656045899203069,1.880152739612844,-0.060623094575651744,0.05724580803706271,-0.5961296649411779,0.2267370163646723,0.029936462646637133,-0.7826008244206774,-0.4188157628561836,-1.0223378345664782,0.8619426085482236,-0.41474119042313806,-0.5283345818760105,-0.9763720884263418,0.6644586865768917,-0.46466204215861157,-0.5044755550968042,-0.9615726570710474,-0.2688214597163587,undefined,1495632133890
903d185fccf839df,0.1399062937217218,-0.3796887431202936,1.2322329504050369,1.110410067898488,1.0279719319730531,-1.67803158790001,1.9066138561085073,0.051502648283550875,0.13218530627187963,-0.3180362208435378,0.25440608310446416,-0.006142371492549098,-0.7564895276292335,-0.44196156843753354,-1.0128641342103717,-0.22716501823235,-0.6612291695498907,-0.49449133166130776,-0.9961800601222048,-0.10042829558427759,-0.6333720254175536,-0.47186294913275467,-0.84502968036609,-0.4731434347339324,undefined,1495632135393
903d185fccf839df,-0.013941320401865631,-0.398473310744155,1.3068803424222226,1.1152147866876492,1.0131399630732045,-1.7153413436840736,1.7383062673554417,-1.038967196487476,0.06073135173506261,-0.5943111922283434,0.2644955333181938,0.0717873407997325,-0.7347301136363636,-0.41881573695463453,-1.0149693870497314,-0.3342572640576747,-0.7754551169546267,-0.4450753730933881,-1.0009658775873764,-0.1737556904166653,-0.6282080996214857,-0.4776437348938028,-0.801114754572977,-0.5303700094054795,undefined,1495632136899
903d185fccf839df,0.03734103361047827,-0.40258238650301237,0.8979147768907568,0.6600331920928105,0.930679531686263,-1.6798740182002738,1.7873495281913905,-0.7080896173015608,-0.14852077870436065,-0.9801790706658495,0.19714075264884923,-0.14293331301250375,-0.7303782308377896,-0.36233985685129366,-1.0139167643111684,-0.16452619799713813,-0.7396915055888521,-0.4096805504153645,-0.9955293556401882,-0.0008927388480201561,-0.5789803633950544,-0.47421113512614305,-0.8385049268838447,-0.5118548064615281,undefined,1495632138498
903d185fccf839df,0.03595515833390145,-0.3168781383213051,1.1518433340156293,0.8880055070315699,0.9556223498913012,-1.6906211294691103,1.7877176975337354,-0.693997860068643,-0.22154557463006944,-0.9544213332407864,0.2110813057449821,-0.08991409346884309,-0.8261196524064172,-0.43455489096632427,-0.9960220157864537,-0.14836134936813167,-0.8078263432334676,-0.43227649251506584,-1.0029809585142704,0.07066383614466243,-0.5819773033278195,-0.4598420621443452,-0.8504046884186456,-0.5166180321706325,undefined,1495632139888
903d185fccf839df,0.17455662617711562,-0.3808627731165364,1.1014403528364864,1.0107062890066763,0.8407311163602292,-1.7017502340850856,1.8582333230295067,-0.34983781961789406,-0.2407875496664469,-0.33447364979311317,0.11777685663774097,-0.10842288358632965,-0.44315396613190733,-0.4669591016651713,-1.0128641121236703,-0.1685674030882094,-0.822251915135684,-0.4351073176080201,-0.9803882562240651,0.07953334117944212,-0.5827431820288234,-0.4316833851140554,-0.8253008402447443,-0.5202100630507341,undefined,1495632141395
903d185fccf839df,0.295139921143525,-0.38966799808835717,1.5525146319287637,1.5214431722134534,0.967224613317956,-1.6948370515392266,1.8565607601702145,-0.31411608957329923,0.00980961638588928,0.2630723108392567,0.12064519719444343,-0.00956219885749696,-0.5650066844919787,-0.4077057725509188,-1.0107588592843104,-0.15644373128555258,-0.8337077176512646,-0.4715850731731879,-0.9829211014616861,0.006775685139894287,-0.6159673440141078,-0.40885920829173866,-0.7608339327733625,-0.5367751405972045,undefined,1495632142878
903d185fccf839df,0.5321481951384187,-0.4965049031144037,1.8415334024822216,1.7577233710798312,1.0185708116536571,-1.6616430631859442,1.9480911540479158,0.3174514219542244,0.04867735775747091,0.9351035297273949,0.19623085207277488,-0.00408278031377492,-0.4866727941176471,-0.39844744513806896,-1.0202325449159493,-0.1321964442096821,-0.7275593582060907,-0.4813061410535846,-0.9666675108228313,-0.07126363871086552,-0.6225403738587617,-0.4084325236588909,-0.7819473318298903,-0.5427024087831034,undefined,1495632144387
903d185fccf839df,0.9022142978485803,-0.3139430633306982,1.9289412648669058,1.9864296064433327,0.9922702837201351,-1.6598658551083256,1.884754909815768,-0.07844509764612584,0.2923364243069715,1.263657128864314,0.3320816226454499,0.05632875620645878,-0.4605614973262032,-0.37622737387211747,-1.0202325375537156,-0.16250558131924175,-0.7855897052053885,-0.45969180524602576,-0.9539892894225362,-0.24736026156156288,-0.6335883269261677,-0.4295224273795398,-0.7997621213019668,-0.5497301677198612,undefined,1495632145900
903d185fccf839df,1.078237986721981,-0.2258906674725284,1.6239718428198375,1.6975018666363526,1.0054154047193458,-1.6557710529094432,1.8747905771593616,-0.1054655251973691,0.4983826386784704,1.3717652355560515,0.32846191669605024,0.11720335842357414,-0.9566761363636364,-0.38826327332823707,-0.9991798987266103,-0.231206237455782,-0.754502062294562,-0.49865840826329505,-0.9408632718753346,-0.27116625702337643,-0.6501164234904072,-0.43723932359519757,-0.7843724925418264,-0.535042543850539,undefined,1495632147381
903d185fccf839df,1.0089374598328322,-0.18597364760027404,1.3802514586794041,1.6037612820442066,0.8035791709912842,-1.659372055298722,1.826026086489538,-0.5040776078243175,0.4720798949607196,1.351390712023214,0.38329180368240495,-0.06164798886489154,-0.9566761363636364,-0.38455991516647064,-0.9718114277590876,-0.1907940734861835,-0.7796714588106801,-0.493598385517609,-0.9321312521642751,-0.27055032205953455,-0.6382896373656396,-0.44339624976078423,-0.8114819309407497,-0.5487674461971286,undefined,1495632148918
903d185fccf839df,1.0117094864292637,-0.27343891154835315,1.294757755797777,1.5641158239283246,0.812373441857148,-1.6617921350295524,1.849804783025608,-0.3583218786888068,0.4394118355681704,1.3720369098773937,0.3406429463118029,0.049528104810943184,-0.8609347147950089,-0.43177742900463806,-0.9833904177657229,-0.15240254032684214,-0.7707483433862067,-0.4962202237626526,-0.9385893093619636,-0.1759730679744732,-0.6248670770181122,-0.4581395140306074,-0.8358990708629087,-0.5373364955449993,undefined,1495632150554
903d185fccf839df,1.2847542441994058,-0.29809365838142077,1.095060244721212,0.9237284040824885,0.938928657638314,-1.6889487358692474,1.8225783968645881,-0.5263677695955908,0.3486928216303715,1.1268416067717428,0.3671428291117269,0.08832453852092717,-0.5824142156862745,-0.44196159433908266,-0.9097061045673995,0.06380251147226056,-0.6056651379165693,-0.4535488480297091,-0.8715318748496829,0.36606760680121936,-0.47107225397168057,-0.4741379429326898,-0.8971035899513586,-0.13692940065511744,undefined,1495632151888
903d185fccf839df,1.2805962043047585,-0.4965049031144037,0.5329720844231594,0.5316378413755843,1.6809079639388609,-1.7374015705946788,1.8098632814050333,-0.13344238953238766,0.3013116639534927,0.7888068808833202,0.28893135486393023,0.06572862933710054,-0.24296735739750447,-0.32808404801390434,-0.8107586247765499,1.213528440736675,-0.08419467719036632,-0.3888831608540897,-0.8298938540749753,1.208701331350962,-0.266228126340089,-0.41684793643971124,-0.2642909582911169,0.08125044619472642,undefined,1495632153404
903d185fccf839df,1.5439391450306683,-0.3656004708493573,0.5572167493981517,0.9058610196444676,2.1359883546477128,-1.6922911933155707,1.7938582828927143,0.1943938187470444,0.09962038168131512,0.8964258104315226,0.1775384920453894,0.06419163730760409,-0.8043602384135473,-0.25494312417418075,-0.6897058392466292,1.4923722138444642,0.28184446988145556,-0.3258260412894778,-0.6567157908557182,1.3459630747322755,-0.1557897586914738,-0.2738081014830669,-0.2897463630553775,0.12751725382341722,undefined,1495632154897
903d185fccf839df,2.1357672374337113,-0.09792131019808893,1.3553686558244096,1.3398447707758536,2.214427078562631,-1.5454652686771124,1.715540031698768,0.4210288497897725,-0.4333890558103992,0.9613657065238302,0.22439045584151035,-0.022008723414633433,-0.8565828319964349,-0.22994559094654302,-0.512863525854269,2.8987154295393838,0.4566390868860503,-0.23409968728633562,-0.46284815416718744,2.0293460866674913,0.08275473386663998,-0.33342080289341736,-0.2072224213537578,0.5030537264654263,undefined,1495632156385
903d185fccf839df,1.6506620999824617,-0.00282482204643949,1.3553686558244096,1.0232595937101208,0.9528554931848581,-1.6122189354620318,1.7872627333180262,0.0565699725917133,0.08294862818732152,0.10117015143649497,0.02354129688521424,0.006380615907781246,-0.9305648395721926,-0.23920398311326554,-0.42338972433282446,2.7249429605347255,0.40646450764041125,-0.2603434055920047,-0.3056508035830578,2.202178239312435,0.15419293956991847,-0.39283682962662214,-0.17568960872811673,0.2147048027579838,undefined,1495632157896
903d185fccf839df,1.4455319248140721,-0.28576637264886395,0.55147452502593,0.2981528873666469,0.6263874515072622,-1.6862281818746492,1.7688961722774044,-0.390622331486103,0.1779339069685948,-0.7987157347661324,0.13281591952181704,-0.060681225359747244,-0.9479723707664884,-0.1956897562076046,-0.06338925804545281,2.076328059519911,0.4066399445284083,-0.21990756111987025,-0.1384899946592123,2.140476674722988,0.19991018461757387,-0.38555806029184425,0.025658931072739113,0.311198574018665,undefined,1495632159381
903d185fccf839df,0.44621540515445174,-0.10555256362965164,0.35369091931547253,0.25712840172398915,-0.17660663194729384,-1.647972758213163,1.8331160303423963,-0.5006950607780062,-0.5941490247131647,-1.2376669791993224,0.001391466175462747,0.004329657587783329,-0.9740836675579323,-0.22901976597572277,-0.09181039592494131,1.1832192753623938,0.032263644843578944,-0.24848180263237943,-0.1426740864929796,1.3112088037284815,0.02554250261672998,-0.38557343812345557,-0.46703373676923765,0.8160700248259671,undefined,1495632160905
903d185fccf839df,0.2882097856416268,-0.2276517416948849,0.6969412441911369,0.7069147206520391,-0.1968180281182728,-1.503059140221107,1.7506137580405228,-0.814721674641944,-0.6261595295023663,-1.133005131124625,0.08578363837572699,-0.04358199292357715,-0.9175091911764707,-0.2151322878072226,-0.10654720261162914,1.0821889502325621,0.023495942662331692,-0.2248662554600649,-0.19552099604716233,1.322341877282157,0.015697653288542276,-0.4511439466569113,-0.4656705741896391,0.8462768403473456,undefined,1495632162429
903d185fccf839df,0.29375370081285085,-0.34446790168899505,1.1990563882056098,1.1126618280058587,-0.4217147815791881,-1.4830975615420345,1.8037726565832297,-0.6971101960264451,-0.5449670654188814,-1.0548234744589688,-0.023335282076421448,-0.017849068682023125,-0.9392686051693405,-0.2993831371983383,-0.481284534483559,0.8053656524790617,-0.30821334161185515,-0.3454644999099035,-0.42391789436927557,1.0113240774235186,-0.18014426489718866,-0.42204477646723776,-0.49257950677653056,0.18738712961778012,undefined,1495632163896
903d185fccf839df,0.29652593444174075,-0.39729930997590457,1.1441874584142495,1.085035934878603,0.02323418963471173,-1.5262839878949528,1.7728093181290865,-0.8814991080554025,-0.2993176420109279,-0.9134942383408432,0.040144107829015424,-0.13123126495211523,-0.8043602384135473,-0.2382781322408962,-0.684442696104879,0.9609523452648805,-0.3475926278517721,-0.3210066724078057,-0.5841448641241771,0.882408289764379,-0.25143605697098903,-0.3477428305790771,-0.4447864319644038,0.13445193805426775,undefined,1495632165385
903d185fccf839df,0.4101791629170714,-0.2423271166479196,1.1563095367647962,1.2138487007802463,-0.04076341635038225,-1.5707957486532818,1.8522873143527239,-0.4061343608281676,-0.25635290554389634,-1.2170713781693605,0.07471004864585094,-0.1069799789652009,-0.09935522504456328,-0.14106553899667879,-0.8297060181265291,0.9771172786880515,-0.40648194959477646,-0.23288376167395317,-0.8480295841542664,0.8296070167884753,-0.3071587840377725,-0.4122541590874204,-0.4581867044449413,-0.46248804493433693,undefined,1495632166894
903d185fccf839df,0.644415479326353,-0.2992676299216788,1.1059065555856533,0.991285033474394,-0.015676598974958728,-1.6541545603921082,1.8076516261198032,-0.8072189349998027,-0.31980949591994384,-1.1770830274457542,0.06913356104958397,-0.17017423347054286,-0.4692652629233512,-0.200318932864804,-0.8265481057374373,1.4560013680248232,-0.28599601639104993,-0.27356659194610566,-0.881866161413185,1.2098408248087045,-0.2666830311992769,-0.39595187245729196,-0.3071103873512329,-0.17149199668775436,undefined,1495632168398
903d185fccf839df,0.07892157057858977,-0.4501306598068294,0.5776328412300805,0.4813835272965147,-0.42761876590576536,-1.671870752543086,1.8634192959835776,-0.6401988843651626,-0.4040878881883155,-1.189564200901284,0.005515692924796954,-0.03043256780948786,-0.7477857620320856,-0.23364900738679495,-0.874969230256533,1.6641239531123402,-0.3217456660103882,-0.3676298049456118,-0.9169831557598802,1.628663144817769,-0.2187865352957806,-0.41890224484297206,-0.45202915761704643,-0.21574378241051262,undefined,1495632169886
903d185fccf839df,-0.1830352188274653,-0.40551746149361934,0.26819772470774433,0.18653674990176317,-0.5727602359773768,-1.693898367642896,1.8855543658786296,-0.6619717835542149,-0.3960055361642171,-1.155605132049159,-0.052350957675603514,0.128897758929043,-0.6825075200534759,-0.2762373316169884,-0.9739166953229149,1.2337344944567528,-0.44384145184887475,-0.4097122143087883,-0.9594258107886037,1.2614872110509465,-0.3251903854275709,-0.40324119217573895,-0.47683351614731023,-0.248685512980275,undefined,1495632171376
903d185fccf839df,-0.6029977312625745,-0.40082134150864823,0.5967734197128532,0.5304616999421142,-1.0254749081532417,-1.6659218754184926,1.899329275373685,-0.6539989185417412,-0.2767393424882669,-1.0566125949729184,-0.07678503633511814,0.01555314521056429,-0.6085255124777184,-0.26234982754693914,-0.960232481925855,1.128662766382799,-0.4576651259668677,-0.4124417129119375,-0.9475942037246008,1.6408125161074572,-0.25224782230176507,-0.4132768833898994,-0.4286783444423773,-0.2510091476577297,undefined,1495632172916
903d185fccf839df,-0.5808213804694835,-0.456000780560051,0.6733347170961467,0.6301329270493488,-0.9890738269402594,-1.7394419816071387,1.9471864869911164,-0.4276075043658751,-0.18017281572205646,-0.9862431861489417,-0.15268789392325846,0.16013986995756938,-0.7260263480392157,-0.4447390692515434,-0.9244429848764253,1.1104773576053393,-0.4187344498276291,-0.5123818954736903,-0.9408562754498327,2.0492408895732073,-0.2141975538642794,-0.4267771449587149,-0.3403671687214012,-0.22118883201338166,undefined,1495632174400
903d185fccf839df,-0.0555218228645674,-0.6191911254057507,0.8928106903985372,0.7777485436319568,-0.7498079401388065,-1.8650764868471295,1.9721091663655037,-0.4050274872772776,-0.1939908457609848,-0.7376257235717412,-0.0599095019376786,-0.05306530322792547,-0.6607481060606061,-0.5512100287609343,-0.9528640564958096,0.9548904669664697,-0.4795665334706391,-0.5609365735519947,-0.940205571659044,1.7821702527221002,-0.2853501325502412,-0.39337516702822833,-0.39523720769498144,-0.346680036803989,undefined,1495632175907
903d185fccf839df,-0.02502949579841112,-0.7060694766536816,0.8436839849793987,0.8445546625748446,-0.45354900262430786,-1.9360297724098232,1.8769496458030146,-1.0449426677652571,-0.2618543018610522,-0.17642436341933257,-0.03041705364060285,-0.04906889884109866,-0.29518995098039214,-0.4299257596368357,-0.9802324980143973,0.8680045151113559,-0.5305239511454192,-0.5402025163674633,-0.9563332208643602,0.9427239997966695,-0.45787724939755187,-0.40200851336206583,-0.44456994900830926,-0.42906418996663054,undefined,1495632177383
903d185fccf839df,-0.15254292626671875,-0.7160487316217452,1.3094318773944336,1.3031911712697328,-0.14363066011489806,-1.9443032317502522,1.8706722991739222,-1.003289659886188,-0.34717301791381,0.10415904618250872,0.004658471542642531,-0.198732498024124,-0.2516711229946524,-0.4178899249345888,-0.97602197761121,0.9851996040760295,-0.5087474922805143,-0.5141614511908943,-0.9335865879580011,0.8450208649746846,-0.4586044716309354,-0.4228142357749037,-0.4421571451415607,-0.4607507279857075,undefined,1495632178886
903d185fccf839df,0.28959572992902305,-0.6866979378736873,1.8600358430849924,1.818564782476385,-0.22694481222808255,-1.9699481559964285,1.8808180935069294,-0.9632534119229875,-0.46574309610841425,0.6494868858649693,-0.13561444182499086,-0.20089758857833176,-0.016669451871657744,-0.4549232863890862,-0.9076008370035721,0.8053655959496187,-0.5798441714935855,-0.5339202350435707,-0.919781880991408,0.6508926621294411,-0.49918923516123004,-0.41654503154988437,-0.4576613029663421,-0.47773912507506044,undefined,1495632180406
903d185fccf839df,0.5875889340995072,-0.6526510241406583,1.858760075598887,1.877820044975914,-0.13151412308725038,-1.9812449659846822,1.8859356899996627,-0.8951409384020358,-0.48613605577392344,0.6786101789909373,-0.14215814672325142,-0.26942616588889606,0.08342385249554368,-0.4012248941489806,-0.9960220084242198,-0.025104240781439715,-0.7128296460953805,-0.5342178844815946,-0.9639387544769371,0.06678343065197179,-0.628611199101927,-0.4148677270488611,-0.6133844921533432,-0.5638915731825739,undefined,1495632181898
903d185fccf839df,0.46839158342049403,-0.6960901705366314,1.8045290295505794,1.9285909756764172,0.08218151485500125,-2.0138543142591168,1.897049253054814,-0.7945216897778449,-0.5398691444528159,0.8351524508109339,-0.11655199820191865,-0.3242187923044147,0.3314811720142603,-0.4271482782489877,-1.0202325449159493,-0.1887734568082871,-0.8423703458593328,-0.5124452263666074,-0.9669543805459059,-0.10968275825501393,-0.6544678401965077,-0.4406284424489027,-0.6425051349529011,-0.6005422479351308,undefined,1495632183391
903d185fccf839df,0.42265335161183265,-0.6092118996656795,1.7037230671922936,1.6857716186653682,0.21770586045423287,-1.9672904932519786,1.9222927548339823,-0.5645890112034089,-0.4233481102464601,1.0229615289550993,-0.050257191647931215,-0.33165080148710513,0.6839836786987523,-0.35122990539835247,-1.0023378111157022,-0.04733091117941383,-0.7656015053843149,-0.46345990637419066,-0.9659398434948551,0.12190986205141163,-0.5946762406988482,-0.43008597685949446,-0.6482030366781446,-0.5951738412567886,undefined,1495632184924
903d185fccf839df,0.22583898018945953,-0.6121469454282941,1.3036899071591612,1.3515764435282984,0.22708642071450424,-1.9267850226726437,1.9897788435970682,-0.08941777080863608,-0.43429809536278857,0.3972224302507433,-0.030144576187594373,-0.28447404722270797,0.723150623885918,-0.37437572393047697,-0.9991799134510778,0.35477011183867496,-0.5922055482811076,-0.46611974291247854,-0.9706836813365297,0.8008581142938268,-0.4544798367316189,-0.4206250235815591,-0.6273586387203601,-0.6076959768228557,undefined,1495632186389
903d185fccf839df,0.38107274563290167,-0.5992326300836197,0.999996506735148,1.0144924222865166,-0.012086893527267436,-1.9026005312040484,1.9761301468603971,-0.216392978191647,-0.4191902822869999,0.30136983064494716,0.010508661388044623,-0.3344402511779552,-0.06454016265597147,-0.35215571741839813,-0.9949693709611892,0.546727763503021,-0.5462139498361545,-0.4387107630476828,-0.9609721073075175,0.9576142871196116,-0.40511253054324053,-0.39890932816328123,-0.6444957960128394,-0.6140890009702047,undefined,1495632187901
903d185fccf839df,0.6388716331659484,-0.4254760591137235,0.8321995362349552,0.8225528015895245,-0.007849189844329127,-1.821901709792172,1.907681554219704,-0.5015405332098496,-0.5167914448052818,-0.22497716136957735,0.023279926052647098,-0.15896942545702675,-0.24731924019607843,-0.3632656818221139,-0.9886535903564083,0.7851595139648193,-0.531263638409579,-0.4000481407289683,-0.9232383056440083,1.0012226834926612,-0.3689446000041349,-0.4163847827387435,-0.6686481729435104,-0.5962234670352634,undefined,1495632189387
903d185fccf839df,0.5931330563031897,-0.2851792407387732,1.5557048130548756,1.5269038464233369,0.16559852286229018,-1.77804213465214,1.7820057502691524,-1.1786621501170127,-0.5509219780630075,0.25818601676765085,0.025284620439922113,-0.06328998394074255,-0.4605614973262032,-0.3771532247444868,-0.9812851354774278,0.7043351577609008,-0.5263090789479693,-0.3974009689430187,-0.9228464840391685,0.9545191981175166,-0.3752197178537598,-0.42173075303700974,-0.6670660383458819,-0.5581108369341878,undefined,1495632190884
903d185fccf839df,0.3284042403007031,-0.21825953095293504,1.7183974429258995,1.6998403959433648,0.3701501716501745,-1.6899549664122233,1.9120075861550108,-0.11161961914140185,-0.622335373771643,-0.2734872433996621,-0.08310224674477278,-0.07128623609587162,-0.8957497771836007,-0.34845239163356806,-0.9707588123827583,0.8053656242143401,-0.4584740740225682,-0.36855440988900173,-0.9379386047576057,0.9221054716108421,-0.36884854680373996,-0.4308353601686381,-0.6343288924210537,-0.5434655961711063,undefined,1495632192397
903d185fccf839df,0.033183131737469944,-0.1478176142663992,1.7770946917233739,1.6425757641258136,0.2848920316770321,-1.6730400288989842,1.892147293637208,-0.23757258752889424,-0.6693816403010494,-0.19068701486999307,-0.12982346848506743,0.0077883004636194976,-0.9044535427807487,-0.29197647267790355,-0.9518113895838439,0.57097502231417,-0.5209947890137724,-0.37902276584309724,-0.9345451514824172,0.6793181856113573,-0.4256171219396468,-0.4501320030171225,-0.6707573440479992,-0.5357686021135316,undefined,1495632193915
903d185fccf839df,-0.16778893452545307,-0.16542809343803316,1.5072157372418404,1.3900257622900918,-0.06874051968894253,-1.5990517429732671,1.910805778018625,-0.10722629609270734,-0.6522755240900414,-0.47757651575978277,-0.1436102144746106,0.036584186946096595,-0.9523242535650625,-0.29105064770708333,-0.9602325040125563,0.42347068318105063,-0.5728221010063624,-0.3796117298930014,-0.9486787096979876,0.3888727125307062,-0.4906889198281044,-0.4409007898963594,-0.6319008797726795,-0.5018284611747557,undefined,1495632195392
903d185fccf839df,-0.2620379768257632,-0.1765814368583242,1.0854904637537246,1.1068230276074316,-0.2592624864306255,-1.5875685948224973,1.8485977205199036,-0.5687760030790538,-0.6608028594107774,-0.40980985506113937,-0.07959268724896472,-0.10297435727357604,-0.7738970588235294,-0.2956798502658318,-1.0023378111157022,0.3588113451944677,-0.5724938257252365,-0.4057287896074925,-0.9977543417375369,0.3366257886526968,-0.5287760901226826,-0.44660707948373607,-0.578210604562377,-0.5219158553246986,undefined,1495632196925
903d185fccf839df,-0.029187535693058375,-0.15427486692971148,0.33965493559881815,0.19016852383224575,-0.0536719595419434,-1.7173165372723433,1.766379465420821,-1.1619503928467787,-0.6215216987334304,-1.0583960754841528,-0.04873939258442305,-0.07756886833634177,-0.678155637254902,-0.425296576504249,-0.9581272217242613,0.4012440693125196,-0.6385224831102088,-0.4613067040954176,-0.9652051769886991,0.3668683350380228,-0.5398413820436481,-0.4844548323765968,-0.5864054633853604,-0.5017527448781216,undefined,1495632198398
903d185fccf839df,0.18564473256284164,-0.11494480359959384,-0.12928364621622754,-0.30019031635091453,0.1316248713517411,-1.6555031882216915,1.769193350936835,-1.0106697810471992,-0.47091073205007533,-1.088300019343111,-0.07058229175185614,-0.1302765519170496,-0.49537655971479505,-0.5002891373348386,-0.9339166557835966,0.38912042577458433,-0.6996925910173103,-0.5421023993433376,-0.9498261868591575,0.3317752774216795,-0.5857655031016782,-0.48103667410862094,-0.49741794847256615,-0.5389819823181458,undefined,1495632199897
903d185fccf839df,0.03595515833390145,-0.36031721895429547,-0.22881333281450897,-0.39274270225969277,0.33398567377028093,-1.6779430801430995,1.8174634390792543,-0.724914051074166,-0.536718630131028,-1.0198154585906265,-0.06112102183204262,0.015595469614967234,-0.33000501336898397,-0.615092528056999,-0.9497061514689517,0.1224002114105658,-0.7953025386169871,-0.6352599997138302,-0.9589990058267254,0.1336434767141303,-0.672125020450989,-0.45648345209844815,-0.5907690092478364,-0.48431012265830525,undefined,1495632201388
903d185fccf839df,-0.5295389574463202,-0.3239222598427771,0.06594791624812009,-0.036653100016514194,-0.10754844893160415,-1.631549293477001,1.783005086060556,-1.0997536431074342,-0.42157457117862196,-0.7938275326660976,-0.06341944137644043,-0.010153000034452409,-0.47361714572192515,-0.644719212040287,-0.9844430257798183,0.1122971562858054,-0.8197896377103843,-0.6472419295058024,-0.9891202768220985,0.041499179486647345,-0.6984842090420645,-0.4615232261385553,-0.6212179159095963,-0.512364174020548,undefined,1495632202885
903d185fccf839df,-0.5960674577390374,-0.34916393398998913,0.7786066280666498,0.6621710149168049,-0.1729551950168656,-1.709201469361306,1.840526834310821,-0.8651009909697405,-0.573107867391985,-0.7978126168814145,-0.022179594256235773,-0.049668959730760874,-0.7477857620320856,-0.5863916690445311,-0.9844430331420521,0.10825586640056956,-0.8246222437532015,-0.6022843630431535,-0.9788559559388896,0.13469057012942773,-0.6567606778190141,-0.43635066632103714,-0.6520296642112325,-0.5235814079626371,undefined,1495632204396
903d185fccf839df,-0.5572592234106353,-0.15955791422882695,1.2418029855094739,1.2889876803246332,-0.2798338690005655,-1.6800091113377245,1.8126955944006853,-0.9746991087416971,-0.4553145227259267,-0.899599084697678,-0.06328138033021477,0.02818350259701414,-0.865286597593583,-0.46788494606215336,-0.997074623800549,0.16281231885072123,-0.8085135215770545,-0.5622411598166575,-0.9959561619233517,0.11753670409662094,-0.6458290730780156,-0.3999408275099739,-0.5260881438897423,-0.5475701024604848,undefined,1495632205896
903d185fccf839df,-0.3354967506420175,-0.160144987682933,0.6548325306303255,0.6147109222624799,-0.6806469147165254,-1.7229067092641674,1.8415919041898368,-0.9422258190573105,-0.2352300527884633,-1.1062362330054742,-0.12232823419925948,-0.11375421388616976,-0.6085255124777184,-0.43825826855425254,-0.9223376952258965,0.9043752761368323,-0.22783998792404286,-0.5011789163532608,-0.9522960625606022,1.181353709577812,-0.3729218294025354,-0.4022628875557992,-0.5845835028802538,-0.23631023706442933,undefined,1495632207385
903d185fccf839df,-0.1400687375719575,-0.39495119152743435,0.39005791677796103,0.2546826787941679,-0.6009944777468583,-1.7477154376237132,1.906721683811887,-0.5807098961703507,-0.14066179361855147,-0.8531188423111692,-0.20777210291847167,-0.012517663784853571,-0.6128773952762924,-0.38826321504975164,-0.890758718579654,1.2155489160909638,-0.08856219740228666,-0.4622186476527621,-0.9324740979892672,1.2882805184454984,-0.325915113656694,-0.41446492888412956,-0.5931423710194306,-0.20607721503664955,undefined,1495632208914
903d185fccf839df,-0.25787993693111594,-0.31629112332318376,0.3753832869074057,0.2017127106379779,-0.704180589780604,-1.70857257552179,1.8712640023344378,-0.7803573173302866,-0.27820991682742563,-0.8482444298388577,-0.2250200044341287,0.044203457834200446,-0.6825075200534759,-0.4151124111698044,-0.8886534510158267,1.3913417473910248,-0.0431403500325197,-0.4574942722397043,-0.9264918249282735,1.1484780327636932,-0.35004918699436754,-0.4236915641293033,-0.5534068100554063,-0.18473615697325463,undefined,1495632210443
903d185fccf839df,-0.3493569526349945,-0.39142904308272136,0.9157793337504747,0.8869796242740259,-0.505995779171373,-1.7051299608266999,1.862859138941886,-0.7896997728340176,-0.38532711213994747,-0.7034450858315444,-0.20868234872197333,0.038077751120707076,-0.6650999888591801,-0.37622734797056834,-0.8760218677195635,1.5226814357481884,-0.03847260958920216,-0.42921134748730144,-0.9142334117156826,1.1617514929807136,-0.3346002671371384,-0.4420197508745614,-0.5003093519555664,-0.17511928069481977,undefined,1495632211897
903d185fccf839df,-0.6542802232965573,-0.30220276336827046,1.056779341892616,0.9217311834014921,-0.7775998953012083,-1.6866474480167082,1.8038331368252847,-1.2155652661244938,-0.4034206819850639,-0.7732357969916697,-0.146391191445751,0.020437060652339554,-0.9088054255793226,-0.44566490717313817,-0.9307587507567386,1.6136087905474243,-0.01472140779909487,-0.45903951113924113,-0.9267227185433135,1.1075027688118582,-0.3651919300536485,-0.4450888070439127,-0.46223022942136566,-0.12377766567160922,undefined,1495632213391
903d185fccf839df,-0.5004325401621504,-0.3016156899141644,1.1339792854298103,1.0598772005288046,-0.7212754179484581,-1.7800452815030037,1.879866097320437,-0.8635663111147974,-0.4347039841263101,-0.6826743676064135,-0.05770754912737074,0.02355774031267489,-0.9349167223707665,-0.4771432281472922,-0.9844430184175845,0.8902311572446084,-0.2821072557807152,-0.44237753797948604,-0.9763580950676221,0.6342777376216369,-0.47449886782043615,-0.4345119272645205,-0.5388238538027855,-0.22908600239903382,undefined,1495632214884
903d185fccf839df,-0.24401987295977787,-0.45247874902730734,0.7250137198983444,0.5381469462969569,-0.7206171357066129,-1.8543480121195888,1.873267916763823,-1.029965316648817,-0.44872449708852025,-0.7711263696253373,0.02974181235369943,-0.05623169715693623,-0.9044535427807487,-0.4438132831330468,-1.0002325214651733,0.8902311572446084,-0.21009846029666907,-0.464587171267853,-0.976609979323272,0.9641586309037702,-0.39440704137618826,-0.4140415579256517,-0.5922663658894498,-0.09495198418628382,undefined,1495632216398
903d185fccf839df,-0.06245195836646564,-0.41197465570094693,0.18844599206138954,0.1796158853763571,-0.7996010010664404,-1.821545334289582,1.9287489385738212,-0.6530884496435422,-0.4505749265495109,-0.7652896470106271,0.059912733119914637,-0.03921732974158622,-1.017602495543672,-0.4993632864624692,-1.0412852131919899,0.7467679384083957,-0.35596634884517364,-0.5468521111099277,-1.0010358457389625,0.9374115270979531,-0.4455332879208066,-0.40150943060004435,-0.5577838251623012,-0.10483327888109298,undefined,1495632217893
903d185fccf839df,-0.01394145842350457,-0.3362496040313186,-0.009975497392120593,-0.16444007370239572,-0.6733029244263805,-1.7053186270754817,1.8793348791158242,-0.7660085893347182,-0.27851577039170544,-0.7736260719779225,-0.024503140057677432,-0.057693389334675355,-0.9697317847593583,-0.5160283172480774,-1.0476010085212382,0.831633471438664,-0.37810463801434757,-0.5675355042190566,-0.9944798338129408,0.9567827698808292,-0.44397469143777185,-0.4161990506146802,-0.5843986681180172,-0.1139195769612651,undefined,1495632219401
903d185fccf839df,0.25078742658980147,-0.474198333185791,-0.16437436791871174,-0.25236033260433366,-0.16546720502819784,-1.7096347080270717,1.8074833166030861,-1.1003686496321947,-0.3871132904517878,-0.6965571786238807,-0.032589682428658104,-0.02244274803242055,-0.673803754456328,-0.5641716431062905,-1.0033904264920313,2.522882253745619,-0.1433735802546383,-0.584026489726622,-0.9604473466385762,1.6438460099276873,-0.3008510741908079,-0.39355873758998766,-0.6012108237804737,-0.059392195139346564,undefined,1495632220891
903d185fccf839df,0.24108526449147175,-0.5293778014651861,-0.10248744626902427,-0.2501550352766959,-0.15927521695744248,-1.7568670232724386,1.849857387475055,-0.8799645725544529,-0.27485576262182976,-0.9577034530675769,-0.02937625842771483,-0.07648189286645368,-0.5867660984848485,-0.604908330345618,-0.9476008839051242,2.4258932750304663,-0.20756843788234422,-0.6224674572836512,-0.9648343468196874,1.8705111314338234,-0.26595754097590885,-0.38951694207397364,-0.570164675414308,-0.10447567936922081,undefined,1495632222434
903d185fccf839df,0.18841675915927314,-0.6444327995529627,-0.34620783040945774,-0.40268146250072717,-0.11990157036662047,-1.891273441753337,1.888078980346295,-0.8340865413752008,-0.331421483297688,-0.9824810807888508,0.017349725372855996,0.02061464425021844,-0.7695451760249554,-0.6206475491111805,-0.9928640886728942,1.633814787738059,-0.3602912359200724,-0.6756261858971094,-1.0028340267826772,0.9622954273783261,-0.5073240909747432,-0.41311388478058736,-0.5803090935960201,-0.38372331708607094,undefined,1495632223887
903d185fccf839df,-0.14145475087017326,-0.5094192623010666,-0.17011633815398403,-0.24667860348448353,-0.5907602031800157,-1.8578488587043491,1.9351525073889944,-0.6205876372768777,-0.33707595343407915,-0.9338716612327056,0.014297100053409199,0.07914159568055347,-0.6476924576648841,-0.6076858635365642,-0.9770746077120068,0.9548905800253559,-0.4932290901795567,-0.691148229660014,-0.9990557491111344,0.8392926429724953,-0.5502081457642473,-0.4160725764203553,-0.5062806763268399,-0.3501581155356646,undefined,1495632225395
903d185fccf839df,-0.42835977964411187,-0.4912217389033189,0.08317433522783582,-0.020302247754556305,-0.3276417854024732,-1.8485994491119868,1.9177905313042207,-0.6508479878213203,-0.34431813113389803,-0.7310258545319054,-0.03593701983936548,0.06322519653667548,-0.8043602384135473,-0.5410258116233915,-0.997074623800549,0.839715909885528,-0.4084390596374855,-0.6211565377098911,-1.0031278932738088,0.9729973460076713,-0.49710131606770475,-0.4092825347678717,-0.541579652813766,-0.3512354024754469,undefined,1495632226898
903d185fccf839df,-0.17194718145255874,-0.37792772735392177,0.8602722660791122,0.775742730879244,-0.4997317826191079,-1.8204738846878965,1.8982800052658872,-0.7127688594879487,-0.3942889283707262,-0.7539743777772645,-0.18099673708846617,0.06403252288968526,-0.7129706996434938,-0.4854757953431945,-1.0191799258585033,0.2820281092874558,-0.6808213781062176,-0.5795047675589341,-1.0247410414418074,0.4203471364095337,-0.5983748159974926,-0.44312677890508373,-0.6211010845345145,-0.49565100851183763,undefined,1495632228553
903d185fccf839df,-0.1137344849058582,-0.4014083565067696,0.8755842714188214,0.7388121846759382,-0.3997548057887723,-1.8100598565303776,1.9284859519423256,-0.4751824571742408,-0.37777465657000325,-0.8084485720173177,-0.172910957959777,0.04761783491127443,-0.7216744652406417,-0.4743657920871551,-1.0118115114718087,0.18908025086920965,-0.7052628753368866,-0.5800873981779342,-1.017359405966913,0.38206659976460816,-0.605550417902664,-0.44380675573423495,-0.6211157584247574,-0.47690045526814784,undefined,1495632230217
903d185fccf839df,-0.4186576175457821,-0.20651917253452262,0.7881766631710868,0.6736726747826682,-0.3145275270858341,-1.7320839152309657,1.8633903613365856,-0.7720184691473772,-0.3543377301506457,-0.6485037235504472,-0.186269709033367,0.0799175189738826,-0.19509664661319073,-0.5178799801404924,-1.0591799764411722,-0.07561940334635556,-0.7889362764351536,-0.6035446214039674,-1.0325914635390583,0.14822580343439207,-0.6731739281766074,-0.45790791508291545,-0.5492865375191843,-0.44950269764125883,undefined,1495632231391
903d185fccf839df,-0.5323108460211128,-0.30689888335324156,0.6497284441381059,0.5801111643465062,-0.34991032276160955,-1.6103555447169988,1.8169427264707128,-0.8989184138461755,-0.3793882539805747,-0.8335495377991154,-0.15593476032070572,0.03687779895627907,-0.5258397393048129,-0.5234350076700612,-1.1202326768942972,-0.18271163503931948,-0.8104182416205332,-0.5929496075618506,-1.0710109520261901,-0.019586454568057743,-0.714667347383346,-0.4557122719878445,-0.5594504357489095,-0.45960819288868887,undefined,1495632232886
903d185fccf839df,-0.7928816221289521,-0.37440560813720114,0.6427104522797787,0.5455929946299041,-0.25378020370150495,-1.5687297109785676,1.7875809398972127,-1.0432489953058595,-0.4754770611728358,-0.7371324819448772,-0.053673863477857874,0.013651820299799534,-0.843527183600713,-0.5447291762605452,-1.107601093598034,0.0739055524646602,-0.653796024546012,-0.5580550880378374,-1.0753839587384746,0.09001968287838318,-0.6699970085362235,-0.4431574473008989,-0.6106432823481827,-0.48561875099885426,undefined,1495632234395
903d185fccf839df,-0.7055627843413597,-0.4401513463827812,0.6178279035617337,0.6259003973562752,-0.28593329192757105,-1.6070783054396407,1.7991836474441234,-1.034397005612342,-0.48740619449447575,-0.7786607444155225,-0.07228720598203946,-0.049251790955236685,-0.843527183600713,-0.5586166803305944,-1.0433904807558172,0.403264685990416,-0.5902125639138729,-0.572114223062551,-1.0353971839787923,0.4265835050651794,-0.5853261285742903,-0.4652926571966912,-0.7276285134756801,-0.2551559479749289,undefined,1495632236342
903d185fccf839df,-0.32025060436164426,-0.4665670797542283,0.6216559684308983,0.5872284448082016,-0.5175466197963156,-1.5976681800323935,1.82903194294455,-0.8821863974423974,-0.5055472147672646,-0.8610785979762784,-0.08310136299512921,-0.04601826320155262,-0.9436204879679144,-0.5826883108827646,-1.0728642045626997,0.4780271356312023,-0.6604344235767949,-0.6378058466875847,-1.050804161963547,0.4751194034560105,-0.6121042215741435,-0.466767288853015,-0.6952020641621767,-0.24379236667208182,undefined,1495632237406
903d185fccf839df,-0.10819046621840493,-0.579274076305504,0.17185745682472656,0.1105835348937187,-0.8019461439222351,-1.629727827806111,1.8275881803192475,-1.02243516957167,-0.449796917924758,-1.1713612559098838,-0.025515080173831774,-0.00044008301888318367,-0.9392686051693405,-0.5984275231729399,-1.0981274006041613,0.6841291888349876,-0.7066267817337161,-0.7175566060404883,-1.072564244383368,0.5634602884680945,-0.6346305757404141,-0.4521860704103024,-0.632354052595267,-0.2443987548194401,undefined,1495632238896
903d185fccf839df,-0.3784632318975253,-0.5417050579697505,-0.06293052181737326,-0.18072278910552564,-1.0231606259214827,-1.595255087751478,1.8323139408097453,-1.0151488761635334,-0.3023172509388296,-1.123299921017559,-0.023927479779082283,-0.06236225957752832,-0.9262129567736186,-0.6456450499618818,-1.0854958062645474,0.7144381563562181,-0.7100066253592227,-0.7368974165849099,-1.0739636061305091,0.7171059771849906,-0.6175578397015759,-0.4452913976578117,-0.5739515809528745,-0.20035680639677056,undefined,1495632240404
903d185fccf839df,-0.5766634095856558,-0.6596952479601035,-0.16628852742176878,-0.25754292949011565,-1.097083929242619,-1.650143609542937,1.8730706736476361,-0.8853167910206826,-0.27361410459574936,-0.9480940180623537,0.0025986250176044355,0.023918490538376004,-0.9392686051693405,-0.6715683952095652,-0.9602324708825043,1.375176983556183,-0.43230717091261794,-0.7281199560390115,-0.9675701001966723,1.5683012463956914,-0.3995777999275441,-0.4660983226802793,-0.6114439800700773,0.09593871614633064,undefined,1495632241888
903d185fccf839df,-0.5932955001534254,-0.6150820496468934,-0.22243347883618395,-0.32353182875227154,-0.9023756863869516,-1.614387458434177,1.8343362570544846,-1.030751229737665,-0.1830684484839311,-0.9784775427129528,-0.0181673245939834,-0.020426923695547675,-0.9262129567736186,-0.750264262398823,-0.8539165619804925,1.2862702454348434,-0.28902008025399323,-0.761355244745871,-0.8889119523394186,2.107924366192141,-0.27722863940904646,-0.47280449964376653,-0.5806583359069061,0.2590329674780397,undefined,1495632243391
903d185fccf839df,-0.403411574781638,-0.6309315130521554,-0.13119780571928458,-0.19723586050128622,-0.8073049844332858,-1.6637207449904945,1.8678689171589355,-0.8377455408495263,-0.1501384988970263,-0.7855355453087782,-0.05843252503810899,-0.04641198011061851,-0.8826941287878788,-0.679900904126982,-0.8886534583780604,1.405486035871578,-0.2199895929261837,-0.6957459470798538,-0.8821320429852934,1.9766834163534812,-0.2827203507237525,-0.4677782307118172,-0.4902805881269247,0.11579117680710516,undefined,1495632244913
903d185fccf839df,0.29513985213270555,-0.4448475832797216,0.40537017625461974,0.42450639330808765,-0.25070476597727565,-1.695733809634307,1.8367109753435267,-0.8655015690938537,-0.1928560041052141,-0.8315192160136867,-0.10600569743667132,-0.028160406400167044,-0.7303782308377896,-0.5817625118134935,-0.8928639935057153,1.3388060529423773,-0.3053410687725509,-0.6094722554070364,-0.8237366594819502,2.0620985917766403,-0.2139565177224497,-0.5140474756522614,-0.6580664057541344,0.028495429136511926,undefined,1495632246384
903d185fccf839df,0.3214740357879854,-0.485351588922105,0.4704472790304191,0.4368027579811072,-0.1189964131611025,-1.8026924755838762,1.877683361493133,-0.727460540433256,-0.2179360650501052,-0.7920262750759929,-0.019166002064759068,-0.06684433411072341,-0.8826941287878788,-0.43455491686787334,-0.7654954126465462,2.0682454232199965,-0.17705885010507505,-0.5207540468324925,-0.7567491920446527,3.1227281147963604,0.08287457237850077,-0.4614155191836749,-0.3339288569955458,0.1428120678722777,undefined,1495632247934
903d185fccf839df,0.2868238413542305,-0.38321092079299895,0.19291219481055638,0.15267281150230969,-0.32712749475303965,-1.790284619174133,1.9029873534658133,-0.5981090644732822,-0.25536491227735225,-1.015881793636882,-0.0036697209999684375,0.025647608808208006,-0.9131573083778967,-0.44659073214395845,-0.7802322340577016,2.5673356228062887,0.14151073715651918,-0.5357251256637006,-0.7750108681758636,2.8099240924657924,-0.0007146542749863705,-0.43614132088265484,-0.23585682574970326,0.24991155148580727,undefined,1495632249399
903d185fccf839df,-0.01948551161636758,-0.45658776633018006,-0.013165424381283108,-0.20368069440609882,-0.401061093251684,-1.7562800542393264,1.8886811964355346,-0.7165516567983731,-0.24974436065208167,-0.8728911406069685,0.0015424284090505096,-0.04698700647042358,-0.9044535427807487,-0.404002407913765,-0.9012850563987912,1.4176097924683995,-0.15154876632943062,-0.5018945409266392,-0.828753372305524,2.190891185612236,-0.1445464972424378,-0.3805939952067728,-0.035607926077883,0.12692905426785256,undefined,1495632250900
903d185fccf839df,-0.1054184051165637,-0.5563804913787699,-0.22243347883618395,-0.32775023609903264,-0.5943087687223042,-1.7170090813795968,1.8797950826754617,-0.7896067345563086,-0.15011183724065397,-0.855307288513517,0.007338451330164102,-0.04371540582909193,-0.7260263480392157,-0.41140904653265065,-0.8897060884788572,1.5590522250383865,-0.13157000726421061,-0.48914632551997916,-0.84455916800865,2.0723847489460474,-0.166840509200524,-0.3716740258766649,-0.018066079514999923,0.14532065819290985,undefined,1495632252537
903d185fccf839df,-0.32718073986354246,-0.6596951895041188,-0.3136691519530833,-0.3970273840918465,-0.4662415572789526,-1.6616943077978497,1.8495970154579573,-0.9194341480283308,-0.2807692333793768,-0.7337313947847971,0.036468253931760806,-0.0912422401859143,-0.6955631684491979,-0.4706624533515505,-0.8760218677195635,1.3549709581008267,-0.28087476958284174,-0.5573964595312323,-0.9035003029316516,1.8027733651634135,-0.2689719092807367,-0.347886533019792,-0.0024382890082325004,0.2683496932255075,undefined,1495632253901
903d185fccf839df,-0.5323108460211128,-0.748921586130539,-0.3468457141525105,-0.44895652519984675,-0.7638067712935073,-1.6971825957002544,1.8857515974720767,-0.8116904274934301,-0.3049957352033113,-0.800292838386218,0.04538621657754985,-0.14833256512076415,-0.5780623328877006,-0.6336091893580859,-0.8876008135527961,1.2458580532005235,-0.4763109803136027,-0.6714464424056308,-0.9250015026516907,1.5535341256485788,-0.3737743003099229,-0.32551651726777225,0.104876545158748,0.23334077002470924,undefined,1495632255384
903d185fccf839df,-0.5988395878516981,-0.8821741076160633,-0.26390405451699317,-0.3160841580599172,-1.1861580687085675,-1.6239303487820707,1.8992898435107963,-0.7365674700812367,-0.2743806685023376,-0.7184804217456827,0.04596695240864853,-0.1498265219160117,-0.5432472704991087,-0.769706768096892,-0.9170745152729772,0.8336541446460034,-0.6436831250473927,-0.7444336183706232,-0.9371759531856171,0.9267096065300352,-0.5559443967250394,-0.4426115952118034,-0.6410884827816405,-0.23034019537386127,undefined,1495632256887
903d185fccf839df,-0.5752773617820303,-0.6820018178887162,-0.44509963326468643,-0.47475706477270274,-1.204106609414532,-1.5022578797882553,1.8448502133971847,-0.8316290566570732,-0.12374161562704912,-0.808403293609664,-0.027183927891703995,-0.05253941246796754,-0.4213945521390374,-0.7715584504154689,-0.9297061206559418,0.5729956955215094,-0.7139528789674254,-0.8089473153852118,-0.9156467665523926,1.1672333260703571,-0.5199500770527402,-0.45894212722861977,-0.6544675214384194,-0.26271288329907944,undefined,1495632258400
903d185fccf839df,-0.5309249017337164,-0.6579340860537699,-0.35258768438778276,-0.38077288215178984,-1.1834117853567123,-1.498223639530537,1.850570040644463,-0.7722922434940611,-0.12471183726855452,-0.8554239633385741,-0.007850682018167517,-0.016978981591393154,-0.5954698640819964,-0.8122951376547963,-0.9633903795904792,0.6235109146158684,-0.7088147213290655,-0.8541835320285294,-0.9729156632660253,0.6776551569764341,-0.6560958074003431,-0.4996259316885012,-0.7344334640375476,-0.34818815498228234,undefined,1495632259887
903d185fccf839df,-0.37707718409389984,-0.6074508546713153,-0.16437385964481288,-0.27389336312612567,-1.0247034786407745,-1.6144107534086058,1.870293596999939,-0.7875626652215164,-0.29041667131382315,-0.9377870217640685,0.021371417213874012,0.059307530555217335,-0.5563029188948306,-0.7530417696882202,-1.002337818477936,0.7205000629193503,-0.7069413895723932,-0.851840342391741,-0.96479236511639,0.714195670887944,-0.6457989694641644,-0.5037039754680381,-0.7184525898573514,-0.3383401664296604,undefined,1495632261426
903d185fccf839df,-0.2828282798152287,-0.5041360396339971,0.08955418920616084,-0.04967538376282717,-0.8346443712726058,-1.7771104418670838,1.938889463872205,-0.5502880214212993,-0.3589858756953219,-0.9881381750228816,0.007794330253204684,0.05199122345679318,-0.9131573083778967,-0.657680891139516,-0.9328640477695013,1.0902713038852616,-0.5675367229436655,-0.7948565149389548,-0.941185124704648,1.2729128669822456,-0.4885086996984012,-0.4905765133827643,-0.5277948216611535,-0.19756353496531287,undefined,1495632262928
903d185fccf839df,-0.11789252480050547,-0.6068638396731939,-0.1605465571864965,-0.22503373277561167,-0.6458504025536255,-1.8144597907325777,1.9120365213257633,-0.756738148969606,-0.28312274682045263,-0.8992805841993854,-0.009194308402005353,-0.005299538255446128,-0.9610280191622104,-0.6771234097883595,-0.9718114351213213,1.0336943195513781,-0.6332840053728774,-0.797472021236921,-0.9832079710624194,1.0716551857800947,-0.5455082361223489,-0.4810286460490768,-0.46513770302666796,-0.2595948646551201,undefined,1495632264404
903d185fccf839df,-0.09987428291288121,-0.665565368713325,0.06275798925895758,0.025766479660004282,-0.6553338142108299,-1.8143899133675834,1.9470655275545286,-0.515107016811975,-0.26167171597643446,-0.9697265633039049,0.006531614497666234,0.03310505259421345,-0.9566761363636364,-0.6150925215816117,-0.9981272612635796,0.983179043927576,-0.5849301466171177,-0.6984817786322172,-1.0216834342934813,0.8496249999746521,-0.5555354797346415,-0.46574754244756233,-0.5410140892232915,-0.2647458258458119,undefined,1495632265895
903d185fccf839df,-0.07076800365035041,-0.6497159345360553,-0.02847768385794179,-0.14080668518886946,-0.456408430382039,-1.7437697098307556,1.899105755173298,-0.704916815996428,-0.20184961296376294,-0.76747290557191,0.137105404012991,0.03136577609161831,-0.7782489416221035,-0.5623199802138754,-0.9297061059314742,0.93670505818901,-0.5832937551887887,-0.6697998759311025,-0.9650092660945233,0.8849490326168252,-0.5184127387225822,-0.4630110969148629,-0.5499075380593402,-0.2520989774098013,undefined,1495632267391
903d185fccf839df,-0.06383800617009112,-0.5123543080636812,-0.0067855704029580795,-0.09619439528073025,-0.467146698668351,-1.7784101560042542,1.8926627241171037,-0.7820609058004214,-0.07229649558313027,-0.8320411747363162,0.10914083310785166,-0.001689063518521448,-0.9001016599821747,-0.596575840854363,-0.910758749392664,1.4236715859726454,-0.4167047289824488,-0.6831623875167228,-0.9429413246995905,1.0825880797852896,-0.47784007486905683,-0.46246367050166975,-0.5112070430714313,-0.22436693312790498,undefined,1495632268888
903d185fccf839df,0.3187021472131928,-0.6432587695567199,-0.272835951741428,-0.3454917838980045,-0.5638219639906195,-1.6731937618830108,1.8720923899017252,-0.7814191489602825,-0.28687028267711967,-0.6362323306930233,0.0996068932157629,-0.0006746348209074933,-0.9523242535650625,-0.6845300548826324,-0.9391798357365159,0.8821486905330229,-0.537063191611291,-0.7370304061321021,-0.9911703427148179,0.6599315507507076,-0.6076067932284819,-0.45442950322829756,-0.6109708053379789,-0.3241396315124577,undefined,1495632270383
903d185fccf839df,-0.051363886486149354,-0.4929828131256754,-0.4029901572930268,-0.5061106595303728,-1.0455834413002594,-1.5900678722158106,1.8318221712283698,-1.0145621331143886,-0.4243178919555875,-0.7618519927095855,0.05156963990814215,-0.10210629930757066,-0.9697317847593583,-0.7178600905522997,-0.9602324892880888,0.24363661852519675,-0.6605646696683237,-0.7485626969672728,-0.9903237287455493,0.09861201693172758,-0.7330687339269044,-0.4346187022009315,-0.6020876001562416,-0.2969431880239819,undefined,1495632271869
903d185fccf839df,-0.6487361528509895,-0.6996122678323579,-0.6569192226917983,-0.7415715366519702,-1.2505568130331604,-1.4367224086954495,1.8078462347186786,-0.9694637445366417,-0.42707141202079185,-0.6704954208336165,0.06460333980114287,0.01079735581670661,-0.8870460115864528,-0.824330965881656,-1.031811520198117,0.18301838670315973,-0.6909638450038538,-0.8739359829541382,-1.0426108962679144,-0.19083256206827112,-0.8693852744298904,-0.4143597532288637,-0.5028114554358415,-0.2523534147205383,undefined,1495632273412
903d185fccf839df,-0.8261460102969496,-0.41901880645041123,-0.7296522010689775,-0.8142282763782956,-1.3326572483366181,-1.569416837307561,1.8422362117998,-0.989626986371651,-0.378809690302408,-0.5968329732972069,0.02438149642806315,-0.07315610539055616,-0.5867660984848485,-0.8780293322202124,-1.1033905658326129,0.14462686060999874,-0.8050061327475808,-0.9250618373170902,-1.1034621607621118,-0.08021013142261592,-0.8857443244865632,-0.4305774117199724,-0.477403825499803,-0.34746400826136464,undefined,1495632274888
903d185fccf839df,-0.8386201644863011,-0.34798993322173866,-0.7207203038445427,-0.8001630470832793,-1.2578596591367872,-1.5866112804971029,1.8508645995828266,-0.9355483693117953,-0.45511897342982055,-0.5177577244721845,-0.004403426483734203,-0.026001861873642274,-0.5911179812834225,-0.8946943630058206,-1.1223379481392415,-0.006918796673077996,-0.8192015696623073,-0.9353972009999538,-1.1211710893234303,-0.14011008283551477,-0.9062170953974046,-0.42811241681870477,-0.5187060189507313,-0.42226025320178945,undefined,1495632276911
903d185fccf839df,-0.7859515556378733,-0.3785147715800355,-0.6696794389223472,-0.7691424331662431,-1.2652242183563671,-1.636766789988234,1.8833584857478554,-0.809916213781512,-0.41289725814688427,-0.5406997220135216,-0.02521577526850847,-0.031264349435430445,-0.5867660984848485,-0.8854359967406472,-1.092864220651242,0.17695653666947056,-0.7708647093773892,-0.914542817127029,-1.1054702458935612,-0.08638490569067256,-0.8818975817163949,-0.4236250290990366,-0.5175044439388498,-0.4240108548690472,undefined,1495632278754
903d185fccf839df,-0.7901095955325206,-0.37029656160633606,-0.6243805442354238,-0.7160886305233582,-1.214988873798429,-1.681341441043091,1.8939697516276015,-0.8038199590716775,-0.37836419211927846,-0.5496909203420802,-0.02476311108046076,0.024174471177339115,-0.7608414104278075,-0.8706226741751649,-1.088653685523587,0.36891431552506354,-0.658554671833854,-0.9063099900585126,-1.1009992839391107,0.10694257887987654,-0.8343248213762116,-0.4228558895283618,-0.4704971441056543,-0.39155596507597734,undefined,1495632279413
903d185fccf839df,-0.37846326640293504,-0.698438237836115,-0.5363347981076869,-0.541407154456541,-0.9760007020673404,-1.9055237264120408,1.9683196232407159,-0.5744747098980153,-0.3261443651888021,-0.6628373073530102,-0.007604204889340288,-0.07962958918095088,-0.8000083556149733,-0.7771134520434886,-1.019179936901854,2.167255216466096,0.04868926016281941,-0.8377748727900337,-1.0329902825603636,0.8849644307391765,-0.6147446830489472,-0.39459021606099065,-0.2134152553765974,-0.1111238300265692,undefined,1495632280887
903d185fccf839df,-0.39093742059228653,-0.5957105547088876,0.023839456824258132,0.02146663915530664,-0.8793048604797261,-1.8968892365440064,1.9588233908869896,-0.5227803689972355,-0.28349315143705106,-1.3743191801242671,-0.004402490789944844,-0.05141108450388509,-0.8087121212121212,-0.6604583854781386,-0.9812851428396616,2.686551554566631,0.3221558825143856,-0.6902996127212805,-1.0299186823408202,1.3811793328225441,-0.44380942245264926,-0.38434659753354944,-0.13689193731576854,-0.09579197920524528,undefined,1495632282403
903d185fccf839df,-0.36321708561715205,-0.4548268382477852,0.6682306306039271,0.5907422071335061,-0.9158602279624977,-1.8423244776741972,1.89447730631489,-0.8634539202280351,-0.3697910801238929,-1.592513177356596,0.028990232652230233,-0.021554674463910545,-0.8000083556149733,-0.5854658505490982,-0.9581272438109627,2.1672553295249823,-0.02310271487588711,-0.5627857924081732,-0.9662686939608484,1.6443849610917032,-0.31571307801894744,-0.4169769501841258,-0.5100855267207232,-0.29791513318017393,undefined,1495632283878
903d185fccf839df,-0.34658489153315325,-0.4248889564316251,0.8915346687754824,0.8398121201349215,-1.111350183975136,-1.7466276854672131,1.9005758346886288,-0.7406019498089851,-0.36577607723981065,-1.5236064609614905,0.0483230439860583,0.0455933980802325,-0.7651932932263815,-0.558616693281369,-0.9528640491335759,1.9571120429654043,-0.15724172770705147,-0.48773407743553093,-0.9415209735719539,1.762799008619918,-0.25152250330260045,-0.4481626872179866,-0.6864897260658235,-0.27205836858542803,undefined,1495632285515
903d185fccf839df,-0.4782563101379935,-0.41784477645416845,0.29946012740411443,0.20875418017043265,-1.1979866129808994,-1.8114946691951066,1.9131436764403718,-0.8115330546278721,-0.3172441029177198,-0.8391758484006709,0.022742656448094305,0.08409072329383104,-0.5345435049019608,-0.5132507646309693,-0.9370745534482209,2.565315147452,0.015428095048118103,-0.4969611772815043,-0.91498206907868,2.2145893968831305,-0.13738434996359483,-0.47133635349452424,-0.8653213368126911,-0.23032944966050967,undefined,1495632286907
903d185fccf839df,-0.44499192196999604,-0.7225058819870842,-0.14076809496067097,-0.19919273750143107,-1.2649979317211821,-1.834796378198277,1.9153605991889426,-0.8750830772936317,-0.29304313739844884,-0.7780064655370426,0.01649156463929552,0.20561830247723994,-0.4126907865418895,-0.5160283172480774,-1.0023377963912345,1.7894014522591561,-0.14720913543595449,-0.5606832577538055,-0.9525059651924765,2.025727467348109,-0.2108533253307388,-0.46196236651611783,-0.9348259239168307,-0.36566517741286797,undefined,1495632288403
903d185fccf839df,-0.3299528009653837,-0.8117322493855121,-0.40745686831609246,-0.45742819173418475,-1.0767182492024763,-1.8482780143219053,1.9186189199190298,-0.8762881417969416,-0.25420032797642517,-0.7735628410847116,0.052143267680796065,0.2436015803294134,0.40981506238859183,-0.6808267161470277,-1.0054956719691575,2.0177302606550804,-0.15798443620748887,-0.7492023258732492,-0.9842225088964541,1.4638381944131942,-0.42179344697511717,-0.4509451188333588,-0.731529152874494,-0.2460370905631206,undefined,1495632289943
903d185fccf839df,-0.7069487286287559,-1.0330370790452292,-0.6964756388695503,-0.7296729165950125,-0.9482704635938225,-1.7840399252852175,1.9046125709588249,-0.9181602661037082,-0.2888295053062472,-0.705732299984598,0.07713171509716864,0.24269088122294333,0.1356464460784314,-0.7771134552811823,-1.020232563321534,2.399625145158927,0.1132491351363038,-0.8806995676985326,-1.0626007844103968,1.2069767260448494,-0.555812515809335,-0.43865823039486795,-0.43490815057940047,-0.02236607386349267,undefined,1495632291396
903d185fccf839df,-1.0548384115350071,-1.0694321258407247,-0.8094034254414334,-0.8635347380474842,-0.7737839000815149,-1.7690605873655163,1.8974963091684154,-0.9398912606057908,-0.30283265532863823,-0.7000749121152419,0.0876733808214708,0.13611151270165406,-0.5388953877005348,-0.9595027228873356,-1.056022082457665,2.270306370259236,0.19442535893377422,-1.0001452179659625,-1.1081920039727182,0.8880749195867982,-0.6883166178390695,-0.4287796443532596,-0.27816767251436547,0.09114576498125486,undefined,1495632292891
903d185fccf839df,-1.1629475178066553,-1.0846945157918806,-0.8598064066205763,-0.9158399925577866,-0.6920640372009057,-1.7783705558157459,1.8928100004437205,-0.9724718531611224,-0.2831215845728675,-0.6938032336034637,0.08566471181486891,0.06437715006867054,-0.7086188168449198,-0.9937585673393549,-1.10865371265548,1.282228980281239,-0.32087123485907576,-1.0319429283030277,-1.161927511799218,0.38477672993260137,-0.8339144286661849,-0.43408197707792845,-0.28931997699828094,-0.06666294420263799,undefined,1495632294983
903d185fccf839df,-1.1546315070281803,-1.1070010857204935,-0.8023856877200557,-0.8679827754784126,-0.8540226214682929,-1.779451323617407,1.8531683011318498,-1.2767914832311706,-0.2814132342932326,-0.6641432266619303,0.09509805045614898,0.009916154233479057,-0.7086188168449198,-1.0789352967420827,-1.232864399531142,-0.7060490722382196,-1.1032801816253237,-1.08633024855464,-1.2239472439055668,-0.39158209453030773,-1.0525483492122465,-0.4477667712856686,-0.4746834436711102,-0.28776751202448336,undefined,1495632295887
903d185fccf839df,-1.1629476558282943,-1.1134582506998287,-0.8208883824597757,-0.8675695186723957,-0.9643572938500101,-1.765361756301193,1.8336472611172712,-1.4073464557976225,-0.2836704861624319,-0.6728346396780052,0.0959241659692317,0.17096828638854075,-0.4823209113190731,-1.1307819904751433,-1.327601353397129,-1.158665236622683,-1.3290368353810447,-1.1514329093035425,-1.286281831938596,-1.1937795110578895,-1.2806636136925342,-0.47175902210470383,-0.6564492377986877,-0.5207207849325135,undefined,1495632297388
903d185fccf839df,-1.2516525069141025,-1.0394943024805492,-0.7334805200750916,-0.7742705468771741,-1.1377947186770225,-1.7299014206919052,1.8903116997235183,-1.0127402288325373,-0.29360490324695177,-0.7012002900421352,0.11088151499366072,0.4245205463599901,0.4489820075757576,-1.1622603405885399,-1.347601380529022,-1.1990774005922815,-1.3749795348373437,-1.1869733889940628,-1.3139892034017295,-1.2655824628739636,-1.3198027531567342,-0.4767118519231889,-0.6726738937113418,-0.5290845231368919,undefined,1495632298897
903d185fccf839df,-1.2073000813711983,-1.0571047524241908,-0.8470466986639262,-0.8873140343906009,-1.2030266098751412,-1.7147590368813619,1.9787836264116294,-0.41513460839123006,-0.29708985083248546,-0.7045916694363445,0.09811862806314076,0.6346137180480405,3.173260639483066,-1.1622603405885399,-1.3412855815186566,-1.2010980066709074,-1.3813878640195867,-1.1859474521460087,-1.3032351050720428,-1.1991535702148943,-1.3002207360150886,-0.4760948442245313,-0.6694956458756602,-0.5139650955681719,undefined,1495632300397
903d185fccf839df,-1.1851237995889268,-1.0113175241147379,-0.8157842959675562,-0.8551704380939403,-1.2760344875782232,-1.715266810537056,1.970452396468537,-0.47405596037107345,-0.30149555236723236,-0.701938748750947,0.09733349992768729,0.6176358323648872,2.3333472593582885,-1.1576311736444214,-1.3339171524074944,-1.118253079719265,-1.3172894033552582,-1.1829773013896754,-1.297574685097279,-0.9971875608453098,-1.2503500890508434,-0.4756766414792042,-0.6585648482175368,-0.5078213630832865,undefined,1495632301889
903d185fccf839df,-1.1407713050352033,-1.0641489324016475,-0.8929834770939024,-0.9640076065910665,-1.2952070276101244,-1.730274096980695,1.9101719901462773,-0.8924012798605959,-0.30124103693270277,-0.6971789940270954,0.08846413389415003,0.2950951587430669,-0.23861547459893048,-1.1613345059046387,-1.3033908003403734,-0.6474514535609888,-1.1786037543545147,-1.1852318292945336,-1.2809012846252308,-0.8284052006720456,-1.208868447701866,-0.4750700398727712,-0.6578167295630408,-0.49942018484457656,undefined,1495632303422
903d185fccf839df,-1.1989839670764941,-1.0400813174786705,-0.9612507609958136,-1.0142369773021715,-1.4046365568439856,-1.7469025360546233,1.9054830458567489,-0.9626177727407864,-0.2874662830536703,-0.6908455189578603,0.090025047143318,0.020905998169725895,-0.5911179812834225,-1.1613345075234855,-1.2960223675480944,-0.6757399492610208,-1.1787612393397287,-1.186758068720785,-1.273722556684111,-0.751690145283636,-1.1902181778399943,-0.47520345547852355,-0.6588997409555798,-0.5022140859280948,undefined,1495632304936
903d185fccf839df,-1.1241391454566143,-1.024231912529393,-0.9548703987435898,-1.0168647168655909,-1.2968527377279129,-1.7636614123979046,1.899823710898026,-1.0083444811744746,-0.286699398316289,-0.6898402919909363,0.08991528231173415,-0.14211939797994172,-0.42574643493761144,-1.1622603422073867,-1.2939171009045463,-0.6919048190885684,-1.186761772756485,-1.1860487790178438,-1.2724701275188348,-0.7410344206578611,-1.1873624557251912,-0.47539115967206774,-0.6594370459875659,-0.5030751359222239,undefined,1495632306392
903d185fccf839df,-0.9245530234810875,-1.072367142375347,-0.9108477798166708,-0.9672403732348515,-1.1857260663321443,-1.8093820495411745,1.908236461082165,-0.9865209280112693,-0.2818748787838255,-0.7377755807337084,0.08710797723843974,-0.15463573975542744,-0.4126907865418895,-1.1428178381281646,-1.2949697356067391,-0.7525230721091465,-1.2108791375596812,-1.1601723712239969,-1.2652424221217926,-0.749241791528777,-1.1766889238661187,-0.4710292798184094,-0.6659639722069559,-0.5133402906986644,undefined,1495632307918
903d185fccf839df,-0.7998116886200308,-1.0154266291015877,-0.8559785958883611,-0.9106407398534999,-1.1177684664050882,-1.8283117757681695,1.9063666661056646,-1.0013391600134598,-0.2940480093853478,-0.7473474212063353,0.08774730455732153,-0.029778971674006786,-0.669451871657754,-1.1391144929171728,-1.2581275845292528,-0.843450419842202,-1.2209600127621123,-1.157772185791732,-1.2355059756695832,-0.8594792618190892,-1.1913415755450136,-0.4706923185301745,-0.6729516285434515,-0.5155583643931361,undefined,1495632309410
903d185fccf839df,-0.7651613906700467,-0.8299297143272751,-0.7666570822745188,-0.8576292766524878,-1.3624137705470842,-1.780755699906151,1.901254313507032,-0.9827868298174213,-0.3472809641946033,-0.7108372499681201,0.05675120318051145,0.07470746346887591,-0.6999150512477719,-1.078935293504389,-1.1854959216778693,-0.9040686728627801,-1.1795289985670419,-1.0915169284353607,-1.200451952822641,-0.8583089804632769,-1.156421091245144,-0.4465731707609152,-0.6072058149847434,-0.47875529281686613,undefined,1495632310880
903d185fccf839df,-1.0867167518993792,-0.7571397961042384,-0.8470461903900274,-0.9137187912016573,-1.6186201973241012,-1.7066719174833895,1.8944010320629874,-0.9634358571096309,-0.32347925378686937,-0.6704831516766495,0.05646540970075602,0.038911406604254885,-0.8087121212121212,-1.0502344506803893,-1.183390646751808,-0.9060892400774139,-1.1842948169147136,-1.0742406579727022,-1.1864373404470276,-0.8878739958547701,-1.1519240063385279,-0.44827059934265573,-0.6003822405581488,-0.47792729356898683,undefined,1495632312387
903d185fccf839df,-1.099190871583321,-0.586905271281082,-0.7653808065145145,-0.893010994249889,-1.6552372770846076,-1.4958711103242581,1.8087272015948903,-1.117413883616381,-0.22057620824146174,-0.7111256337008084,0.02542158641856535,-0.02508742187760044,-0.9044535427807487,-0.9715385608272761,-1.1507590381642103,-0.8575946941903945,-1.1305000923152948,-0.9948762077190392,-1.1209331975639942,-0.8289749408515033,-1.0801414781842704,-0.39605573256302856,-0.5640642245992599,-0.38727349392173616,undefined,1495632313895
903d185fccf839df,-1.1324552252459088,-0.5334869064520358,-0.768570733503677,-0.8970168589107517,-1.6158739144003578,-1.4142266164027648,1.827017504063701,-0.8390385663065486,-0.2434980503231582,-0.6956488622808903,0.017042753407427037,-0.09441368397490477,-0.7608414104278075,-0.9845002334511178,-1.1570748298123419,-0.9525632399483408,-1.1986996234619687,-0.9966241000577296,-1.1440226734264438,-0.8931710598766849,-1.1017632287430477,-0.3953422388889172,-0.5574546841574867,-0.37641928008691566,undefined,1495632315400
903d185fccf839df,-1.189281839483574,-0.6074507962153306,-0.6122587200218265,-0.8140793938991251,-1.5118340892543518,-1.3900840528886538,1.8762422208148808,-0.4706489255282502,-0.29581730161540687,-0.6598469326200253,-0.0038958307367913973,-0.10604565080362575,-0.7042669340463459,-1.0298660989664916,-1.2233906954939187,-1.0717791010468791,-1.2228651444160352,-1.0527403143042262,-1.1966946660180398,-1.0597206453256145,-1.176800008776926,-0.40141994075149234,-0.5980581442055043,-0.3917908561987322,undefined,1495632316927
903d185fccf839df,-1.2128441345640613,-1.0095565375763584,-0.787073428243397,-0.879064841511369,-1.5275197780362244,-1.526570481890981,1.9311920233727438,-0.4484140041401045,-0.29058777618785064,-0.6518681385955749,0.07072098836288568,-0.2801082677837482,-0.5301916221033868,-1.0502344409673086,-1.2960223675480944,-1.164727065457831,-1.2825673314458188,-1.0776667809727876,-1.224080183960632,-1.1542209045313694,-1.2140863850366794,-0.39864707417424927,-0.5993992243818614,-0.40225379001263417,undefined,1495632318399
903d185fccf839df,-1.1213671188601828,-1.0799984542628942,-0.8706524633480682,-0.9128547598604196,-1.6235264734130868,-1.5966107061804156,1.9283465770726003,-0.6111344296134426,-0.2768547859830364,-0.6467329890883239,0.09392493049100968,-0.6106635747992037,1.806769440730838,-1.0946744669422406,-1.3181276567221394,-1.1768507089957663,-1.3237289189706356,-1.1306671864760012,-1.267033605614466,-1.2182938370430407,-1.2656054221807418,-0.45399017748663456,-0.662875582909886,-0.5107848750150059,undefined,1495632319907
903d185fccf839df,-1.2059140335675729,-1.0758892323640752,-0.9414722987699882,-1.0046456224587714,-1.6943434969607962,-1.62673009751396,1.884476154838709,-0.9514950866331934,-0.29406693376501264,-0.6649837939817315,0.08760861270285462,-0.91862962085198,3.9740070744206775,-1.1409661671415154,-1.3286539871790428,-1.1970567909805656,-1.3588002413672848,-1.1745418204279992,-1.3020386502897896,-1.2420074424379806,-1.3032591320052265,-0.4768136583647693,-0.6724336096159568,-0.5302247327480833,undefined,1495632321387
903d185fccf839df,-1.1781937158451432,-1.0846945742478653,-0.973372585209411,-1.0240235796805404,-1.70549319291059,-1.6504976545745305,1.886648371452159,-0.9758723782124603,-0.29448107384063593,-0.6622510185409117,0.0883078699200687,-1.100032006415034,4.6659564393939394,-1.1678153470731,-1.3328645167850222,-1.1970567909805656,-1.3791770397544747,-1.2043383203913718,-1.3057189727619853,-1.2411451296006868,-1.3194216052266339,-0.4765078528244613,-0.6735303798480303,-0.5300393394184998,undefined,1495632322885
903d185fccf839df,-1.2336343340372975,-1.1046530841839926,-0.975286744712468,-1.0334150063155985,-1.6843457999915485,-1.656907722322767,1.8722422986506104,-1.0818843384702908,-0.2889067960527234,-0.6689958796421109,0.08990676616846129,-1.1580164469909604,3.656319630124777,-1.1724445188737591,-1.3391803157953877,-1.1970567909805656,-1.3785688234682205,-1.2078404382283594,-1.3124708952396276,-1.2442556156750728,-1.323767061968293,-0.4765975165165788,-0.6733055883584214,-0.5297983256460844,undefined,1495632324402
903d185fccf839df,-1.2571965601069655,-1.1070010857204935,-0.8495982336361372,-0.8947279693589006,-1.674646387386195,-1.6669653793140644,1.8129717242881287,-1.485276720559877,-0.2880664689114469,-0.6637834972278305,0.0915386506920755,-1.0343769405282355,3.7477091688948305,-1.1622603470639272,-1.341285583359215,-1.1788713186074824,-1.374625352677261,-1.1955165298930581,-1.315584476067515,-1.2293037251467287,-1.316750441456047,-0.4760213100054375,-0.6732937794558576,-0.5286918873581405,undefined,1495632325881
903d185fccf839df,-1.2280902463390249,-0.9608342342762985,-0.8406663364117024,-0.9008384187250897,-1.6157607704345962,-1.7296428776516604,1.824316710048081,-1.4735849654786795,-0.31111301136092023,-0.6512009534149823,0.06284593632114673,-0.7070702104051356,3.160204991087344,-1.1520761703975548,-1.3328645177053016,-1.1465416001509283,-1.3554540043535166,-1.1771826578584217,-1.2902070428832313,-0.967884318312901,-1.2425650163154272,-0.4700492865479502,-0.6171846743780028,-0.456546610723852,undefined,1495632327563
903d185fccf839df,-1.140771339540613,-0.9091768559856318,-0.8074897742122753,-0.8822082439009049,-1.4560856100975375,-1.7535315544828924,1.8619492353236384,-1.2197799584083218,-0.34970270532645514,-0.5188708198523422,0.04470860087307886,-0.46418494728033877,-0.10805899064171122,-1.1437436647178316,-1.321285556227322,-1.1222942954096067,-1.3123869210236598,-1.1469681835957313,-1.2559506569961807,-0.8485925617905393,-1.1909624604738924,-0.4318211569427267,-0.5779013348886254,-0.41717974139708824,undefined,1495632328946
903d185fccf839df,-1.140771339540613,-0.9009586460119324,-0.8036614552061612,-0.8746431694114423,-1.4490913365114833,-1.7585137973479308,1.8768207890996227,-1.1238122689971857,-0.3583966802920562,-0.486118363163257,0.027060269092578203,-0.3957306510847811,-0.4126907865418895,-1.141891998587723,-1.3202329261265253,-1.1202736787317105,-1.3055313995489968,-1.1432824103920993,-1.2537746488563533,-0.8223074148348489,-1.183228417579826,-0.428160947288173,-0.5582896315982571,-0.4011295153042287,undefined,1495632331128
903d185fccf839df,-1.0631545258297115,-0.8058620994042983,-0.6983897983726074,-0.7927690298566908,-1.3605417688608261,-1.770968238402499,1.9279389564882137,-0.7528437702524998,-0.37960415106600426,-0.6659434889308459,0.07817036106845618,-0.2265072798090773,-0.8087121212121212,-1.1104136468554795,-1.2897065703782875,-0.8636565018270013,-1.046733437562462,-1.0206702886956864,-1.222827754336576,-0.5985372044920414,-1.068026440126318,-0.3702054506011381,-0.3410310844870124,-0.32687521890584204,undefined,1495632331896
903d185fccf839df,-0.5115206465478764,-0.8287557135590248,-0.1286457624731748,-0.2171154152821294,-1.0916427922624234,-1.847553621109533,1.9500924507203383,-0.625081913611196,-0.35332508887782954,-0.8252621948015045,0.12901631222993362,-0.0008048286062219339,-0.5998217468805704,-0.8428476563219855,-1.039179952070117,0.39114097179067686,-0.14302437843399446,-0.7680998269662773,-1.1257749906784207,-0.13348875300332502,-0.8274860413478897,-0.24213204800693916,0.007342275016301113,-0.14417838190290744,undefined,1495632333427
903d185fccf839df,-0.1289806656916412,-0.7365942711699899,1.2424408692525266,1.136955850133246,-0.7470513713559822,-1.909019915129951,1.9735739873214293,-0.417577457241968,-0.3013251242347705,-1.2050252219910025,0.07457080025554853,-0.04411479163147193,-0.7042669340463459,-0.14291723750372382,-0.8581270952675889,1.239796273828638,0.2370289293780518,-0.5619245120237546,-0.9743640033438288,0.3642044034373228,-0.5896112010106945,-0.17011712992497394,0.07600838936103943,-0.08051434227204146,undefined,1495632335338
903d185fccf839df,-0.14561272175400103,-0.6902200570904079,1.5716549562745872,1.555850929869025,-0.6174618713335265,-1.9170488025603327,2.0020495254138324,-0.183999446739304,-0.3383557882705701,-1.3155076217400192,0.11438819737804722,-0.0341119518810762,-0.7042669340463459,-0.04940801537204742,-0.8360217950501931,1.251920002160738,0.28091684918258103,-0.4956375907850329,-0.9530727080601973,0.44649369605036354,-0.5365472521835604,-0.16986494263844137,0.056654759769721,-0.11081708928591998,undefined,1495632336708
903d185fccf839df,-0.13868272427374176,-0.7090045662582847,1.6654426726375962,1.6951305892776465,-0.5591933987088881,-1.911502883983065,2.006588571429694,-0.13303740366773914,-0.3382158992492492,-1.3771634867742437,0.11177462672266694,0.02756620146320768,-0.6476924576648841,0.03854619218083474,-0.8202323104081888,1.3105176173048785,0.27054202775731184,-0.4551827467178063,-0.9376307464064343,0.5185276233365241,-0.5002178191722378,-0.1804159637092616,0.04243941054478584,-0.12948554265162596,undefined,1495632338410
903d185fccf839df,-0.08740016322893944,-0.7242669269814485,2.053991383926285,1.8872092725172835,-0.6004184746956578,-1.9221731284337091,1.9931949640577138,-0.21201836964865772,-0.38791459552619084,-1.573681965995817,0.10776811638437134,0.03846348712303086,-0.5388953877005348,0.06354370274461701,-0.8297060254887629,1.427712706269552,0.1843690790519083,-0.3963370339788936,-0.9083630864420059,0.6440711496793643,-0.4407336184443563,-0.20602144536805983,-0.027517455733097218,-0.17753834388391096,undefined,1495632339388
903d185fccf839df,-0.09017225883619041,-0.7823814702514504,1.3611108801966314,1.2823644529920353,-0.739439958724343,-1.9527746727152722,1.9371669415559951,-0.6385075612394238,-0.3018863445720549,-1.4960758772154712,0.014371957034551209,-0.02838872678324501,-0.4083389037433155,0.04132368975715095,-0.8402323412211987,1.7308040208357056,0.06231589742364924,-0.2506096660273639,-0.8203222158720047,1.7306162541369783,-0.09928588343373373,-0.3307673584653919,-0.5320175148739348,-0.3045332826722669,undefined,1495632340888
903d185fccf839df,0.29513985213270555,-0.7412904057689571,0.9023809796399236,0.73939633976999,-0.5070449206413936,-1.9780818572798422,1.9536242731056879,-0.512557334572065,-0.36998833367579964,-1.5461760709886574,0.14610647377981184,-0.012400780549239277,-0.2734305369875223,0.03854616304159201,-0.7907586086880076,2.1389668090933194,-0.1963930785476769,-0.09982227711295465,-0.7454563393386323,2.0948048895679956,0.062317187977025124,-0.451804900005259,-0.8678141065162833,-0.5127215764929093,undefined,1495632342390
903d185fccf839df,0.41988104897212325,-0.7272020165860515,0.8449600066024535,0.8874312287002994,-0.44888958999799977,-1.9429848813630817,1.9368171923606354,-0.5512927126282793,-0.3551296654828573,-1.545224599183072,0.09093908560955744,-0.06459872092145903,-0.4083389037433155,-0.0133005404045494,-0.730758523611212,2.0642041898642036,-0.18643273154739645,-0.09119047421073286,-0.7199319731320556,2.0358442398540437,0.053224663160957336,-0.42015280699399804,-0.8776330389659381,-0.5574070935151137,undefined,1495632343889
903d185fccf839df,0.28820964761998785,-0.46891513974671384,1.502749280355724,1.4753740952102998,-0.3749662818836149,-1.8697396263815862,1.9223611480556686,-0.5199005417704822,-0.5498699709534592,-1.2809057904991301,0.044453185766066376,-0.08006378664345777,-0.6085255124777184,-0.1743956135186697,-0.7444427517327394,1.7348450563384477,-0.19037654053010913,-0.17398104888186755,-0.7541813630217988,1.8152769084930434,-0.03819029401364121,-0.4285659564415989,-0.825284001853034,-0.47493782948413693,undefined,1495632346906
903d185fccf839df,0.08446562377145278,-0.4906347531331898,2.1043943651054278,2.090031602350003,-0.3845834120654819,-1.8261246223058014,1.8748799957147342,-0.7894781487820971,-0.4906292813022179,-1.3353153554386312,0.042663879723637055,-0.04731093863352532,-0.6172292780748664,-0.2234648032000267,-0.8086533424882549,1.1589719317570804,-0.26385277473732494,-0.17726151348528993,-0.8089733891622186,1.6608304957665088,-0.08462028538335087,-0.4096999553071584,-0.8995806080103026,-0.45141780763559874,undefined,1495632348408
903d185fccf839df,-0.09987424840747149,-0.561076611363741,2.0865300623826593,2.0098647984281643,-0.632777279215106,-1.822423460471484,1.9283465786438831,-0.5075599373154501,-0.38257485707184813,-1.521606996918103,0.0021943817301554145,-0.06663776968694193,-0.7086188168449198,-0.2401298080840858,-0.7970743672060872,1.1569513998733485,-0.2327909808113217,-0.22571486602609597,-0.8400462260392108,1.7619058899662206,-0.09560779224616141,-0.40705467727396966,-0.9010055448801231,-0.43759702512842963,undefined,1495632349891
903d185fccf839df,-0.1941233942240108,-0.6444328287809551,2.014434713611583,1.879706945923645,-0.4702735502139532,-1.8896429731940927,1.9123731304077403,-0.7150891348968386,-0.2825574270622439,-1.4950922467880554,0.13949410114198413,-0.0647924711401955,-0.6955631684491979,-0.12069724718011322,-0.8728639700549393,0.4921713675823124,-0.49979124901151056,-0.15957993436705498,-0.8705523199811944,0.8623441087917232,-0.27820351325473264,-0.34734304001851407,-0.6181082322547795,-0.5836762157731429,undefined,1495632351451
903d185fccf839df,-0.15808697945958175,-0.6238872746187142,2.0520777326971267,1.8818901267017434,-0.5819247914765058,-1.9047504184829631,1.9195367218516033,-0.7089912898520768,-0.23340000322291912,-1.5415053859000196,0.0672208011638619,-0.004599485145981203,-0.8043602384135473,-0.14662057947702212,-0.9118113794934608,0.24161600184730037,-0.5767714825231114,-0.1590099690595965,-0.8917596542132996,0.5669711279718085,-0.3467853173469365,-0.35023099456859746,-0.565127503973542,-0.5426386215540735,undefined,1495632352896
903d185fccf839df,-0.04304773768603537,-0.6015806754621091,1.497007310120452,1.463393689833917,-0.36814686490115045,-1.8914458032913515,1.9214012519835673,-0.6198122396938734,-0.2637666426988143,-1.527566358964567,0.12514215394633532,0.01656724664021088,-0.7042669340463459,-0.23179727974050715,-0.8960218617214044,0.6275520066480534,-0.413147276602354,-0.11650325276901476,-0.8997150275806097,1.199847244578148,-0.1982646539961066,-0.3318652510021139,-0.27472152893624013,-0.5585891146132986,undefined,1495632354430
903d185fccf839df,0.055359344508921986,-0.5240945934121127,1.7305195212764461,1.5981638615170983,-0.3662131513852743,-1.9016338954408984,1.9291249978503175,-0.5327306753964263,-0.2715151905690132,-1.9843172662952726,0.13998780961914226,0.09749452019481916,-0.673803754456328,-0.10310639142368479,-0.9160219072588818,1.4337746128326843,-0.14696417575474643,-0.08671941836079705,-0.9262119497894653,1.786789783838534,-0.0614278789446728,-0.28749956842947233,-0.410883909542601,-0.6720496569836132,undefined,1495632355877
903d185fccf839df,-0.015327471721720323,-0.6309314399821746,1.7847508214617032,1.655624256958082,-0.39938452694101434,-1.9270831631755372,1.9226004449817946,-0.6124148925489951,-0.2625256230398918,-2.036643588001977,0.1475737067275465,0.04634381931275155,-0.8348234180035651,-0.10403221639450505,-0.9086534891910704,1.7166598736787602,-0.07724395673156427,-0.07727699914955906,-0.9316274809064145,1.5956334821894942,-0.09502577093167763,-0.2845663013589156,-0.3335717436566493,-0.6436310566173306,undefined,1495632357381
903d185fccf839df,-0.20659741039172336,-0.6497159783780437,1.5856914482651403,1.5998600097356195,-0.7230445547602726,-1.9653735280247566,1.9139457602116532,-0.807081993594878,-0.2622711626232481,-1.9367275806813042,0.0621233232315357,0.13720979369517053,-0.7564895276292335,-0.19754144500156873,-0.8876008135527961,1.8318344590244235,-0.11093300799189287,-0.10780812163147548,-0.895474959651042,1.7512809704298848,-0.07576296130531109,-0.3184063632012652,-0.2966443826368385,-0.6209698283254891,undefined,1495632358879
903d185fccf839df,-0.176105221347206,-0.6643913387170822,1.550600726562656,1.4282272566036194,-0.7620376347397598,-1.967672487359296,1.9481989791324907,-0.601358832660444,-0.2869884563670839,-1.633032870530841,0.04780785239942496,0.11558293964138863,-0.5650066844919787,-0.14662055357547302,-0.8918113339559833,2.0056067301760314,-0.018925138314387996,-0.13584406313626307,-0.9000998524785628,1.969769513028792,-0.04775752380971808,-0.3491938610452063,-0.15975521167287932,-0.6022547074328238,undefined,1495632360389
903d185fccf839df,-0.3853932983886041,-0.539356997977265,1.2315950666619842,1.0465121989291017,-0.9309082071929397,-1.9003621332579814,1.9855238095463883,-0.3393504465114086,-0.2609165006389222,-0.9513370466963406,-0.0886163483412986,0.008561002656440475,-0.7303782308377896,-0.13921394085813646,-0.9433903487774694,2.2763681778958427,0.03429759468488799,-0.1895284275864546,-0.9312216676005785,1.861241269200269,-0.10165162411042114,-0.3581514318808849,0.02408213390970212,-0.5149787732964706,undefined,1495632361877
903d185fccf839df,-0.3216366521652697,-0.5082452176908276,0.9540599824421214,0.8686261889294942,-0.8523151986046481,-1.8946065830976495,1.8917449347547919,-0.927107030271471,-0.3487668134196391,-0.909030972463955,-0.05423467432377317,-0.035834541730065624,-0.7956564728163993,-0.043853036407883184,-0.9497061588311855,1.4741868050670044,-0.15583006860289841,-0.1873498930014521,-0.9292975440283714,1.0284933315761802,-0.2685005868535068,-0.3520711434655885,-0.24989437062490677,-0.5815242802424546,undefined,1495632363440
903d185fccf839df,-0.3451988782349375,-0.5199855030392593,1.0612457987787323,0.9516692771959565,-0.9312887796778043,-1.8373538830733136,1.864415988877495,-1.0653447517926702,-0.36706622943602324,-0.8545776330255248,-0.13012516537516033,0.019404225913853854,-0.9436204879679144,-0.2216131273568371,-0.9665482846173372,0.4315531781573577,-0.40807855139045074,-0.24059095081287624,-0.9247426201598887,0.4449846479658334,-0.4202661877063544,-0.3943794586286963,-0.20454050868112042,-0.42079267286416705,undefined,1495632364871
903d185fccf839df,-0.5184507820497747,-0.5229206072578585,1.3898214937838411,1.3637259380787259,-1.0415617396337484,-1.866949194502372,1.9622842153877136,-0.4976063481751052,-0.428428764520418,-0.8534386399514617,-0.10187499377955786,0.0030878639638190477,-0.9653799019607844,-0.29290236240259654,-0.9760219996979114,0.261821999037935,-0.52755028249851,-0.3283085547846921,-0.9267926857773404,0.29175471906647427,-0.48886252573265826,-0.4006585652292322,-0.29301972539438326,-0.43497504582849633,undefined,1495632366381
903d185fccf839df,-0.5641892208908945,-0.5957105254808952,1.327296180117202,1.1932682917422983,-1.1039650628639541,-1.8788492778145496,2.017368135303418,-0.15813163056623744,-0.36065362023630715,-1.0427059716718476,-0.09039149486473753,-0.04024251011502944,-0.9523242535650625,-0.297531539059796,-1.0191799221773863,0.49015086396330215,-0.4061318710151154,-0.333311580832425,-0.9449144259907538,0.6635039908077484,-0.40546947627924296,-0.4035076157982021,-0.27238894726616725,-0.4325295209358673,undefined,1495632367884
903d185fccf839df,-0.30223253500106867,-0.5076581880787101,0.8864305822832628,0.6677512497376693,-0.9333870643302918,-1.7884282111833967,1.9380268883361293,-0.5182129049315806,-0.14927162012848336,-0.9798131320453659,-0.14190823764769553,-0.05017449196324644,-0.8783422459893049,-0.3012348130415279,-0.9686535521811647,1.017529386128207,-0.24702358069584843,-0.3736967617274571,-0.8946353431410585,0.9028574193801692,-0.36208477993832733,-0.4379333165694411,-0.4388305813672291,-0.2784412755157653,undefined,1495632369380
903d185fccf839df,-0.07076803815576015,-0.4436734655995018,0.8098692848999693,0.7867011528833125,-0.8122009805787311,-1.7405087741393002,1.8631037185204185,-0.9105386797797046,-0.15695648241910432,-0.9559507539622215,-0.14401892210838022,0.014453131321257813,-0.8957497771836007,-0.34567486491800914,-0.9433903929508721,1.0437972898819738,-0.3187935953755046,-0.33130403779188855,-0.8926692393519999,1.0051492935433728,-0.32416212038687564,-0.4368639338512631,-0.49623832117897804,-0.26868924528551696,undefined,1495632370874
903d185fccf839df,-0.10126036522191643,-0.31335598987659213,0.836665738984122,0.7941019760124736,-0.7162662793296402,-1.765927761591051,1.8891466800287746,-0.7447989359682536,-0.19202096665836363,-0.8825255428270204,-0.19090434363217793,0.03209887802205265,-0.8957497771836007,-0.2419814839272754,-0.9476009133540594,1.025611824575071,-0.2692379510399757,-0.2879613713524045,-0.9036402389779075,0.9902127988084,-0.3061383966906903,-0.44884442047739154,-0.5372474557532458,-0.2413585081934154,undefined,1495632372383
903d185fccf839df,-0.13729671097552598,-0.4372163883041436,1.8287736945255717,1.7223362697059283,-0.7133965707341361,-1.827843599851017,1.8259287690960777,-1.2508900806453305,-0.391557821869462,-0.6803785879724279,-0.14705282610166315,-0.001792407871491492,-0.8870460115864528,-0.18735726671634959,-0.9844430331420521,1.260002313416355,-0.24357057070864513,-0.26655602215467966,-0.9175219123322388,1.1157717219542846,-0.2778131381262214,-0.4611645783939661,-0.552443441087574,-0.20399620919123979,undefined,1495632373887
903d185fccf839df,-0.38262134080299204,-0.5886663162754462,1.9595660379571727,1.9100680869818292,-0.6126275955699264,-1.8549675886524972,1.8970518671454506,-0.8249370846442443,-0.36950210507021497,-0.8896912047573672,-0.04483120159944969,0.001703234523145764,-0.9001016599821747,-0.2642014645378051,-0.9791798679136005,1.1508896063691023,-0.3544715381786692,-0.2657834021014146,-0.931025756443369,1.3041562999227931,-0.24350183062170588,-0.45424733144823615,-0.7009541232794237,-0.21240065541912193,undefined,1495632375431
903d185fccf839df,-0.4297457929423276,-0.6432587695567199,1.8243072376394553,1.7185872353734482,-0.5110151957812225,-1.8518487376908805,1.859984759042273,-1.0488498833952211,-0.39042267207683173,-0.8252913593287631,0.037839243665049795,-0.06647603481262335,-0.8783422459893049,-0.247536459653746,-0.996022001061986,0.2901106325284844,-0.623523699654845,-0.20179533816629974,-0.9934163184495788,0.4885468443176603,-0.40973822782475144,-0.4218145430431978,-0.5683070573568934,-0.49460798214647134,undefined,1495632376889
903d185fccf839df,-0.3521290482422455,-0.5604895963656197,1.7924069512000325,1.7912817720189425,-0.42423477106997626,-1.8345448190344749,1.8983325940025075,-0.7242063901894303,-0.34097696287605245,-1.0508006656405504,-0.041211804721267224,-0.1724696269706653,-0.27778241978609625,-0.2521656363109454,-1.0454957409574108,0.26990463533784975,-0.6754602338295709,-0.198831519982687,-1.0057796835011157,0.409383438526507,-0.4292888755332788,-0.4491048822493819,-0.5014988815743654,-0.4777278696430065,undefined,1495632378389
903d185fccf839df,-0.11927846908790174,-0.4407384198368872,1.5506004724257068,1.5141135821400153,-0.45806443045197404,-1.8053454759221514,1.8493024984204645,-1.0119925324365575,-0.3455099307694421,-0.6350250555769773,0.05127797143981524,-0.08965206273561385,0.10953514928698754,-0.36419157154680687,-1.0791799925297145,0.3264814783481256,-0.7271811553270222,-0.3284352113162304,-1.0227119655779922,0.5761486033963679,-0.45787509127797127,-0.4473621238896113,-0.6174741802857596,-0.450762474257918,undefined,1495632379882
903d185fccf839df,-0.023643482500195368,-0.41138769915881024,0.5208500060726126,0.47451296564252315,-0.5550482687699395,-1.7858823529452437,1.8634166677513966,-0.9505507950534314,-0.22715660588384518,-0.4965077039599102,0.013524687414312328,-0.17824280276332827,-0.7042669340463459,-0.4530715716935729,-1.0665484018712175,0.3547700553092319,-0.6803952616396631,-0.41824901940164966,-1.021144679617412,0.6871713942159684,-0.4807724918676247,-0.43762715658461676,-0.6175356707930924,-0.42072230751835993,undefined,1495632381373
903d185fccf839df,0.10248379664825756,-0.43252023909118015,0.42451024646349367,0.4137548388583406,-0.48112496216794864,-1.8016676085902095,1.8804551785339028,-0.8473805869661093,-0.20222626728820828,-0.3791161544715156,0.02856355276499157,0.07971869695861887,-0.8174158868092692,-0.5512100287609343,-1.0654957680893038,0.4376149999263253,-0.6006616263888238,-0.4724970140231027,-1.025090881068082,0.7828727333512167,-0.48245626035321393,-0.43746668356696594,-0.6292776107598864,-0.4123125727006331,undefined,1495632384079
903d185fccf839df,0.07892157057858977,-0.413148714925182,0.3645372301799138,0.33478883327160996,-0.5136997654029644,-1.8042996487242728,1.8428778796548426,-1.1059946296851428,-0.2126150440150489,-0.3318622024634079,0.03650074433160512,0.06928801418902573,-0.7434338792335116,-0.5493583270161956,-1.0612852292805321,0.4376149999263253,-0.6060995719537959,-0.4852198981588898,-1.0205359570711412,0.7747577524529383,-0.489050959933986,-0.4378588274542669,-0.6288080910800795,-0.42056739168050405,undefined,1495632384384
903d185fccf839df,-0.20243940500248583,-0.38732002577984864,0.33774077609576114,0.26973739861838786,-0.4489924437315415,-1.806060553838447,1.9059353731000175,-0.6906294488038867,-0.20165810636976822,-0.530073776132231,0.04834253830874796,0.018138944208052638,0.20092468805704103,-0.5299158213181266,-1.0707589296366387,0.370934988732403,-0.6365586927674042,-0.49485863816458375,-1.0208718049107808,0.6659831350589028,-0.5151660201782111,-0.4404040078457216,-0.6500067271435638,-0.43174692383266405,undefined,1495632385900
903d185fccf839df,-0.15115677494686405,-0.3679484139298735,0.5508366412828772,0.5572092881373546,-0.1270089828551172,-1.7897954767566078,1.8713455309556588,-0.7950820366538861,-0.291727923033594,-0.48007717154764445,-0.09761373633352831,0.029790659263919387,-0.1124108734402852,-0.5817625118134935,-1.0633905042065932,0.6174490645821792,-0.6146249458790487,-0.547846380072622,-1.0216134674081272,0.9637890778251484,-0.4762715389764823,-0.435962202879893,-0.6224699324081262,-0.4224663152297245,undefined,1495632388832
903d185fccf839df,-0.13729664196470653,-0.39612516306769247,0.5508366412828772,0.5572092881373546,-0.11581814511743026,-1.7880881443306378,1.8718188955791153,-0.7869844565273976,-0.29529742093390676,-0.4874096354588706,-0.09929927174424652,0.029790659263919387,-0.1124108734402852,-0.5780591601271143,-1.0633905115688271,0.6275520066480534,-0.6146249458790487,-0.552596087996766,-1.0191925709304355,0.9870407317144982,-0.4717911576088533,-0.43627751191009956,-0.6357036590351839,-0.4079088811934469,undefined,1495632388884
903d185fccf839df,-0.08047009673786068,-0.3644263823971299,1.0497613500342886,0.8555518007486053,-0.32095608464407194,-1.776973014487645,1.9289777299038753,-0.4405303987189764,-0.40044162186790433,-0.5315650845712154,-0.08898959629926234,0.032857425549726635,0.12259079768270946,-0.6586067096349489,-1.0297062599965234,0.7750564588400589,-0.5712123656743257,-0.5902707713620305,-1.013609115832496,1.1906235765635613,-0.43905823769246677,-0.417230476033669,-0.6174035362399908,-0.42799577825184154,undefined,1495632390379
903d185fccf839df,-0.05690787066819289,-0.4471955848162225,0.6822666143205814,0.6349280672070179,-0.43638217544140967,-1.6377287619313141,1.8879422363275553,-0.5197544626601213,-0.42017501973202853,-0.4591347378964005,-0.13275393181391593,-0.01241034929172976,0.0660163213012478,-0.5928724891679837,-0.9907588358335344,0.595222337654762,-0.5771881459948345,-0.5729438362647663,-0.9685986319705476,1.0228729119121027,-0.45262911991891525,-0.4393777111411537,-0.6332336760573507,-0.47094449358244844,undefined,1495632391917
903d185fccf839df,-0.29807446060101167,-0.42665005988197396,0.455134765416811,0.32109360694993766,-0.8394169345984291,-1.577571502562101,1.8826116105652009,-0.5181227101819017,-0.4246805535585401,-0.7824816018967754,-0.1401820364858102,0.07861040722031021,-0.8870460115864528,-0.50584408715976,-0.9507587668452809,0.4295325614794613,-0.6541164810477543,-0.5143514415497825,-0.9124072438933579,0.6876487542771988,-0.47125902225345906,-0.45229205413925083,-0.6840340729790034,-0.5590311101987959,undefined,1495632393382
903d185fccf839df,-0.4269738008513058,-0.5681207913411976,0.39005791677796103,0.3007260255962712,-0.942335618065059,-1.4961529442263586,1.8741331105806227,-0.4566306418779564,-0.37688961426054146,-0.8141504492255441,-0.07206926424668042,-0.057548901026482906,-0.8870460115864528,-0.5530616268994766,-0.9118113868556945,0.36689369884716716,-0.6345156633246674,-0.5025848325127782,-0.8890658831390842,0.5148627990687141,-0.4937925597302765,-0.4599018000176747,-0.6475409860317404,-0.5468278254907932,undefined,1495632394869
903d185fccf839df,-0.4865723726745832,-0.46245803322336326,0.4359946952079371,0.38283805457520514,-0.9799401266737616,-1.5453301748786965,1.8470645210075969,-0.7299589055600324,-0.39867340374197263,-1.0031458568430218,-0.09141835666266925,0.026499638456094834,-0.9305648395721926,-0.5271382946025677,-0.913916654419522,0.11835892152532995,-0.7255652462011082,-0.5222169567721401,-0.8873936452783877,0.35644358677084675,-0.536616159537871,-0.4637985720911556,-0.6691804299621933,-0.5447605808956186,undefined,1495632396389
903d185fccf839df,-0.5919094868552096,-0.3186391833156693,0.3543293113324241,0.20342649270901803,-0.9699218605230133,-1.6193557244640566,1.866456718460328,-0.7438223107697165,-0.35411280107995224,-1.023012646458329,-0.07692912623103884,-0.013615151186769427,-0.9175091911764707,-0.4604782232632331,-0.9054955547152771,0.025410978312919198,-0.7842432966724834,-0.5187085053935151,-0.8875965527020554,0.18465852806623032,-0.5745715603612657,-0.44218806642239356,-0.7151007435643139,-0.5275296360744466,undefined,1495632397885
