UUID,iqrAccX,iqrAccY,iqrAccZ,iqrAccXYZ,meanAccX,meanAccY,meanAccZ,meanAccXYZ, covarianceAccXY, covarianceAccXZ, covarianceAccYZ,pressureDerivative, pressureIQR, iqrGyroX, iqrGyroY, iqrGyroZ, iqrGyroMagnitude, meanGyroX, meanGyroY, meanGyroZ, meanGyroMagnitude, covarianceGyroXY, covarianceGyroXZ, covarianceGyroYZ, class, timestamp 
903d185fccf839df,-0.3895514072940708,-0.25406750429432434,0.5738047763609159,0.5041976997658673,-0.9099834651969553,-1.6655383003274042,1.955659923221551,-0.2323250232043965,-0.33606120695324326,-0.46921081758111327,0.20544370264310163,-1.5533467032044392,-0.9545001949643495,-0.31141901075290884,-0.7149690647370258,-0.0816812675124055,-1.0222138330393309,-0.568591520858127,-0.4310310198106055,-0.2827689779667122,-0.5123607814767001,-0.43095788472529384,-0.787875542864606,-0.4794992763950535,undefined,1497236290907
903d185fccf839df,-0.4671681692468578,-0.2966260624301326,0.4777843398287474,0.451411817152452,-1.0524427982296414,-1.5353478068248312,1.8922700541950919,-0.4430385982940222,-0.2878288533229527,-0.5712911381931979,0.05465408416252939,-0.9713415672151067,2.194087009803922,-0.5076957630029496,-0.8012849317826772,-0.4837822057363297,-0.7080952049907023,-0.5897409100461399,-0.7796544153425591,-0.4733889025732139,-0.693369965606353,-0.43015477323285756,-0.6652045645541916,-0.4099420117502342,undefined,1497236292358
903d185fccf839df,-0.4650891320468293,-0.3277379157865508,0.43471841944793277,0.44979066299945236,-1.1219194371647743,-1.5245710342850232,1.901489100031096,-0.39541559711180657,-0.3061418964749816,-0.5291769013726308,0.024646646036984153,-0.5530035318589185,3.308169006238859,-0.5799107841672057,-0.8886534657402942,-0.31000992045236114,-0.7499986069757906,-0.6099744661886819,-0.8766086518050116,-0.26964035661730984,-0.7021263956933274,-0.44886114835780194,-0.6500423617830984,-0.48616778893615104,undefined,1497236294187
903d185fccf839df,-0.4643961253977214,-0.3984732815161627,0.8443216145855019,0.783941582931454,-1.0482957625563047,-1.5050393977231473,1.8536429079051422,-0.6482712804734757,-0.38791515309759506,-0.2792749966999022,0.029450743292567652,-0.38159220694490614,1.8459363859180036,-0.6206475232096313,-0.9591798518250582,-0.5120706979032714,-0.8601035586290959,-0.6596580885897619,-0.9488717678696378,-0.2890325695694516,-0.7597559336615693,-0.4482824673858547,-0.6275928884702018,-0.5068119983133962,undefined,1497236295368
903d185fccf839df,-0.49766061708194814,-0.3967122949777832,0.8730324823096611,0.808090120588808,-1.0785593885322475,-1.387729193053725,1.8120986253481113,-0.6913209816067187,-0.43292043991794543,-0.2526215999368794,0.08231831374748107,-0.17607511059840938,-0.1820409982174688,-0.6150925474831608,-1.0065483020699542,-0.5120707685650753,-0.8482875820524822,-0.677322507923665,-0.9609651095511179,-0.3798836775086225,-0.7868051730722664,-0.45137723292599424,-0.6333670772937132,-0.5122249104064047,undefined,1497236296932
903d185fccf839df,-0.48518646289259665,-0.44895662981058665,0.7990227198985786,0.9263223671201471,-1.0752371102513074,-1.3601393525869425,1.7402181313309473,-1.0728543889857296,-0.5200026666010674,-0.25520748668817606,0.09545427492573158,0.0988674168827154,-0.8565828319964349,-0.6049083691979417,-1.0054957087803262,-0.5140913569782501,-0.8571941814293786,-0.6535789034182035,-0.9779212448090217,-0.39374278051639994,-0.7860978849856984,-0.4314052719118063,-0.616918106289388,-0.5075499502061311,undefined,1497236298393
903d185fccf839df,-0.5628032075926788,-0.4149097599195462,0.8736706201896632,0.9110550634590604,-1.1596929669877438,-1.3916795804622146,1.802323632779717,-0.7484651465786485,-0.489025653964954,-0.33955062131985353,-0.061523303159024864,0.03295192908633075,-0.9088054255793226,-0.6002791795899676,-1.0654957717704208,-0.4635761237515304,-0.8684245949155236,-0.6371028876693611,-1.032864339401814,-0.38423704085847354,-0.7977398944842365,-0.45490227827163005,-0.5788168117322134,-0.5166581416211433,undefined,1497236299951
903d185fccf839df,-0.3937094816941278,-0.3356625598052049,1.3923735370299508,1.3298559534973278,-1.01424292835359,-1.51896551531418,1.936930251387854,-0.03734982132670493,-0.556358619060336,-0.2921088776854666,-0.3106934053748411,0.004714508949755721,-0.9305648395721926,-0.46510742582198167,-1.0349694105005076,-0.40093730351631857,-0.7838698459406548,-0.5772502377716094,-1.0044153065974586,-0.26723965160369917,-0.7344238117954208,-0.4645695214013153,-0.5553127750526726,-0.44513420555027283,undefined,1497236301362
903d185fccf839df,-0.18164913651843007,-0.28694034418912207,1.8192034052841852,1.5784635283854984,-0.8786671489777877,-1.6918509677380853,1.963267762930639,-0.12040293900536532,-0.5323935833789762,-0.49926364186274924,-0.28070907197841805,-0.021399771955327003,-0.7390819964349377,-0.3049381906294562,-0.9602324892880888,-0.09380486865325843,-0.6093136809899227,-0.4660310817231418,-0.9459359614431173,-0.18314874192350317,-0.6434125289504588,-0.43211772379391505,-0.5106128504858899,-0.4617250702146968,undefined,1497236302845
903d185fccf839df,-0.09017225883619041,-0.2652207600306384,2.422124257519995,2.2817175326759087,-0.5446185667515725,-1.7870236826237396,1.995998336121243,0.059062034599931465,-0.432858513383361,-0.6451338521704708,-0.2280615768603603,-0.053573707140281854,-0.6041736296791445,-0.3030864888847175,-0.8644429071618633,-0.0655163764863167,-0.6246226874628008,-0.35925765052503333,-0.9037311991280914,-0.01644517172393982,-0.5520727875669111,-0.44212030349366044,-0.5334200204819405,-0.46920063102879705,undefined,1497236304376
903d185fccf839df,-0.20521143159891733,-0.39906026728629174,2.3372686925183697,2.241699185625455,-0.5938047624955773,-1.8242845227936526,2.0010107478080834,0.03519677212595504,-0.46961588336132254,-0.882524722702786,-0.1965449888444512,-0.05508614501588567,-0.9175091911764707,-0.17532146439103904,-0.8223375706097825,0.14866803037016807,-0.6352286985871545,-0.21976823083891173,-0.8701325133227558,0.17016858928579737,-0.4310018596376251,-0.5356551254505253,-0.5019100021936383,-0.46596019673790134,undefined,1497236305888
903d185fccf839df,-0.17471910453276104,-0.37557963813344386,2.187973908483998,2.109516816826561,-0.6061270332651517,-1.8253769364443848,2.053009902499561,0.3503397831465663,-0.5324831552186662,-0.4736483579961933,-0.12092714308172649,0.05447217575227612,-1.017602495543672,-0.20865144825760812,-0.7781269812183417,0.2355541518136112,-0.5649296615878834,-0.1936891675573451,-0.8326016186853054,0.31659240457093346,-0.3863876670872429,-0.5165543077481525,-0.5510186215176747,-0.4578126835479335,undefined,1497236307362
903d185fccf839df,-0.31332060688138497,-0.5012010230993749,1.8766243783216552,1.915354156237247,-0.5463362779349388,-1.8755277867657618,1.8893255176632808,-0.7725172850466129,-0.5492714814873434,-0.12183854781846613,-0.10894456892100099,0.011232142088450496,-0.9175091911764707,-0.1586564465562054,-0.7970743966550223,0.15675044055231055,-0.6330507261334295,-0.1955510533140882,-0.825947651504883,0.3388277594722756,-0.3798145397881454,-0.5787809419712857,-0.5517413606012852,-0.41339749260564607,undefined,1497236308864
903d185fccf839df,-0.3050045270920904,-0.5006140081012534,1.772628488974207,1.8067974318855995,-0.47970553764507445,-1.8809828638506143,1.909162137236063,-0.6119745676839721,-0.5495884868376228,-0.3516831751061299,-0.15160138162878575,0.07177131349320535,-0.678155637254902,-0.14384307866301227,-0.7518111845250186,0.24161597358257883,-0.6322127570337032,-0.16482994506871634,-0.8099739312885821,0.5169415797264969,-0.3285497593656626,-0.5671016751384419,-0.5619713060120418,-0.34868287012638594,undefined,1497236310408
903d185fccf839df,-0.2232296044757221,-0.5117672638375674,2.1618153381428984,2.320753258619661,-0.5409157174021363,-1.8463470761899814,1.9565906872225933,-0.25941833850964624,-0.587885639248199,-0.5434151127098502,-0.09519980086193383,0.08186493588411185,-0.7738970588235294,-0.16606303337199285,-0.7697059330497334,0.08198801917624574,-0.6114125758982212,-0.1868179266184176,-0.8422852038803751,0.4603522957808004,-0.3599588437270626,-0.5255415275104471,-0.6021027173102915,-0.32200421318058525,undefined,1497236311877
903d185fccf839df,0.0816935281642018,-0.5100062480711957,2.2792095816008975,2.2133734760254224,-0.40536051336143747,-1.8632270717621044,2.1555276207478644,1.0876596019921692,-0.6727283872656364,-0.15678863351021108,-0.2258158101550165,0.01658936841389666,-0.7129706996434938,-0.159582232674702,-0.7297058566992461,0.007225456476573255,-0.6576932229724107,-0.08849264448400648,-0.8099949222411624,0.5688343455519038,-0.29141030236875287,-0.39581525174924587,-0.6375705915698683,-0.38305656339861494,undefined,1497236313447
903d185fccf839df,0.045657147905182514,-0.5540324021582921,2.9350852041250097,2.924843903811598,-0.3260886475282839,-1.8379967534068595,1.9774503042709406,0.009591501713502783,-0.7027107796892473,0.4545080102595015,-0.27409314220742603,-0.09890392782838431,-0.5258397393048129,-0.19661559412919938,-0.8023375471590064,0.15877100070076386,-0.646655965833653,-0.025581180929755,-0.8372125172916011,0.7062808670880055,-0.24313331346488742,-0.3687406517021971,-0.5896678276404055,-0.44014841078726435,undefined,1497236314942
903d185fccf839df,-0.08878624553797466,-0.5869053005090744,2.7232653605609487,2.8175702745035824,-0.0370914254664195,-1.85653050993856,2.0390377291997632,0.46635796897490045,-0.5759191161093873,0.7595112333533234,-0.31291000469559815,-0.12233733215163087,-0.17768911541889482,-0.06051802834116773,-0.789705971224977,0.2699044940142421,-0.5455747084116519,0.13603554288552452,-0.8187409371949964,0.8241251706807782,-0.1346393327435327,-0.3596397356968257,-0.5338509998681371,-0.44007928031847304,undefined,1497236316378
903d185fccf839df,-0.29807446060101167,-0.5352478929904153,2.7877045795936954,2.9056517341250894,-0.0012354872027380039,-1.803871069605179,1.9669547541955619,0.13947229896186808,-0.4487581979050814,-0.26852629439997805,-0.358891664478435,-0.1499748489414792,-0.5519510360962567,0.002438665410238531,-0.796021751829758,0.40124398451835497,-0.5306815602872719,0.28445441168955243,-0.8280257047940357,0.94996126907565,-0.04516684765429016,-0.36057449448639217,-0.4587022123221192,-0.4692109233123307,undefined,1497236317905
903d185fccf839df,-0.1400687375719575,-0.5064841873104596,2.923601009517516,3.0385141779753098,-0.01976002218561777,-1.7744783990243758,2.1069051481071326,1.1025885225682328,-0.4592650482384985,-0.12298102612917164,-0.4528152624450462,0.05408981480926232,-0.7390819964349377,0.016326169480287773,-0.7928638541651337,0.548748408445639,-0.550735792518685,0.31254101569732917,-0.7995276939220518,1.0477875908957883,-0.003389792291872606,-0.35696340255122117,-0.5338915917391713,-0.531784063583206,undefined,1497236319433
903d185fccf839df,-0.148384817361252,-0.46010991477489305,2.869370471743107,2.8589943608965975,-0.05664452255116599,-1.7422067892636455,1.9056829090868226,-0.0856199709219214,-0.4543843669826282,-0.47293501934324395,-0.6383297314242615,0.06006918524527222,-0.6650999888591801,0.063543631515357,-0.8391797184826356,0.46792396744755577,-0.5053362532026432,0.3556366983023115,-0.817544482076305,1.116711030949804,0.023722218553631564,-0.45938004374461017,-0.4092243143982998,-0.5459260675497993,undefined,1497236320882
903d185fccf839df,0.1745564881554767,-0.5399440422033788,2.250499222150637,2.3717791952547382,-0.08629818906758008,-1.7722912426517663,2.039800380060634,0.7034890170616539,-0.5106668343049547,-0.6431336563505423,-0.5242869432335673,0.07080098556513915,-0.7695451760249554,0.0996512198021323,-0.84970601212837,0.47398584574596647,-0.4108478288270945,0.33067223252107925,-0.8400882062254771,1.0426291098134837,-0.002040032726760411,-0.5054592581430444,-0.47032616781956316,-0.5408842837794039,undefined,1497236322361
903d185fccf839df,-0.1456127907648205,-0.6180170954095079,2.5133596764999444,2.615844355336966,-0.18986487631490107,-1.8152540610453776,1.9099931538211732,-0.27756920976584254,-0.5080496166044494,-0.7018345098137062,-0.4567382634749907,0.053447819040459865,-0.9262129567736186,0.09872544663441024,-0.8570744670073505,0.5002536647055688,-0.485892891693698,0.35049434505754284,-0.7989259680459652,1.097078014971286,0.02126829267380641,-0.4527274503572894,-0.49589489301535555,-0.5677586972901979,undefined,1497236323891
903d185fccf839df,-0.19412325620237184,-0.5974715704752593,2.4533866602163648,2.4194429796242067,-0.21670026432742187,-1.8184404609513896,2.0197297030038595,0.3649922055675506,-0.5214503572002105,-0.7723294420416077,-0.36788337519131437,-0.03463064033081732,-0.7869527072192514,0.05613705765034409,-0.8812850329480152,0.4780271921606454,-0.5202351928102131,0.3226547246295812,-0.7669085627282879,1.0652494270895152,0.0036881893392383645,-0.410939133544271,-0.5063627295867339,-0.5399392887604211,undefined,1497236325451
903d185fccf839df,-0.37707721859930954,-0.5763390013148971,2.161177200262896,2.005150002853835,-0.4001970984734352,-1.8227355772609213,2.1685451659626622,1.1974560000153873,-0.5809228650108742,-0.35351329785450814,-0.295173022383979,0.08775702062113835,-0.7521376448306596,0.12001957637257059,-0.854969199443523,0.613407859491108,-0.4645841736435773,0.2361783778067807,-0.7901239800487442,0.9259396905446198,-0.05758144873928056,-0.4002309700104601,-0.4502481121026576,-0.4851290201962571,undefined,1497236326893
903d185fccf839df,-0.2883723675135014,-0.6027546762303595,1.904696854028863,1.9081038383897617,-0.45166672694205906,-1.8358654997481263,2.076160080721668,0.511378921142984,-0.4695635177372555,-0.8842053439931471,-0.1843038512806792,0.1464148286905635,0.07472008689839574,-0.0642214318306451,-0.8802323954849846,0.613407859491108,-0.5321874626776482,0.14950570985178774,-0.7751857880807569,0.8519655617573775,-0.12195941351660738,-0.2959790619820282,-0.5509784124064713,-0.40336764950310805,undefined,1497236328369
903d185fccf839df,-0.32718073986354246,-0.6133210046525291,2.928067212266683,2.868470910182958,-0.39617539407421276,-1.8421381400806822,1.8518244705144054,-0.8585627240982979,-0.5378499380689503,-0.5790752955565225,-0.43354703019748675,0.284684715758787,0.4925008355614974,0.07835698645777558,-0.8960218690836382,0.6558406118738813,-0.415960686061769,0.12533286368569263,-0.7995276932858775,0.8222927598594482,-0.1427734032716502,-0.29681562646659404,-0.2871571961223253,-0.38379382665611805,undefined,1497236329963
903d185fccf839df,-0.013941389412685102,-0.5816221362979895,3.117556804495758,3.1016400784349996,-0.21709111755403443,-1.8668932944445893,1.9004048676091205,-0.45343294183503297,-0.5631274467075572,-0.42863061090820875,-0.4115400993773502,0.21039774028758418,-0.4692652629233512,0.08854119064454383,-0.8823376556865782,0.6760467503881237,-0.3993776905459748,0.0890830951670242,-0.840130187078503,0.8326867101587467,-0.15814996645998136,-0.30145903674777913,-0.4216834184922877,-0.4324830806631893,undefined,1497236331360
903d185fccf839df,0.48225192343511,-0.5381829972090145,3.2100684992357125,3.3278823538537945,0.051694728842192124,-1.860445959914452,2.0048502545798756,0.3014242467246338,-0.2901551975362329,-0.14217440170262885,-0.28366736548075355,0.09500758226393596,-0.7695451760249554,0.045027002591206504,-0.8686534054783492,0.7649534319800201,-0.41008871915168843,0.3021613191165442,-0.7969038892071235,0.9178863109670197,-0.037136328128372434,-0.24241403051425736,-0.2956682989406626,-0.473735407793834,undefined,1497236332925
903d185fccf839df,0.36859869495977937,-0.4389773456145307,3.045461455724682,3.276530921502705,-0.12799640266495932,-1.815004832336263,1.895689637855217,-0.4015507819240903,-0.3480198571076172,-0.18628658154239783,-0.2894019418850001,0.011911352154373072,-0.9305648395721926,0.06909871084802398,-0.8665481747256908,0.605325477573687,-0.4065948164957733,0.25838168208250306,-0.8240795033250145,0.8610352484946064,-0.07350580111905959,-0.28336788706489247,-0.2618535837022622,-0.5291093836330765,undefined,1497236334356
903d185fccf839df,0.3381061953665744,-0.4548267505638082,2.7819623552214736,2.671753343587855,-0.32053437245185584,-1.8233481668422435,1.8192674774464237,-0.9780759696158067,-0.2524144523204511,-0.7147116805609446,-0.28549559961617477,-0.044747978534312755,-0.7042669340463459,0.03854620189391565,-0.7423374841689121,0.6396757349801533,-0.39800203106469534,0.16326086873462245,-0.7611781735314525,0.8016280521689579,-0.11133371824287257,-0.2603240950165757,-0.40447056376087515,-0.47883305099522355,undefined,1497236335900
903d185fccf839df,0.14545020889294588,-0.5270297122447082,2.8227953012961797,2.59130362631244,-0.4737089755234523,-1.8387281342462802,1.8859961822882183,-0.577802181294585,-0.410951446005105,-1.6642428005987449,-0.39998019782967575,-0.002059046602979841,-0.7564895276292335,-0.06514720499836717,-0.7791796260436061,0.7770771320473984,-0.4426121031609228,0.1800621688201166,-0.7426436199225815,0.9743678092409433,-0.07380412561721268,-0.3188208362266485,-0.32764625719139434,-0.47068464545273037,undefined,1497236337366
903d185fccf839df,0.24524333889152872,-0.6233002596205928,2.1924398570962156,2.0980014882923834,-0.46084156557155814,-1.8766318436040352,2.11133374761513,0.7691699396014201,-0.43543487773753836,-1.5631788555023653,-0.2953775619639585,-0.046419478784541314,-0.7477857620320856,-0.054962949008500746,-0.7791796260436061,0.7204999781251857,-0.45108007775119185,-0.00498011391252234,-0.7441199469196874,0.9683008197830715,-0.16049148705717875,-0.3613225524462683,-0.419317825819278,-0.4677484720474812,undefined,1497236338850
903d185fccf839df,0.08585167157507827,-0.5851442262867179,2.594387176632405,2.556082051860735,-0.546109998073518,-1.8466382311492948,2.0237217606363807,0.24491531999114655,-0.34547232524382054,-1.3652322539681336,-0.3667967064182002,0.0502006330903548,-0.7826008244206774,0.09872539483131205,-0.816021775280534,0.7285825296309358,-0.45242253643734764,0.11245799269980093,-0.7609052962740066,0.9413227381243392,-0.11362121364541579,-0.3809294144829975,-0.2725292639332157,-0.5324218973466703,undefined,1497236340465
903d185fccf839df,0.1302040626125726,-0.5111803072954307,2.414467873644716,2.295548298826218,-0.4690495589601188,-1.8311022038827343,2.089245996112673,0.6809870539778728,-0.3836177907757098,-1.1668725331473808,-0.32086238320467453,-0.01624042987376949,-0.7129706996434938,0.06446953419082453,-0.8381270442084361,0.8073862691569581,-0.40123315003617327,0.11320527985441317,-0.7521872703376271,0.8980838968627205,-0.11724826604440415,-0.4758798386286023,-0.21986397835129673,-0.6602719833077866,undefined,1497236341870
903d185fccf839df,0.031797049428434726,-0.46715415320833437,2.594387430769354,2.4938342940967946,-0.4784506812740343,-1.8420286656050406,2.001310544617297,0.1127530502664435,-0.3617159503287888,-1.183189858257973,-0.43019751059971634,-0.09658645632268029,-0.49102467691622104,0.07743116148695534,-0.8212849331467519,0.45580043696850664,-0.4916188491205635,-0.00902686602417231,-0.7581695437411761,0.5985071432495924,-0.22832518530509482,-0.4628247092791447,-0.20558405062690063,-0.6218124841792688,undefined,1497236343384
903d185fccf839df,0.1606962861624997,-0.4513047482590569,2.2530510112597977,2.34653936167742,-0.2568761989562001,-1.8361939202222262,2.0948948087149755,0.761501678650984,-0.5389150908456919,-1.0259441556572575,-0.26525684992277476,-0.053806527982849926,-0.8913978943850268,0.12279715489122772,-0.8265481057374373,0.5164185698640182,-0.4547799796874403,0.039097172398979224,-0.7853171707195503,0.5898994144933241,-0.2107600801751569,-0.3768226817364622,-0.2028714658099492,-0.6328938124322958,undefined,1497236344873
903d185fccf839df,-0.045819764282466875,-0.42899809064646716,2.376825108696122,2.3137082959058195,-0.3183538077925112,-1.809128162039224,2.0041875338936994,0.22501123070309287,-0.6255516537105454,-0.7641713522222761,-0.33217811873269565,-0.05756424115319481,-0.5258397393048129,-0.026262180651454747,-0.7939164842659305,0.45580043696850664,-0.5519719195380904,-0.11576863357247022,-0.7933844945289819,0.5607963566923846,-0.2912413662242191,-0.29342121986346836,-0.36628604210977983,-0.5858860806212809,undefined,1497236346372
903d185fccf839df,0.1856445945412027,-0.4636320339916137,2.425314184509157,2.3749742842283363,-0.24955278735403177,-1.7982319806437497,2.0118876083867114,0.3462496465418989,-0.6056750588701616,-0.955829073321799,-0.33541550163868333,-0.0497990105975944,-0.6476924576648841,-0.07718304617600136,-0.8528639392419294,0.49015083569858064,-0.5493382839133506,-0.13250027066847983,-0.8200283506226363,0.6007861166489187,-0.3063464492317916,-0.2609609325947866,-0.09978866560198381,-0.5028027890139043,undefined,1497236347832
903d185fccf839df,0.031797049428434726,-0.5100062188432033,2.4380746548766554,2.3749742842283363,-0.38892397089833064,-1.7931379363815347,1.98250479359884,0.10181655255724455,-0.4399218639222396,-0.8092918736326379,-0.40876575079501765,-0.0948215331969052,-0.8043602384135473,-0.05218555180068728,-0.8633902549743652,0.5447072316192892,-0.4924504392222869,-0.05665693720464365,-0.8229390226749853,0.7260986653003916,-0.25443689860957613,-0.2266991180291397,-0.022536608371067114,-0.4764065829414159,undefined,1497236349373
903d185fccf839df,0.24385722207708377,-0.5458141921845926,2.538880363097992,2.478983264821236,-0.2868795711658365,-1.7652965383238577,1.99857817331908,0.32098948044626685,-0.31056189285252866,-1.1389536509643594,-0.4912207191806071,-0.024345529476577813,-0.8696384803921569,0.06539538506319388,-0.8402323338589649,0.5851192260005585,-0.3568664371181971,0.0007765290665273419,-0.7563993518311402,0.7592977124844398,-0.20529752278972765,-0.24221108428139898,-0.04686204577365454,-0.4735503454797004,undefined,1497236350882
903d185fccf839df,0.29098188124887775,-0.6180170661815156,2.294522095214506,2.3728713085039344,-0.11381243164826564,-1.753298627219131,1.975230753028308,0.22109476171284867,-0.41329723336908386,-0.5999944806631784,-0.5016357494659943,0.06528168195118617,-0.7434338792335116,0.01817787122502646,-0.8581270971081473,0.6881703373966158,-0.35703759755762204,0.07226913273764159,-0.7300703528753446,0.9040585038195365,-0.1367416293144129,-0.23745335020974181,-0.18067513832991428,-0.5537348441956931,undefined,1497236352417
903d185fccf839df,0.27296350133961456,-0.5728169113261687,1.9557377189510585,2.0432490135616157,-0.20986027403038024,-1.7416850394745305,2.068709835462658,0.7987938849501682,-0.4440489178306026,-0.8034574020474979,-0.523889324859121,-0.019440670917561406,-0.504080325311943,-0.04848217421275899,-0.8086533572127225,0.6699848720897129,-0.36966811650165876,0.038305554572185284,-0.7054135913704025,0.8467454902319402,-0.15185636419865112,-0.2059912759509806,-0.3912923642574407,-0.5251673007898153,undefined,1497236353943
903d185fccf839df,0.13990615570008288,-0.5287907864670647,2.32706077367088,2.198788959384359,-0.3505171809934279,-1.7495182731899064,1.9064665844957387,-0.28842065923807286,-0.5519094419930262,-0.9142691101782454,-0.47260522507069747,0.017981727714017695,-0.33870877896613194,0.17371794271112706,-0.7928638836140689,0.5729957520509525,-0.2717682137129407,0.16668065581230435,-0.6754882309450011,0.9273409562421802,-0.07132130331368103,-0.1604873660570534,-0.3931872699546551,-0.47121634431820686,undefined,1497236355348
903d185fccf839df,0.14406423010013986,-0.4196058799045173,2.36342700872252,2.3904047852813393,-0.5092254840604152,-1.7844172636684994,2.010180872485816,0.25316835906731633,-0.6091361374154558,-0.2276991632718001,-0.5252750888624097,-0.11375669568109607,-0.4213945521390374,0.24593306748157948,-0.7054953128452828,0.6982733642566546,-0.22320474224142395,0.19686979894253837,-0.6233200099844063,1.1357897085868127,-0.01574463128814513,-0.089344552574837,-0.2599697562705519,-0.17709968330985,undefined,1497236356855
903d185fccf839df,0.19257479905392041,-0.4565878247861647,2.439350422362761,2.433096504518286,-0.5419442868939279,-1.8082803187718406,2.0499672057505784,0.4674390160458994,-0.6068398354488233,-0.4157705638277576,-0.3799893836973496,-0.0436782184678076,-0.7521376448306596,0.1672371420138362,-0.5833899413879681,0.7326237629867287,-0.25887381850257096,0.20009959808639205,-0.5448717658172785,1.036639118008154,-0.018599368405719494,-0.12195825666242356,-0.20927996161954548,-0.10133878772735071,undefined,1497236358364
903d185fccf839df,0.12881811832517634,-0.459522929004764,2.235824846417031,2.2683813485004842,-0.46553184050033886,-1.858095756616288,2.138068334340403,0.9907658936521397,-0.4933139490441447,-0.5231307117315148,-0.41458257755648115,0.07366104043953085,-0.7260263480392157,0.23574883739326216,-0.6044425728528395,0.742726761582046,-0.25296244447808763,0.22586834843995626,-0.5346634180325103,1.0571498424692516,0.004967804053984847,-0.23050181510715392,-0.11772488727903954,-0.1746194462713888,undefined,1497236359841
903d185fccf839df,0.13436220602344906,-0.48006845393901254,2.2926076815744993,2.217079200932165,-0.49740721820522577,-1.8504814743601496,2.1065395912841414,0.8202309077645629,-0.5491947027543392,-1.17054131996346,-0.2697229064882054,0.0003924463695870504,-0.8261196524064172,0.13946208207063954,-0.5981268364214614,0.7932419241469618,-0.3360045846523852,0.17317192150368144,-0.5242661572226945,1.0155124457401712,-0.025932294796827963,-0.2118371368965753,-0.2493174359069362,-0.1696755605376079,undefined,1497236361353
903d185fccf839df,0.06783349869827349,-0.4935698281237968,2.187973908483998,2.1205013817661587,-0.5623202541815132,-1.831828926690856,2.0134996896945463,0.18029958623451553,-0.5175668482660563,-1.0478067035323042,-0.27002580753490313,0.1384099178035971,-0.7869527072192514,-0.02718804447459864,-0.7686533103111703,0.6174490645821792,-0.5104301676568529,0.05736771219528867,-0.6347807845304458,0.8051850816510114,-0.14707560171332448,-0.3229722246882656,-0.4407403424599209,-0.3388480780077588,undefined,1497236362838
903d185fccf839df,0.14406423010013986,-0.4665670797542283,1.947443451332727,1.9105195718206534,-0.6139441690179516,-1.8760751556887392,2.007474804197964,0.030173519964740474,-0.4861425284458983,-0.7744260567644778,-0.29524257207734844,0.039752714971751195,-0.43880208333333337,-0.08736715970734776,-0.8170744127435646,0.6901909258097907,-0.5343835635035462,-0.009862818930334173,-0.6193668112763141,0.8295608195539504,-0.1732219514276905,-0.3595062196633976,-0.4023367027756436,-0.1844059388531661,undefined,1497236364397
903d185fccf839df,0.14129227251452783,-0.38555895155749215,1.5257179237076617,1.6065655458781118,-0.6501909652094698,-1.866385519603778,2.0518843324755767,0.2807193002783897,-0.520717395661934,-0.5545632491002023,-0.24540483392953927,0.09890331693668918,-0.7173225824420678,-0.19846724407083988,-0.802337561883474,0.5426865866766714,-0.5721949429256118,-0.14892159463716706,-0.6632787965891397,0.7062192727004165,-0.275061175758263,-0.3923741766164817,-0.5424668853847464,-0.13160077751616783,undefined,1497236365845
903d185fccf839df,0.005462831267745166,-0.4442604952116194,1.2099021907961522,1.3973131817986943,-0.6355029867517329,-1.9052838148011422,1.979046589997645,-0.24409925665155688,-0.510990324689527,-0.4224020322341514,-0.16046948389669544,0.002752506598717536,-0.8826941287878788,-0.172543911773931,-0.6676005261453244,0.4012439279889119,-0.49866221439149766,-0.1558245007706347,-0.6493411488823702,0.8154096418346033,-0.2540786040159095,-0.3712086108094397,-0.5311393773480594,-0.09476701398196644,undefined,1497236367344
903d185fccf839df,-0.06245199287187537,-0.5058971284703497,1.8855565296830394,2.0468883271945004,-0.40732508420249003,-1.9199952892082421,2.091368227866801,0.5436371808697414,-0.5519289777158277,-0.4288225148246657,-0.09999768013179537,-0.020002685665330693,-0.7869527072192514,-0.1762472634603102,-0.6960216198514101,0.482068312457552,-0.5395614895780366,-0.12289319415203301,-0.6149308323363463,0.710238265077174,-0.24191801618799116,-0.2175102152294203,-0.44880799533660215,-0.16284093822106757,undefined,1497236368953
903d185fccf839df,-0.06106597957365962,-0.5546194171564134,1.5384783940751598,1.571733235985653,-0.312748102380409,-1.8966726171848478,2.103678356211759,0.6671508732145364,-0.37272744264438484,-0.31431954551340374,-0.07961012105675865,-0.05030133409856685,-0.8261196524064172,-0.10218054055131545,-0.7149690352880907,0.5891604876210729,-0.4190637336695002,-0.18767920710249625,-0.6832896742283417,0.6253158363677079,-0.30280906118967166,-0.19974591146249687,-0.3553808040055991,-0.22357994365168138,undefined,1497236370353
903d185fccf839df,-0.033345575587705636,-0.6373886195755061,1.639921986039549,1.7906362848553896,-0.46379356649312786,-1.873766879221101,1.9490931044537163,-0.3867162643228448,-0.3086537486180469,-0.1820710755767212,-0.1724670050510095,-0.022125569547010736,-0.9740836675579323,-0.08921883555053736,-0.6918110994482228,0.6174490645821792,-0.3961488878295642,-0.199363489189421,-0.6746835961588008,0.6601779191601557,-0.30152264040753834,-0.1520129448105188,-0.3449066821241602,-0.17574105129579504,undefined,1497236371895
903d185fccf839df,0.37414274815264237,-0.5634247005842189,1.5710170725315344,1.6620428117002037,-0.2931229983525533,-1.8349384617991737,1.9484540637833332,-0.2800750627736842,-0.3429153303515351,0.3819474496549284,-0.2750211646177475,-0.02742978382260467,-0.9131573083778967,-0.1123647188365346,-0.7254953510205264,0.7184794745061754,-0.2663649006530522,-0.19313187202951748,-0.6846050743611869,0.6701407135119883,-0.3029454601502802,-0.11109062969579563,-0.08923222327945556,-0.12050578719327705,undefined,1497236373368
903d185fccf839df,0.23276911569135775,-0.5804481063017468,2.103756481362375,2.050315323330236,-0.4717546991657269,-1.8729726093586099,1.8483873247200726,-1.029808461383044,-0.382170528087836,-0.4570228909574567,-0.22818609179600763,-0.05730115159586386,-0.8870460115864528,0.003364477430284235,-0.770758570512764,0.643716968335946,-0.2797278512940664,-0.20754565054921828,-0.7400058247423035,0.7669661429611873,-0.3068521963646447,-0.20566815653628454,-0.022180160375076866,-0.13933799259705104,undefined,1497236374866
903d185fccf839df,0.04288512130875101,-0.5939494512585387,2.2154087545851024,2.2467954632855727,-0.48630895832459975,-1.8536026558688716,1.9442779463582816,-0.35186617207006765,-0.3689422121921922,-0.4695697979097101,-0.23961195728623666,-0.054894711379337414,-0.7390819964349377,0.04132367680637641,-0.7265480032080246,0.560871938924688,-0.32339649287212396,-0.16557089875920447,-0.7458691523670661,0.7108696033328934,-0.29465144102099455,-0.23692895032249314,-0.08762093303843001,-0.24198632772180648,undefined,1497236376340
903d185fccf839df,-0.1858072454238968,-0.6250613046149569,2.1567112516506786,2.172581515081248,-0.5396711529517558,-1.8839922400951263,1.9870885541299974,-0.13141251096264636,-0.418632920825378,-0.5448842771826681,-0.15634952616057884,-0.13859914350935007,-0.9088054255793226,0.1246488566359664,-0.7518111845250186,0.5204598880139757,-0.36365278775101745,-0.04089423500997591,-0.7454633368162685,0.876125718139265,-0.20190784044194957,-0.2558344041340269,-0.23808902633464815,-0.289566360828156,undefined,1497236377961
903d185fccf839df,-0.3008464526920334,-0.6250612753869645,2.0150728514915857,1.986946290476456,-0.6425486894291375,-1.9073172410981543,1.949716377826058,-0.4727567503896393,-0.38147513085731066,-0.07980815122474832,-0.01972121556880066,-0.06952511021068024,-0.2516711229946524,0.2042704775667845,-0.70970583324847,0.4638829036800922,-0.4036221148561084,0.07325707349604442,-0.7138237578117201,0.9036273411947648,-0.13087735905191605,-0.22348553265572318,-0.21986250222597764,-0.3393943904420321,undefined,1497236379344
903d185fccf839df,-0.3493569526349945,-0.6068638104452015,2.0865300623826593,2.205892195862948,-0.5530939821515415,-1.927441868186896,2.028781493858381,0.03963827016578017,-0.43406618536893,0.11269638909610181,0.15168271460992896,-0.12304859296123737,-0.2560230057932264,0.10242874651769125,-0.6949689971128471,0.16079164564338178,-0.4932088616448099,0.07239579317806581,-0.7099265330951593,0.8076180364488565,-0.14890792431632446,-0.29405097693861015,-0.2988665444191042,-0.42654046984115407,undefined,1497236380861
903d185fccf839df,-0.2412477773525269,-0.6373886488034984,1.4963691722404497,1.548633888624813,-0.7334536740176022,-1.9320095067851026,1.9823575308900065,-0.35694974526963164,-0.41218587453315675,-0.2549053033591303,0.15211545850192096,-0.12362213529010081,-0.8217677696078431,0.010771116049169888,-0.6570742177751224,-0.0048982435908050655,-0.5583903627630935,-0.02414360136957704,-0.694211695823323,0.6758997312742363,-0.2073540736609531,-0.34361974960811653,-0.46084408893045914,-0.41344226151722346,undefined,1497236382354
903d185fccf839df,-0.3937094816941278,-0.6227132592364676,1.3413326721077552,1.418828413708644,-0.7013725917623919,-1.9429243225690913,1.918216565750462,-0.7948757235824788,-0.4945424681487324,-0.30249485620125244,0.1517979158768619,0.002934241378782224,-0.9001016599821747,-0.06885053078319726,-0.6591794927011836,0.18705952113242713,-0.6299370655436243,-0.09797305807960274,-0.7211634099439447,0.6139517864015842,-0.26528960879945135,-0.3915754858453689,-0.36865675045615826,-0.3580594853110709,undefined,1497236383888
903d185fccf839df,-0.3562871226423025,-0.6778927129018665,1.4300160478415955,1.3515806939992059,-0.643484689141972,-1.966253981531387,1.9720960320134906,-0.4461055480326874,-0.4541301776845146,-0.2602410459334394,0.13594394082580522,0.016559236528714372,-0.8304715352049912,-0.1568047448114667,-0.6370741869621126,0.19110078275294143,-0.6794526507959348,-0.2679239327956036,-0.7649424575139541,0.36656035906138446,-0.3976521796145489,-0.4736413455987539,-0.4925766004660208,-0.33154135612021174,undefined,1497236385387
903d185fccf839df,-0.29807435708478247,-0.6291704096018066,1.2603051719752951,1.3277597630471691,-0.7374033910748209,-1.9491387318786166,2.0066858668251966,-0.22718387420750608,-0.49530900599248334,-0.4380716776847139,0.13861344074370374,0.013299808978364582,-0.7434338792335116,-0.28456982110824336,-0.6412847073652999,0.31435786307491187,-0.681057221852752,-0.34786468366455864,-0.7780824684871633,0.2749242093354833,-0.45866573552860285,-0.4747096468300516,-0.4769304000018427,-0.3053619210722786,undefined,1497236386878
903d185fccf839df,-0.2564940616545391,-0.6743705790711496,1.3808895965594064,1.3961503505102264,-0.8223323937920473,-1.9416292643321835,1.9170831194101086,-0.8200342202509527,-0.4460127744821719,-0.40738103885939214,0.04218759650674782,-0.037425126119678395,-0.8348234180035651,-0.23735229431930138,-0.6191794531618653,0.4133676845857333,-0.6237596192750684,-0.35641415674870797,-0.7435252198486395,0.24221791108640983,-0.45811339172294274,-0.4614816432794726,-0.41889791383697295,-0.2859174938378879,undefined,1497236388342
903d185fccf839df,-0.14838488637207148,-0.561076611363741,1.5142337291001675,1.5748149545951342,-0.6733337835760321,-1.8901274566760788,1.9730506391480542,-0.29649469614293333,-0.49908120981776555,-0.3869936196842716,-0.16486423963379565,0.053482921867104745,-0.7216744652406417,-0.14384310456456137,-0.6665479181312289,0.38507910762462694,-0.6143319475573754,-0.3408794470707653,-0.7345693017429809,0.2799441018643949,-0.4404332709611298,-0.4206042807618676,-0.4801328999042964,-0.3143095915993504,undefined,1497236389878
903d185fccf839df,-0.2842143276188541,-0.586905271281082,1.4823334426607448,1.575171159901296,-0.8670134598866753,-1.88300464314515,2.015721871002523,-0.09137180047622681,-0.3861618960691109,-0.25344783202442445,-0.15332642522123197,-0.01614936532462996,-0.8087121212121212,-0.06977640755711571,-0.7086532252343747,0.29617239776800897,-0.592193926639557,-0.296428516777781,-0.7117107215019673,0.36799240869909616,-0.3997230998381126,-0.40465982630586816,-0.48092202670788975,-0.34489310389691197,undefined,1497236391342
903d185fccf839df,-0.3451989817511667,-0.6197781404038721,1.3132604505374972,1.738344816558801,-0.829552952278835,-1.8843229933950534,2.020802656008135,-0.07217636266574534,-0.344637045670653,-0.298155351923972,-0.10533489076793896,0.025406899960859323,-0.8609347147950089,-0.09014475117677945,-0.7023374593540613,0.22545112495357233,-0.6535255756412659,-0.26884854896735205,-0.6693310367067655,0.5177268932284596,-0.35375924912671575,-0.37940932607372496,-0.4895504955509626,-0.36418015595916353,undefined,1497236392846
903d185fccf839df,-0.4034116092870478,-0.7025473720509571,1.3981157614021726,1.397283024422166,-0.7259142628616481,-1.9168182094031045,1.9357836591727475,-0.673027786128583,-0.3404989100818361,0.07281530865910421,0.08198264329916545,-0.01336783252296775,-0.8957497771836007,-0.08458974954875975,-0.6802321757016916,0.23353350687099328,-0.6641219140562515,-0.3019318449718513,-0.6831707284495552,0.45245288497407266,-0.3759031618747394,-0.36579970877341694,-0.6307462124308111,-0.3444373207741838,undefined,1497236394345
903d185fccf839df,-0.36460316792618724,-0.6379756638016197,1.4740391750424133,1.4818364842208092,-0.6423018320300397,-1.9462295121340187,1.938463432568529,-0.6473933983968166,-0.36129526165450543,-0.0049099704221210105,0.07332559215173477,-0.0040804094081901355,-1.017602495543672,-0.12254889712175374,-0.6665479034067613,0.2840486977006306,-0.6813895187071797,-0.2356069258772818,-0.6830867666272792,0.5179886662490916,-0.34340504965910196,-0.3807055193580791,-0.5632125255959479,-0.2092325729063259,undefined,1497236395905
903d185fccf839df,-0.35351499252964175,-0.7007863270565929,1.553152769808766,1.5565512216789725,-0.4756735406450153,-1.954554212889346,1.9895868674204609,-0.25647352096818016,-0.34299858565213137,-0.2634747861060574,0.13029398317945584,0.06912705325379737,-0.9523242535650625,-0.164211422282676,-0.7149690647370258,0.43761494339688223,-0.6749103996084583,-0.2159874659494716,-0.6888871221772849,0.5429649464053703,-0.3352947072598416,-0.3118064005301026,-0.5026124448528206,-0.21594621390199373,undefined,1497236397356
903d185fccf839df,-0.43528991514601006,-0.647367903771562,1.2111784665561565,1.2621812913542039,-0.509760340738528,-1.946224853377425,2.019235296286367,-0.07050284871802709,-0.3792924614113883,-0.5296349030170798,0.12812373726905535,0.044684409117194096,-0.6215811608734403,-0.14939808029103196,-0.7202322078787762,0.3972027794272837,-0.6958020287200924,-0.23813377008343464,-0.6941277343803047,0.5260882561600433,-0.3461029767676878,-0.3503028902033582,-0.53293764428222,-0.18579304687257242,undefined,1497236398928
903d185fccf839df,-0.39370951619953753,-0.6966772220697433,1.443414656089096,1.4380556840878356,-0.4949283694380538,-1.9378232880273587,1.9642197627834574,-0.4357537237158517,-0.2894022611971402,-0.31245069532028436,0.2912293889386396,0.03548932252369277,-0.6607481060606061,-0.07440553241121696,-0.7360216962018974,0.23757474022678604,-0.5906727585388273,-0.1592886216487147,-0.6738509760314999,0.5060702774568155,-0.30655746021250274,-0.1979687607743216,-0.5007963265054665,-0.20552953676669716,undefined,1497236400345
903d185fccf839df,-0.27451209650970493,-0.6614562783404715,1.1703457746184,1.319962214602938,-0.48566095802481524,-1.9462201955721863,2.0072959733723486,-0.13949297093504606,-0.4146996252147586,0.19082166456865968,0.11967387385645747,0.03253988099686126,-0.8739903631907309,-0.10032883880657675,-0.7476006493973637,0.09007037282894514,-0.5028020826470382,-0.18752088433552466,-0.6763488382179358,0.4954145540830354,-0.32180152427840575,-0.18876629068905065,-0.47116982569406524,-0.22376959929729792,undefined,1497236401919
903d185fccf839df,-0.20659751390795256,-0.667326399093693,1.394287696533008,1.4395117846337135,-0.46628270652478837,-1.953065829413301,2.1731368148566887,0.9725663126336831,-0.46083013712460735,0.12560373768237038,0.10640998662646878,-0.010709011218812573,-0.8826941287878788,-0.08088635901005692,-0.7886533190374788,0.023390361635022814,-0.5274949258274334,-0.18772353817885457,-0.6817713686537566,0.4391948302432864,-0.3378966218577183,-0.20524357494467557,-0.47439842889102857,-0.29772510917399925,undefined,1497236403377
903d185fccf839df,0.04011312921772924,-0.6520639945285408,1.4816950506437931,1.6027044498076328,-0.5297763145873183,-1.947517580606047,2.2018069576197608,1.206637322950457,-0.4972985599210733,-0.2421538206623459,0.002334334612418259,-0.04096607181777508,-0.8826941287878788,-0.036446345985899346,-0.7476006493973637,-0.12411400576281809,-0.45469569779113156,-0.11842846789609177,-0.6592906148543303,0.429047258369394,-0.2991727030716735,-0.16036886775072742,-0.4093936429784247,-0.2710847715698386,undefined,1497236404846
903d185fccf839df,-0.00008125643052757771,-0.634453529970903,1.83068734575473,1.9311381419373592,-0.4191227806261136,-1.9092481802357968,2.14314387309499,0.8476772290346186,-0.3719989693352128,0.07111163242762139,0.15806198218809162,0.00445173588749057,-0.8957497771836007,-0.060517989488844084,-0.7602322547803283,-0.20291771702411873,-0.5004615648257511,-0.23929269718737423,-0.7719742532769349,0.22223073729761117,-0.42280539459189603,-0.2833517373487219,-0.37126750194332725,-0.29119048283319016,undefined,1497236406398
903d185fccf839df,-0.012555376114469349,-0.6109729446600436,1.4765914724254725,1.614366151421098,-0.48699809031964897,-1.8931973920706595,2.061901271938355,0.2786809001473108,-0.35206939968475615,0.00676226487230923,0.2835352241883817,-0.10014569195764408,-0.7826008244206774,-0.2271681289848568,-0.8170744274680322,-0.09380498171214458,-0.5649721413192925,-0.2988413671450941,-0.8170756954600658,0.2245405047876697,-0.46470964737357656,-0.3036165389980474,-0.35514229128466895,-0.3043501044145408,undefined,1497236407844
903d185fccf839df,-0.047205777580682624,-0.6655653979413173,1.5537906535518187,1.6302365811204458,-0.4008450922075098,-1.8914830722998772,2.1209693338881452,0.6352030719496267,-0.364654567997654,-0.19857777483401073,0.2871211804991175,-0.014782116136641892,-0.8217677696078431,-0.2836440349897468,-0.846548143912681,0.005204924592841477,-0.5048245476605003,-0.33695935450259973,-0.86482892952211,0.2676561536662113,-0.4876911641605299,-0.28097690684192994,-0.31357965666123944,-0.2855569818539347,undefined,1497236409350
903d185fccf839df,-0.02641564711826581,-0.5223335630317447,1.2985858206669418,1.2126771939252858,-0.3857148303175198,-1.8412739919244925,2.0180545082460597,0.080222945645087,-0.3777102109678493,-0.7849206385640146,0.09675099201234418,-0.0599195085146112,-0.7042669340463459,-0.407705707797046,-0.9412850959381095,0.255760262063132,-0.5703674890003607,-0.42068086998416154,-0.9330898151565067,0.36497432937138546,-0.5140980460305427,-0.4881278409899592,-0.474838636948999,-0.45802956105000814,undefined,1497236410886
903d185fccf839df,0.06783339518204429,-0.4237149556633747,1.6558721292592604,1.5033739059644406,-0.5236357451131799,-1.8075349630285127,1.9700105837252753,-0.17521161322542692,-0.33814017492785986,-0.9241464034843403,-0.1443077031705286,-0.0689841936183128,-0.5867660984848485,-0.3919665926376799,-0.9349693079710949,0.32850212329074346,-0.5440529566140506,-0.39457014209494123,-0.8962446088291253,0.289614338393857,-0.49965535231804586,-0.43242432643121825,-0.3949856014152364,-0.46230574443936345,undefined,1497236412384
903d185fccf839df,-0.06383800617009112,-0.28752730073125876,1.466383045304084,1.3745824769212005,-0.7305016893922769,-1.7342966940653688,2.0044005545212658,0.09010733357442913,-0.284585503729201,-0.5214014514210473,-0.11312870264607498,0.03941988413684362,-0.5475991532976827,-0.41048326041415406,-0.7423374841689121,0.5386453815856,-0.6209442062851434,-0.41104846160441844,-0.7634941168183274,0.5304152312715185,-0.42076326849232926,-0.49396005718854497,-0.46254859914673074,-0.43797943197132805,undefined,1497236413846
903d185fccf839df,-0.10126039972732617,-0.35796924664578694,1.9289415190038552,1.6948660900536052,-0.7962993022676836,-1.7381096599765142,1.9113869420623721,-0.5575770129633624,-0.07207135388735374,0.6631231404213167,0.06827068989359975,0.0017443203682628212,-0.6476924576648841,-0.31789986972868517,-0.6654953101171335,0.2901106042637629,-0.6562256842037271,-0.3666165303805429,-0.6441844974617261,0.5603036098440676,-0.3564729908056429,-0.47836900248815195,-0.3479633577125615,-0.520843677099316,undefined,1497236415390
903d185fccf839df,0.18841665564304394,-0.3896680857723342,2.1075842920945904,2.184353229140809,-0.6252790163827475,-1.768820678699289,1.8439587152606174,-0.9844902663474379,-0.13967198340106743,1.5006273164360897,0.09707038174550865,0.02347667524292844,-0.5519510360962567,-0.32808404801390434,-0.44023186484344384,0.09209110256572767,-0.6123510708395029,-0.36118286547493716,-0.48103286038111576,0.4901328935010838,-0.3130996907916651,-0.4466275355825773,-0.32651741066992945,-0.5319479704559531,undefined,1497236416876
903d185fccf839df,0.28266569794335406,-0.44308645060138047,2.568866744171307,2.5716998444792427,-0.5592962637573767,-1.8066451949646918,1.9685378922143504,-0.16380052218774385,-0.04807858031484942,1.8822575995338815,-0.008193772422427342,0.003285011218355766,-0.8130640040106952,-0.32993571090631935,-0.2823369079898939,0.22343056480511903,-0.533233811302507,-0.36924470421025357,-0.38159418570045955,0.6630728314812429,-0.26494283768495536,-0.316405945550459,-0.31077304149344925,-0.4612890157757615,undefined,1497236418374
903d185fccf839df,0.23969925119325597,-0.3432938424647599,2.5758849901665837,2.373299235006663,-0.3555880313198322,-1.823187449915632,1.8968993492816573,-0.47072426726152133,0.006792798038092992,1.5457472920770103,-0.23719381201809234,-0.19272656887211215,-0.6172292780748664,-0.279940670352593,-0.09496829358956554,0.5568307620983384,-0.3560554214050344,-0.2772080338962062,-0.24004870133495876,0.8195826313607815,-0.15161586145122669,-0.2828694560718448,-0.2114689385515172,-0.42129105178881165,undefined,1497236419941
903d185fccf839df,0.05258731791249048,-0.26052466927365964,2.6116135956121207,2.334323740497337,-0.4194210666244336,-1.8163511332873488,1.9521331638047024,-0.09312879371658539,0.04654732525696239,1.199625970230602,-0.3296943851472794,-0.045045381657601385,-0.3604681929590018,-0.21420644988562781,-0.08654725278319102,0.6134078312263864,-0.27757844881753574,-0.33968252371107455,-0.24973228551459611,0.7830575190852852,-0.1816619678607025,-0.22437390551110703,-0.1812152930969882,-0.4744786209373914,undefined,1497236421407
903d185fccf839df,-0.15947292374697802,-0.28048317920978677,2.6817947848801396,2.3462296280624124,-0.3575525975196757,-1.8297232957113694,1.947520484863141,-0.15551648444155583,0.03209045994308964,0.9512519632737597,-0.2408555362174048,-0.16895675025672355,-0.2212079434046346,-0.23827817109321983,-0.10233672638184463,0.7952625973543013,-0.30511128067457416,-0.30304011112306795,-0.24288940425087466,0.8139621995267763,-0.16651429003791882,-0.1887820718810709,-0.15180883423475877,-0.4312095559558718,undefined,1497236422837
903d185fccf839df,-0.0818561790468959,-0.19653991756645903,2.385757260057506,2.2592829467166413,-0.39772853294866245,-1.8089814194724352,1.8315802269527908,-0.9078626364388585,-0.09503515026812664,0.2548558870232352,-0.07516980848295371,-0.0898604448006028,-0.5301916221033868,-0.2567948518204685,-0.13917887561877249,0.6861498055128841,-0.3076299318928732,-0.27309795346065213,-0.2549938879850853,0.7436682943816895,-0.17404775378385118,-0.1435271245373228,-0.1969494302865241,-0.34048360003847394,undefined,1497236424398
903d185fccf839df,-0.22600159656674387,-0.3086599283476057,2.330250446523093,2.282412095353769,-0.7436262399336546,-1.8121026010318961,1.9680277087711204,-0.20820192114006295,-0.3867899688939042,0.33145790201151537,-0.05691634451713466,-0.030318553564989872,-0.5258397393048129,-0.08829302353049166,-0.16128415927114217,0.8053656524790617,-0.2108349070445975,-0.18213788516632123,-0.26295625928269417,0.8233706536927632,-0.11824138235582195,-0.13515307810242957,-0.09004926768349389,-0.39581166237804494,undefined,1497236425838
903d185fccf839df,-0.1081904317129952,-0.26756884925111624,2.263259438381186,2.2980719918095875,-0.7502399425152299,-1.7608360453149827,1.8318063882175009,-0.9753602724286375,-0.39768239918594833,0.42526308347568625,-0.04613119913907209,0.0647526817447769,-0.4866727941176471,-0.13273307540697288,-0.09917885816615556,0.7588916667404956,-0.14297262448622217,-0.2114150830173076,-0.2843035294815334,0.8447898887776333,-0.1336718872500127,-0.13998837792806693,-0.0787347956688951,-0.3949722268500766,undefined,1497236427397
903d185fccf839df,-0.08324219234511165,-0.2828312392022723,3.012284385251356,3.084175396761261,-0.8390569403094131,-1.756526953109416,1.964677342301001,-0.03835545080282418,-0.38570462155678575,0.8810198681819496,-0.42136440914385775,-0.03199816069000141,-0.678155637254902,-0.0327430072502947,-0.3128632471731057,0.5972430108621015,-0.13485236959827468,-0.16823707284213923,-0.38763243107690987,0.8191052776537608,-0.16119835933936666,-0.13306785507554317,0.12340996821152049,-0.3893456281166534,undefined,1497236428856
903d185fccf839df,0.3575105195632339,-0.26874279156338204,2.723265614697898,2.743147189555572,-0.6146641730940204,-1.667000314601129,1.9028374546683857,-0.24878437108228732,-0.12118235899343466,1.027030822464628,-0.5227369273328716,0.03120192965376245,-0.7738970588235294,-0.17254395062625463,-0.3749685924514951,0.48610951754862325,-0.27923060613075645,-0.18438607910321886,-0.36314359444604905,0.7676282767346436,-0.16927269283333726,-0.1903045472365956,0.034189877338905536,-0.3841498438587781,undefined,1497236430372
903d185fccf839df,0.36859862594895987,-0.3503380516702089,2.5682286062913047,2.5403809098092918,-0.5909659297820827,-1.6050705025883958,1.9998378549395361,0.3881394081708403,0.0022259708889449934,0.7680026413383343,-0.24761881825797571,-0.021912229852590392,-0.8348234180035651,-0.19291228129514382,-0.41812652229320385,0.46388284715064915,-0.27372312876739646,-0.19493676288218714,-0.37370178245656394,0.7948835247841638,-0.17608599982443118,-0.21050567281700716,0.1076490970210685,-0.3947002802821051,undefined,1497236431889
903d185fccf839df,0.5238322878761729,-0.4970919181125251,2.031022994711297,2.031450581782688,-0.3094258251237353,-1.509464550397867,1.777969006142543,-0.8322612877039745,0.04305447917345651,1.1990841815936086,-0.026694849239571106,-0.0588036582672714,-0.8696384803921569,-0.24012976923176216,-0.4918108796649299,0.4699446123901737,-0.32034704037462197,-0.2913241660064395,-0.45044280382163804,0.728377636801532,-0.26348856603156817,-0.287276842362369,0.13921458895595443,-0.3097728139078344,undefined,1497236433341
903d185fccf839df,0.8495456544947427,-0.4061044764917407,2.031022994711297,1.9041199337776522,0.033663880578194416,-1.4699932616634035,1.8074938366025823,-0.3203053994400967,0.23327135520750644,1.0284365195573726,0.14321530489929882,0.07052885746279786,-0.8217677696078431,-0.209577312080752,-0.4876003298128075,0.6012842724826157,-0.3013785023707402,-0.22239640677809205,-0.4802981953308206,1.1154637489528167,-0.1669129272285429,-0.4150491731871219,0.8963411830152231,-0.29244481125291005,undefined,1497236434844
903d185fccf839df,0.6444154448209433,-0.20299705331780196,2.2071142328298214,2.08841598244822,-0.13747982675740286,-1.5316528817891453,1.8271411153017105,-0.16923743484714332,0.20942099102235442,0.37739116345081114,-0.3030736997505072,0.11106893693408466,-0.14287405303030304,-0.20402229750195777,-0.5918109821943426,0.7629327587726806,-0.2819659858165003,-0.2070010186885424,-0.5347123955985399,1.2009097221419192,-0.17011612131926118,-0.433134420310395,0.8908686591721312,-0.2933538021917294,undefined,1497236436376
903d185fccf839df,0.6097651468709592,-0.22471666670427798,2.913392836533077,2.5663310146566665,-0.2179448358196367,-1.49701243642747,1.8595955486534141,0.13206001127047484,0.12462192267135264,0.13353150364358607,-0.2962151770648788,0.1393261345870015,0.20962845365418897,-0.24661067353524938,-0.626547900678612,0.756870937003713,-0.2675342767858798,-0.2128589900841569,-0.5450536816277234,1.194288387422911,-0.1799787661122433,-0.3888200144630382,0.8886920044771571,-0.26935849090076386,undefined,1497236437832
903d185fccf839df,-0.46162423682292886,-0.25641547660283287,3.4499603102330823,3.114662847598638,-0.7568022178539364,-1.5025536948709435,1.7782477585007983,-0.5856796562808206,-0.3091557817608154,-0.29004669374529335,-0.2684180023635323,0.07360491113807112,-0.6476924576648841,-0.20402227160040867,-0.5370740697082323,0.9953026309360683,-0.26369226531756346,-0.17774281726567523,-0.5364056223075475,1.2368650873991045,-0.1511002025102119,-0.3933213587457629,0.8376103309668707,-0.32234399080720666,undefined,1497236439389
903d185fccf839df,-0.4477640003245421,-0.38027575811841496,3.3312902992889777,3.0242262141632774,-0.8625288923449568,-1.4621600298289932,1.6995797393870393,-1.0732028470247537,-0.29500014360142723,-0.5059025379185164,-0.22703292035826417,-0.021102863347755803,-0.6476924576648841,-0.2725339669798346,-0.45917922138225414,1.0801682204957797,-0.33825120387551455,-0.16146715189850777,-0.49177996133715646,1.1994314660210765,-0.12720237913890714,-0.4504684507629957,0.7133826146601463,-0.4189062728365938,undefined,1497236440849
903d185fccf839df,-0.2731260832114892,-0.37675372658567136,3.530988064502492,3.2334922794116987,-0.7815084589355032,-1.4428669414595046,1.7925670490974484,-0.4522222300667321,-0.3271882014667584,0.03687099324071652,-0.10854562068033434,0.02337131688609107,-0.5780623328877006,-0.3280840350631298,-0.521284551936176,0.7487885268215705,-0.4802247267080508,-0.24275681640999114,-0.5259243983174681,0.7143496489208854,-0.2698206760031942,-0.36338886201711706,-0.1541117216212528,-0.5174985916451945,undefined,1497236442349
903d185fccf839df,0.00962083665698269,-0.39260307307896414,3.9852522705839317,3.4403965919561696,-0.6901920390715739,-1.487136463430346,1.9200495311700905,0.3327671929298071,-0.31567210712056254,0.06475374105775633,-0.32969204496537713,-0.006959457232077428,-0.6302849264705882,-0.20124477078639882,-0.4707582187511232,0.7892007473206121,-0.36774687002504697,-0.16930100205920523,-0.4887713338835975,0.7427135833059002,-0.2139020751162537,-0.269476142904307,-0.05341474049159502,-0.48364842882475867,undefined,1497236443849
903d185fccf839df,0.39631902993491386,-0.2364570251226904,3.5329017157316502,3.1582988175497966,-0.36937086575148426,-1.4311788210657623,2.101829609548955,1.685910154855369,0.07910009662558543,0.24840465101268738,-0.17215658376902152,0.0708705600033142,-0.8826941287878788,-0.11699389549373403,-0.3612844085033703,0.6639230785854668,-0.4696632038384477,-0.09429361950833108,-0.3796140863566562,0.6593156016379784,-0.15314112634140278,-0.21655763184461785,-0.17059252187671076,-0.5619429463935616,undefined,1497236445415
903d185fccf839df,0.4780936420025946,-0.17775534994259762,3.2438829451781923,2.9480517103542416,-0.4432530255242689,-1.2550207880413602,2.012921129200748,1.540952095717589,-0.06937458466818722,-0.041591696027499125,0.0844216851783123,0.032863856837014004,-0.8304715352049912,-0.1521756070065909,-0.3612844232278378,0.6538199669312634,-0.44607023308409993,-0.08416090971862737,-0.3566155697268316,0.5649385309650801,-0.15824962408073365,-0.21411246194807523,-0.17148345833541812,-0.5082218582062933,undefined,1497236446841
903d185fccf839df,0.2743497216702887,-0.232347861679856,2.9133930906700263,2.6003205088552224,-0.2946247016419615,-1.1136336390976709,2.010743652980371,1.918673915934597,-0.21404523926174765,-0.5004892770920265,0.00524555235997644,0.05984239511982102,-0.7826008244206774,-0.06422138002754692,-0.2791790250497373,0.6821084873629266,-0.34002500860499596,-0.1027417668445886,-0.319924293361078,0.6854467653777384,-0.13116588565437154,-0.23374785587842206,-0.12724024309207665,-0.4493621013139671,undefined,1497236448376
903d185fccf839df,0.09555379916799828,-0.37851483003602016,2.7239032443040014,2.206725653878557,-0.4274439031365696,-1.0475414762270658,1.6762323253159286,-0.012486666766391518,-0.26923455054119105,-0.13152956624291615,0.1637921607620607,0.06654203956647417,-0.7086188168449198,-0.054963052614697125,-0.32128436160181817,0.6053254210442439,-0.2948976723558324,-0.07933520624335141,-0.3447699701849658,0.720355040289033,-0.12678926703167925,-0.1872772717304841,0.011492917812054342,-0.47220569446469657,undefined,1497236449890
903d185fccf839df,0.11911595622684659,-0.34681578631352655,2.7162473687026214,1.8277006671927856,-0.5591008250689252,-1.1162027903848906,1.5240559657396424,-1.106312960775603,-0.19754397738137447,-0.25610810992015137,-0.0512985811098957,-0.046000018399521926,-0.7434338792335116,-0.029965519387059394,-0.33075801042228814,0.5204598314845326,-0.3517756841534038,-0.11395107743040564,-0.34391635916625524,0.6462885178674048,-0.15619332995026625,-0.14841389142051917,-0.03009016502908578,-0.4877801834655252,undefined,1497236451449
903d185fccf839df,0.1981188522467834,-0.23176096359370396,3.1099004206204794,2.1829760650822485,-0.5550071238372272,-1.1885629368755126,1.635049562025473,-0.5814027241166604,-0.23593736119470254,0.1794504859120386,-0.22131867457114413,-0.033760467986393476,-0.47361714572192515,-0.1493980932418065,-0.37917911285468237,0.4456974383731893,-0.44682146138059387,-0.17567827847395528,-0.39213138293578903,0.8023055688388931,-0.1790909019576354,-0.1503665502299045,0.0028049170877102064,-0.4182372434737601,undefined,1497236452860
903d185fccf839df,0.09000974597513527,-0.09381208829926986,3.2413309019320824,2.632106846504222,-0.7727759023278896,-1.3240384763445079,1.7536432937256863,-0.2416993429020566,-0.38761416128260445,0.5670565603394707,-0.35345488243304934,-0.09174857192303701,-0.8913978943850268,-0.2716081420090144,-0.43181080931260174,0.4598416420595779,-0.5182687260698674,-0.2646434698753276,-0.47348330392870797,0.7552787178998634,-0.2525592736179438,-0.21231558018256108,-0.014339378476105127,-0.406673458466448,undefined,1497236454502
903d185fccf839df,-0.3063905748957159,-0.30983395834384847,3.582028802356213,3.118262319045903,-1.0021469474860514,-1.3837112543740968,1.6867462889258111,-0.8203312100337818,-0.4303594949572623,0.6332593220877404,-0.28405715911321994,-0.056250210540482785,-0.865286597593583,-0.09292223904001475,-0.3644422767190593,0.5689544056362736,-0.416167711696809,-0.0970991128819425,-0.39430039510889386,0.9420464648853045,-0.131911467116809,-0.10817447602108185,0.059170430670862445,-0.31798498514864193,undefined,1497236455848
903d185fccf839df,-0.43944795504065737,-0.38966799808835717,4.250026884436296,3.713012069886151,-1.0589034253007263,-1.5502798079335038,1.8461099142658541,-0.14942910887624972,-0.6251228954863466,0.8718443679412284,-0.728689343686687,-0.029253835638925547,-0.9218610739750446,-0.10866141895325358,-0.4107581336743275,0.6235108015569822,-0.34023913997585536,-0.007861606696321966,-0.3834693329361663,0.9147912242804417,-0.1007462698384277,-0.05050086598093516,0.16429040672033227,-0.2604589214651709,undefined,1497236457366
903d185fccf839df,-0.4671682210049724,-0.4119746264729546,4.005030732809757,3.6066530534304566,-1.1106199103382315,-1.5710286696775109,1.9051569549411045,0.09132202817007713,-0.45310222057052973,0.4446447501723024,-0.6536421863676519,0.04282837988289411,-0.8913978943850268,-0.04663049836956939,-0.34970536696109844,0.8033449227422792,-0.27991404756051413,0.007799763793001578,-0.2951555844236084,1.0356998173861913,-0.0441347904182488,-0.1022067950788099,0.18949495620473375,-0.2133656734964628,undefined,1497236458836
903d185fccf839df,-0.44637798702632636,-0.2370439816648271,3.5105714643966643,3.178420861849483,-1.0323663240367207,-1.528534029598921,1.8109099616461362,-0.443734336771005,-0.3513910697913157,0.11009524930514977,-0.7097272774942042,-0.04973834101695576,-0.8609347147950089,-0.054037201742327776,-0.3233895481810739,0.7750564588400589,-0.21331183145547947,-0.055738661689148386,-0.2961211445448041,0.8578323721110251,-0.09872255546714913,-0.15708641403301357,0.20786977999005418,-0.26882991533372136,undefined,1497236460341
903d185fccf839df,-0.2551079793455039,-0.24702329508887536,2.98995413391637,2.5203310610803036,-0.9848978333464858,-1.4997819002696458,1.6909592393121808,-1.1903730071131322,-0.2161818632371992,-0.3653326827975851,-0.5594041033431489,-0.07321898005607812,-0.5345435049019608,-0.03829802182908894,-0.3128632324486381,0.8659837853745733,-0.19679094102043135,-0.029254291889158388,-0.2439669159091457,0.9970959149619837,-0.048977783831142034,-0.12245375451428925,0.1715823619512345,-0.2848429020282858,undefined,1497236461843
903d185fccf839df,-0.3632170511117423,-0.26052469850165194,2.597577103621567,2.1754704533833427,-0.9802692662022694,-1.5055071695413933,1.7720387825716728,-0.7800649217234906,-0.1708754618186888,-0.6446180385597087,-0.48443512081434137,-0.050145364770326,-0.5127840909090909,-0.13643642709335208,-0.2907579782452036,0.5972429543326584,-0.31441315853329366,-0.1908646804519708,-0.31449476913620883,0.7958690247676962,-0.159425745475812,-0.20910391807300513,-0.052025941084870714,-0.37614089838799775,undefined,1497236463470
903d185fccf839df,-0.4089555589636816,-0.32450927484089853,2.4814591359235725,2.1788269394183906,-0.970826996012875,-1.5324634568176951,1.8374420596588983,-0.42340612633087576,-0.16730931440233796,-0.7893983065330638,-0.5191777401526305,-0.05996195824342007,-1.013250612745098,-0.2271681289848568,-0.3002316270656736,0.5426865866766714,-0.36863189247535866,-0.23954601675049628,-0.3367306327565353,0.6976423397445933,-0.20145280456661446,-0.2747480636456673,-0.2199164477805481,-0.48353174082782974,undefined,1497236464872
903d185fccf839df,-0.4408338993280536,-0.4113876699308179,2.6549980766590373,2.522239538057099,-1.0417365927604325,-1.574475944934052,1.9246253894587146,-0.05235070022667172,-0.36137437043084747,-0.28522433237434064,-0.4720503245411596,-0.016653913807676873,-1.0872326203208558,-0.20957727322842837,-0.38233702524377416,0.4780271356312023,-0.40733656022835385,-0.2304582426121955,-0.3854074479585699,0.6299045810803886,-0.2277961341013132,-0.29163654319885385,-0.1818395586244608,-0.5349642856976111,undefined,1497236466349
903d185fccf839df,-0.3881654285012648,-0.44660851136211643,2.507617452127723,2.3341506315706355,-1.0320166097292545,-1.6123773260596668,1.9345765814779776,-0.06646784166626643,-0.3899821370276172,-0.21311314522043423,-0.429903403601953,-0.00817280059246908,-1.0437137923351159,-0.27345981785220397,-0.3812843877807436,0.3446669436550284,-0.5061187377648563,-0.25723392876811535,-0.420902268704033,0.5523272123835047,-0.2670174285124961,-0.3007093915290491,-0.2177964288493814,-0.4770606132264627,undefined,1497236468045
903d185fccf839df,-0.2315457532758361,-0.3063118683551202,1.895126818924426,1.9521308210862822,-0.9976315258800057,-1.6077072010260265,1.9674281172477355,0.10890604273020872,-0.357129685194699,-0.014018433256577431,-0.220000568535605,0.0019016912500355188,-0.9958430815508021,-0.2938281355703186,-0.5097055987407095,0.16281234711544276,-0.5400404892718023,-0.3261616878691195,-0.4623513765576829,0.35094634130226615,-0.34036635597008474,-0.33064057669152835,-0.338294715488976,-0.507668658478657,undefined,1497236469456
903d185fccf839df,-0.4131136333637386,-0.2552414466065901,2.579712800898799,2.6489794644090043,-1.0329731801919981,-1.592196797139091,1.9283886418815182,0.042394568686956645,-0.3442030331100962,-0.16468771561288448,-0.515857824525751,-0.05483697139353279,-0.9914911987522282,-0.30956735433588106,-0.549705704540132,0.35679067198712827,-0.5225836621873156,-0.2896142698183038,-0.4689423732537843,0.4763666810238979,-0.31129916674009595,-0.3130010927258728,-0.233353534998206,-0.4895878253407485,undefined,1497236470960
903d185fccf839df,-0.4117276545709326,-0.19536591679820858,2.3736351817069594,2.3788910701079824,-1.0005938049666523,-1.5718345884175544,1.9054672400622805,-0.0439895105729415,-0.26745969966466526,-0.0472890008451796,-0.3640218347800173,-0.010760948653701826,-1.02630626114082,-0.2882731468930735,-0.598126777523591,0.5568308186277814,-0.4726645103453601,-0.2501093666936528,-0.48908619040363327,0.6191872604515475,-0.277635299452853,-0.3337406256503919,-0.08660438361763989,-0.4929055163453003,undefined,1497236472349
903d185fccf839df,-0.3687611043046053,-0.05506909842325829,3.267489472273182,2.8648410161112423,-0.9274830701211405,-1.5902006397368948,1.7640678343936982,-0.8563586398031265,-0.2899538994414118,0.22094009171607276,-0.619892927166996,-0.0775094640140222,-0.9827874331550802,-0.2919764985794526,-0.5054951225109251,0.627552091442218,-0.4862358011364267,-0.26821525306041966,-0.4626242511419729,0.6770084211099315,-0.2596357647828933,-0.3444521887448447,-0.10807101538586707,-0.4764866361616381,undefined,1497236473888
903d185fccf839df,-0.26065196352754744,-0.15662286846621234,3.2496249154134644,2.85394006427851,-0.8898168481544219,-1.6158082942220688,1.8734362076870286,-0.3065297448226572,-0.3341933200149109,-0.037302232901474414,-0.514734675483803,0.0006839538142673361,-0.8957497771836007,-0.2808665082741878,-0.48444241742371563,0.635634473359639,-0.4508791747243979,-0.2687408860070135,-0.4727766226902481,0.6657367587201544,-0.2615959031019131,-0.3651860927858082,-0.11328957514101483,-0.48807310557282463,undefined,1497236475353
903d185fccf839df,-0.40479762258526353,-0.10320444518118142,2.845125806768115,2.8282743154448924,-0.9409161919377671,-1.6067359072741623,1.9074921973713428,-0.09435384444586149,-0.37230562708740245,-0.05643711011095193,-0.45747927248800885,-0.11969637129320063,-0.8174158868092692,-0.2271681289848568,-0.44023182067004113,0.6174490928469007,-0.40909763532295107,-0.16754044761470302,-0.42715741507085075,0.7938980194964816,-0.17747843631273486,-0.4045675513996684,-0.07176876118203591,-0.5307849404902566,undefined,1497236476965
903d185fccf839df,-0.1539289395649345,-0.27109091001185226,3.1609415396796243,2.66101677625462,-0.782639884781519,-1.6122189351036877,1.8908192368648165,-0.13524392371821234,-0.3863030607327045,-0.11713544002490174,-0.6607947354587902,-0.01077844671159989,-0.678155637254902,-0.21235477404243822,-0.4633897270609738,0.5709750505788915,-0.41962381014809774,-0.06652999415534806,-0.4575305718022027,0.8112674664041494,-0.1425020778166041,-0.38924796389697724,-0.10149688235797279,-0.45528446292805486,undefined,1497236478350
903d185fccf839df,-0.43806190723703187,-0.17540740686208142,3.0856562639193856,2.8836800541416414,-0.9770704136691092,-1.6092095579472336,1.9874067532783262,0.45308058275335716,-0.35437488220405206,-0.20688184890685765,-0.792431889604825,-0.015648059806655935,-0.7303782308377896,-0.2419815098288245,-0.45917923610672173,0.4396355318100571,-0.4384565958955946,-0.12086031883848701,-0.4511284893362099,0.7103460548684134,-0.18498885875471072,-0.38655604032733015,-0.16679881526623241,-0.46282702142380683,undefined,1497236479885
903d185fccf839df,-0.3826212717921726,-0.14018647774680584,3.13095490446936,2.933495035298664,-1.046200582046287,-1.6809780766898283,2.0013052771539566,0.4576489111633418,-0.34227900671655836,0.06208034682702853,-0.9445700370769908,-0.1804093080712824,-0.6259330436720143,-0.28086646942186416,-0.4654950167115026,0.29617242603273053,-0.5752085557731038,-0.1522907184422632,-0.41382149617635744,0.7637786584938319,-0.1860885407548769,-0.40161588463279624,-0.23221545397886692,-0.4804424830506403,undefined,1497236481618
903d185fccf839df,-0.31054861479036316,-0.13666432930209285,3.364466861488405,2.9234474008621967,-1.002938942747125,-1.7085003662696383,1.925324911156794,-0.07096129826529243,-0.375106156067975,-0.21908967226344872,-0.9183088800398526,-0.11883614936273455,0.4750933043672015,-0.2623498145961646,-0.5212845813851111,0.4012439279889119,-0.594436269882152,-0.1417527001963031,-0.4813197304528628,0.8481159406625557,-0.19004122820399255,-0.41078022972979045,-0.15259180134480857,-0.5244834379856402,undefined,1497236482891
903d185fccf839df,-0.3313388487690092,-0.2153244559623281,2.9357230878680625,2.765144415270451,-0.9643367206254565,-1.774112707141617,2.0133708180639687,0.3301948434300667,-0.39811290527873544,-0.018234990921918316,-0.7953946686906105,-0.16890336449943336,0.4359263591800357,-0.25309148718331476,-0.4654950167115026,0.49621257267338365,-0.5830962135766194,-0.12774422970099852,-0.4046416798901969,0.8566620784371998,-0.14879783217567977,-0.3729989649942975,-0.29436130295911345,-0.6257481036150673,undefined,1497236484369
903d185fccf839df,-0.3687611733154248,-0.1607320026810544,3.007818690776088,2.775056498576826,-0.7767873158047128,-1.7020623494067175,1.87396743112925,-0.3943843493548062,-0.35634146301195346,0.49224293669366437,-0.6259808428384701,-0.12692227805402784,-0.8348234180035651,-0.13828812883809075,-0.38023173559324536,0.5386453533208786,-0.4468838290826839,-0.07856892096640004,-0.2831700471961146,0.8513034195699775,-0.08707082234530078,-0.2148330754865392,-0.16190195391333748,-0.5654927712166555,undefined,1497236485846
903d185fccf839df,-0.08740019773434918,-0.24584926509263258,2.9542257826077827,2.84292474356922,-0.7206891246330295,-1.6255561605531206,1.9402753655836986,0.1928498960244651,-0.4317136274011069,0.4051234057035367,-0.5965567804085801,0.038813170482819036,-0.8130640040106952,-0.05496300081159893,-0.3697054198608096,0.6760466655939591,-0.4032205615991821,-0.05179323321592053,-0.2570509526644923,0.9140828802409452,-0.05421955466763073,-0.14290451309321645,-0.07831754113952051,-0.5299213628088935,undefined,1497236487473
903d185fccf839df,-0.23986179855972087,-0.14194749351317767,2.6677582928895864,2.4933102132115335,-0.7360045234482476,-1.596841299392007,1.9000367066469501,-0.049011948019958944,-0.39094265974609743,0.5174015449855098,-0.5296519048516793,0.00735051684191865,-0.8870460115864528,-0.011448838659810709,-0.3476001803818427,0.8013243908585473,-0.33646956023336205,-0.11397007271243488,-0.32119771461670804,0.875171011438726,-0.1067084276522436,-0.0779728673559491,-0.03617504904153426,-0.47921864372923717,undefined,1497236488921
903d185fccf839df,-0.2911442905937037,-0.13372922508349355,2.888510541951981,2.757890281702151,-0.800063849319058,-1.5460475805124942,1.9353102914067257,0.21805970618705717,-0.4200075700440534,0.5806843824975437,-0.4131000776102561,0.06530412636768151,-0.6172292780748664,0.004290315351879034,-0.299178989602643,0.9084165094926252,-0.2887555432461518,-0.14079642226274725,-0.3115211250396882,0.8820387183770163,-0.10957411191246912,-0.09156885296512983,0.03738525198507407,-0.4819558317370646,undefined,1497236490372
903d185fccf839df,-0.4117275855601131,-0.07561468181349153,2.6435138820515434,2.3211976927501725,-0.9234099310791218,-1.567602359140949,1.8414814472067549,-0.4511874220183993,-0.5692194454052153,0.1011671583376084,-0.5689493942701334,-0.025539705961168824,-0.6128773952762924,-0.0058938758841146546,-0.40444229417167626,0.9367051712478961,-0.3741710743316206,-0.1915296347101243,-0.3272779431461994,0.9061834781308691,-0.1332521071012219,-0.10513447354524044,0.006632050164209956,-0.4797644336104457,undefined,1497236491993
903d185fccf839df,-0.4560801491246561,-0.03334960194875164,2.663292344277369,2.4659077013351967,-0.8829151466659284,-1.6160947876201022,1.854430616222096,-0.4912835039845159,-0.5782282060945518,0.027473674174635365,-0.5626560483227532,-0.013058283993791019,-0.6128773952762924,-0.07162801864643258,-0.4465476307237572,0.9104371826999647,-0.32079459161690105,-0.18308148671500357,-0.37442245642368616,0.8993311659762774,-0.1552544344775874,-0.10785708261988507,0.16105783659664646,-0.39001124658754444,undefined,1497236493365
903d185fccf839df,-0.4117275855601131,0.14275510208361095,2.7411299174206665,2.4659077013351967,-0.9037745429726491,-1.6232781616869076,1.845008022293559,-0.47865201959100456,-0.5545882126299558,-0.03569719249182942,-0.6968956715352543,-0.015011646515053611,-0.6476924576648841,-0.29660566228587754,-0.47496873915431054,0.8417365265634243,-0.4097759216762841,-0.2960675352066268,-0.44464244895674315,0.8692734020536784,-0.2271535631970554,-0.293680808007044,0.06482461267582044,-0.5997838729112287,undefined,1497236494937
903d185fccf839df,-0.45469413582644036,-0.0069339270332892024,2.498047417023286,2.3135558951355564,-0.8935402701762678,-1.6698326649851505,1.8526528722232372,-0.4793863079462316,-0.4647563620862995,0.0637811955820905,-0.7419758035748272,0.005795514503008451,-0.6215811608734403,-0.30308652773704114,-0.4549687451524696,0.6477581168975742,-0.41651556945872636,-0.340638793295338,-0.447588106702848,0.6771777958247565,-0.281486782451947,-0.21055730002348044,-0.015770604809209325,-0.582051281406406,undefined,1497236496514
903d185fccf839df,0.1426782168019241,-0.018087153541610886,2.318766251915599,2.1858823261113636,-0.5857922181761717,-1.7104685752656836,1.8487844245193217,-0.5202113813693913,-0.35764842050031415,-0.28100974769877796,-0.5635369429874506,-0.006175111490671502,-0.691211285650624,-0.10958719212097565,-0.49496874788061895,1.0539003450067344,-0.3238138573880836,-0.2503690163656795,-0.447077337655381,0.9113111591586388,-0.18946467594537053,-0.3659498191899903,0.13839310138918595,-0.6393481835824549,undefined,1497236497877
903d185fccf839df,0.2286110757967105,-0.02982755580201182,2.2626210463642344,1.7894533494901774,-0.5305785938329844,-1.7116658051505547,1.8484162494156071,-0.5497436989023368,-0.279944371447361,-0.2513692158405277,-0.44359790033741114,0.040524662963667316,-0.8696384803921569,-0.09569970100170096,-0.47286342005484655,0.8296129112902106,-0.31529143227087153,-0.18941443429020818,-0.43670806326938566,0.8930639997566234,-0.16482664656884846,-0.3655983130131303,0.10979034291553658,-0.6735468893638706,undefined,1497236499368
903d185fccf839df,0.42542520568121545,-0.10203047364092332,2.720713317314839,2.3854897839248648,-0.5228231733526995,-1.6352481256045774,1.7876466941496199,-0.7996674220892525,-0.42249066594927387,0.35099692071476385,-0.3422388769594806,-0.10714319032759238,-0.7826008244206774,-0.10588391813924374,-0.34444220909488055,0.7225206513325252,-0.3033582277996329,-0.19251757691359694,-0.3779838270061513,0.7551709319049954,-0.1700734343557214,-0.3228579748757305,0.04061944485957989,-0.6559362223972335,undefined,1497236500902
903d185fccf839df,0.0886236291606903,0.01889482056802886,2.251775243773692,1.9056864279971022,-0.8402603557300143,-1.5977776537791157,1.7437657524399934,-1.1651076217781111,-0.38046345335051673,0.38675893676448636,-0.29786632339992536,-0.006207483356266177,-0.7390819964349377,-0.14569478040775094,-0.38970547276052087,0.9205401247658389,-0.2961888046405071,-0.1473510229940041,-0.4162773734541557,0.8371984500434743,-0.15371547538051622,-0.27772079757828866,0.004312536244375209,-0.6335750395836821,undefined,1497236502367
903d185fccf839df,0.01655090314806145,-0.09850829596821797,2.475079281945247,2.184351571289935,-0.8034787034565382,-1.6125916154982554,1.748541474613393,-1.0603451644715491,-0.38047201951976756,-0.0690739469705515,-0.5615328970608691,-0.001549512246036245,-0.7695451760249554,-0.12069724718011322,-0.37602128881239605,0.766974076922638,-0.31071240186899435,-0.11866912064723603,-0.4579083995895432,0.8717063680925519,-0.14966051485325174,-0.34310796143861566,-0.06786956672122318,-0.5909171604356881,undefined,1497236503882
903d185fccf839df,-0.27035419463669663,-0.275787088452808,2.8464020825281193,2.7330872091159426,-0.7738044729399731,-1.6282953459059397,1.8869692076056641,-0.2152285368569619,-0.3311678188703263,-0.4314646084529219,-0.6190321806904714,0.037965519302837994,-0.6172292780748664,-0.22994562979886665,-0.2802316183393651,0.5790574324963125,-0.45181333367555515,-0.22442928166531478,-0.42369399402333396,0.742328626598843,-0.21840985527622445,-0.3288572669404132,-0.1591210697716662,-0.551137597561356,undefined,1497236505339
903d185fccf839df,-0.24540592076340334,-0.2417401016497982,2.8049312527103605,2.4081750670613906,-0.5978264840952797,-1.5942302220570908,1.7404890085512952,-0.9486699726740405,-0.2796817752913515,-0.8863152445417211,-0.8001768107872925,0.062288391446218595,-0.7042669340463459,-0.25216561040939633,-0.3402317475895636,0.532583531551911,-0.4910957703296668,-0.19778025438847946,-0.4552146274081396,0.8350272641198705,-0.1984445488297122,-0.36028993177268503,0.008921496863819668,-0.4638759042933054,undefined,1497236506887
903d185fccf839df,-0.2107554502863706,-0.25758950659907565,1.710103175307568,1.4525465239366233,-0.6087293219738007,-1.514451450674917,1.6405300861924348,-1.4912638972233045,-0.3215798816103278,-0.7768269919937805,-0.654306569818744,0.04692071931741431,-0.7086188168449198,-0.29382817442264225,-0.3886528058485551,0.2941518941489987,-0.43024691800502535,-0.2852888707261782,-0.5954167254738912,0.6026955160222693,-0.3266843739242353,-0.2898712982730473,0.02049020786779977,-0.33050666486891944,undefined,1497236508386
903d185fccf839df,-0.13175265778266299,-0.2828312684302647,1.6769266131081408,1.4369170310251478,-0.6817886302246124,-1.3756427695023588,1.642189493618338,-1.3229872658846675,-0.27090112249353215,-0.40091296727197556,-0.10955995822235087,0.016853948495961536,-0.7086188168449198,-0.3428973641039993,-0.6381268391496108,0.2517190004426177,-0.49201947644927146,-0.32911283954527076,-0.674354746451323,0.5798442238415681,-0.3793919160040157,-0.34044161387536376,0.032666142077755984,-0.29425339600235234,undefined,1497236509928
903d185fccf839df,0.1440642646055496,-0.2317608466817346,1.77071432947115,1.5174162995486724,-0.49165752071058405,-1.2571543702063148,1.6032709901280298,-1.183945694262367,-0.1426815953931166,-0.2482824118284691,0.12025803837961721,0.024722424865312877,-0.843527183600713,-0.2567948000173703,-0.641284736814235,0.31637850801752976,-0.43707014536513356,-0.29243876181809086,-0.6439186180917598,0.6302125363519948,-0.3424874454035477,-0.33458678788103946,0.10397108973088239,-0.2662687096879462,undefined,1497236511372
903d185fccf839df,-0.0028533520377785515,-0.10320432826921207,2.3883098115775145,2.6177102617462786,-0.4560587168927859,-1.212253626456472,1.698438408264214,-0.44974617794359106,0.03911871435316947,0.8540590696122913,0.33593156334472396,-0.06060159857900409,-0.9958430815508021,-0.292902349451822,-0.6370741869621126,0.32041968484387945,-0.5053962413658407,-0.31158958448958735,-0.6285466249260213,0.5790896996916045,-0.3547149173165711,-0.1889418200685262,0.09834474889822035,-0.29934115704926983,undefined,1497236512902
903d185fccf839df,0.23415519800039297,-0.14077352197291956,2.9287050960097356,2.8660698806392255,-0.30179383175558594,-1.2119135590211214,1.6500105261526063,-0.6293569919706323,0.050407626712135334,1.8523440210825575,0.34055058967498236,-0.010906503575700572,-0.865286597593583,-0.18828313053949347,-0.5591793386361344,0.61138721454849,-0.1996914015925287,-0.294978274070898,-0.5062353755078586,0.6947166305999253,-0.2787708325365862,-0.13231559884216507,0.1605140276633502,-0.33749873094374583,undefined,1497236514388
903d185fccf839df,0.7442085748195261,-0.16836322688462477,2.9854879311672033,2.7684327115603713,-0.07587878060229776,-1.329605358539994,1.7107774493891463,-0.4745995869317128,-0.15108759432763888,2.040149830089968,0.10508628740992683,0.013799472220291998,-0.8783422459893049,-0.09477386308010616,-0.4507581953003472,0.48408890087072687,-0.21813415240874462,-0.23583491348298452,-0.37784389400007484,0.4391948330703714,-0.23796969316863398,-0.09944697794585788,-0.07771268528114797,-0.5479154414853632,undefined,1497236515847
903d185fccf839df,0.5654126868226453,-0.1912567533553742,2.999524677294706,2.7638029457253146,-0.2562487629086322,-1.4679085953300528,1.8093794046835052,-0.154109626045605,-0.13702373911956453,1.9926743236161548,-0.2855281856667277,-0.005108834165767663,-0.8391753008021391,-0.03366883222111495,-0.3044422063667312,0.7669740486579165,-0.2919151286951999,-0.1758682681629069,-0.2843874906798693,0.6291962499647091,-0.139044158188759,-0.20234783212503382,-0.0602871364250147,-0.7125103987802865,undefined,1497236517502
903d185fccf839df,0.5335344499745025,-0.1577969569184398,3.285991912875953,2.8495599509371536,-0.3694222906437407,-1.5121292021361454,1.7511844277490578,-0.6301894245693201,-0.30522272577944737,1.6022043201799638,-0.3648823883716422,0.07403724746477315,-0.8217677696078431,-0.04107556149542243,-0.2823369374388291,0.833654172910725,-0.31396885041442096,-0.13726897838703583,-0.25185931683467516,0.7201086680428265,-0.09303145603772663,-0.25268008739550063,-0.027213438240765227,-0.8296074548243104,undefined,1497236519092
903d185fccf839df,0.6887679738800766,-0.1865606918263878,3.337032523661199,2.6624000452579457,-0.3407457656760674,-1.5121990779690049,1.6674619242831283,-1.1325999890752736,-0.31544954252205076,1.5598111787739057,-0.40153054818211437,0.0007444467575835955,-0.8000083556149733,-0.06514724385069082,-0.28338958962632727,0.7750564023106159,-0.2917406571140529,-0.11426139465486088,-0.20570135488176375,0.6996903292060406,-0.0735635282296465,-0.2276474845047707,-0.010690327294398545,-0.8289318734178045,undefined,1497236520402
903d185fccf839df,0.23554121129860872,0.03180906284272237,3.423164110285879,3.0490703646797486,-0.5521785537507624,-1.5197201889313043,1.8885260593580684,0.20464905413313306,-0.33067030672718695,0.9156436430979765,-0.23061869551204187,-0.009212792939527373,-0.7869527072192514,-0.030891344357879647,-0.30865271204545086,0.8316334997033855,-0.32567044988112265,-0.057359894766724207,-0.16192231012560257,0.75493995387707,-0.026418770267418144,-0.14456214721405644,0.044767649837397124,-0.7741232340644927,undefined,1497236521998
903d185fccf839df,0.5862027827796524,0.05352867622919838,3.7976768378579133,3.6607738832676273,-0.05568796062864682,-1.5348159888073685,1.915315892382753,0.4716540946580118,-0.3164721949589273,2.10889940121784,-0.061527322975638093,0.08035379115911297,-0.7651932932263815,0.00706786796898707,-0.24549474402849847,1.0316737311382032,-0.3144544436463916,0.043213582921291016,-0.14122574073854324,0.8819925319258017,0.05284221382268923,-0.11215429265995977,0.20540151676469004,-0.4516675655415722,undefined,1497236523344
903d185fccf839df,0.9701288804503326,0.02241682287278017,3.063325504310501,3.2115078837394853,0.3022954403565409,-1.6085107849623295,1.9597464580405526,0.6126400509860195,-0.3903447578711061,2.573150060359662,0.01240069994127027,-0.09310304329637634,-0.7564895276292335,0.0061420688997159125,-0.28865276221701275,1.0437972898819738,-0.291527380905227,0.08442838220639441,-0.20137732517885656,1.0106311444705771,0.0467410458275836,-0.026920129102688848,0.23474421626147157,-0.32145070546188836,undefined,1497236524869
903d185fccf839df,1.2833682999120095,-0.163667048443669,2.720075179434837,3.114777429672502,0.6515051431282691,-1.6639233873441561,1.9957116775922488,0.808950014972707,0.09095636059460886,2.653359968286446,0.019325312974842513,0.019794185221162882,-0.8217677696078431,0.0903929700939298,-0.23286315337000152,0.7932419241469618,-0.1251202778276105,0.13623186120509073,-0.1614255352259563,1.0262605659792914,0.1022532502983343,-0.0011299828372125884,0.05031993529546511,-0.39298605635052897,undefined,1497236526424
903d185fccf839df,1.1267486591919906,-0.20710621676063634,2.3283365411569856,2.311676994659447,0.7183724536998227,-1.6639210566140286,1.844205919405005,-0.11737432723405222,0.04269465431972182,2.329742995330554,-0.26220561895109884,0.04310930662265948,-0.7129706996434938,0.11816792643093009,-0.18233680546048125,0.7730358986916056,-0.07848459632555323,0.17205732392029693,-0.13147918568921002,0.9649747568859799,0.12407655308668501,-0.03780663617857901,0.006211917598822431,-0.3393708663586662,undefined,1497236527847
903d185fccf839df,1.1336787946938889,0.1128173371794202,1.6992568644431267,1.9930279826358055,0.5616081482353308,-1.5334417346127158,1.862164861923548,0.16137493423921362,0.08278453832826045,1.9686515379057241,-0.07163124705591055,-0.00978686343175861,-0.7782489416221035,0.18482792006561735,-0.17075783754054732,0.8195097713712857,-0.02150992174862789,0.14815046224683562,-0.21548989461340332,0.9494839218036135,0.08251611079805268,0.043071866651332245,-0.0017776136051663794,-0.20292633428193058,undefined,1497236529395
903d185fccf839df,0.5681846789136672,-0.2652207015746537,1.5097680346248996,1.5255312941623937,0.15832653644645509,-1.489791793339001,1.851992774793513,-0.03834133607840505,-0.024807588752215223,0.8040889087480898,0.03134277346539711,-0.08323822123536544,-0.6302849264705882,0.08298618901652413,-0.3812843877807436,0.3163784514880867,-0.15762136796009443,-0.007608286291626526,-0.4302500092281007,0.6070532907305614,-0.11172143187189419,-0.19348620500640967,-0.13609605634725322,-0.37082498759692706,undefined,1497236530945
903d185fccf839df,0.3519665353811903,-0.12374997011542997,0.8711183228066041,1.0896831341263058,-0.225545964748757,-1.395662577514221,1.8638216443907758,0.011026075040987009,-0.4106340280662514,0.11752337798232379,0.09623917515723804,0.011422376581321203,-0.3996351381461676,-0.017003892090928594,-0.4465476307237572,0.12240009835167964,-0.21394363020500592,-0.20176367223538297,-0.5237483928569139,0.29121577130842224,-0.2893111379630031,-0.10650783954990194,-0.25702374696464475,-0.29932087719899525,undefined,1497236532387
903d185fccf839df,-0.06383793715927165,-0.2828312684302647,0.49788161685762455,0.5421184817575657,-0.7576662112278194,-1.3392600516382542,1.8132084003147262,-0.4759297388998936,-0.4465157351491383,-0.18117566255984743,0.19862705920216855,-0.06508840137772978,-0.4605614973262032,-0.2993831890014365,-0.7370743189404604,-0.12209345974672554,-0.44090201077437835,-0.4296736486717216,-0.7144184860817121,-0.040374356310951404,-0.5073856617974933,-0.20354237490723445,-0.46065146861454115,-0.36391787618578375,undefined,1497236533905
903d185fccf839df,-0.41449961215654463,-0.38027587503038435,0.399627951882398,0.40585181756015853,-1.0143252095067457,-1.2848327184734982,1.8614969017952387,-0.097550168600734,-0.40733625125974354,-0.23107523469945324,0.09226855280582158,0.16958599053501747,0.08342385249554368,-0.47343991531323665,-0.9539167013210741,-0.4171021804100466,-0.7642719330124786,-0.5947608248581518,-0.9054804005198583,-0.3503296634741828,-0.7162353982510729,-0.32883436665531346,-0.5402400478327557,-0.4098929816912127,undefined,1497236535362
903d185fccf839df,-0.5184506957862504,-0.4565878247861647,0.23821083536053025,0.5042782198793727,-1.1532952645241015,-1.3072935733426458,1.7971166177316105,-0.6005884525510019,-0.2860954178464586,-0.2991213955535372,0.1070550037581256,0.1289237174598242,-0.0036138034759358177,-0.5113991341154907,-0.9318113882197693,-0.5565240669639412,-0.7802759820990472,-0.614956581697225,-0.8862741554218951,-0.5313999824943175,-0.7454843431678542,-0.36076138510396877,-0.6568402909222567,-0.4732476383603077,undefined,1497236536849
903d185fccf839df,-0.47548433529967665,-0.4900476796790838,0.6637644278547603,0.756347640012235,-1.0788062437747836,-1.3662279817795426,1.8795636604944217,-0.16169869017161193,-0.31453832279804156,-0.33563260261828587,-0.0014454185519417958,0.2717440196193491,-0.4083389037433155,-0.5067699380321294,-0.9318114103064706,-0.46761734297496244,-0.7495234389521876,-0.5606009268837664,-0.8801099649416696,-0.4706685145426759,-0.7076075750522997,-0.37476377991360765,-0.6399652843907716,-0.43964829911396436,undefined,1497236538387
903d185fccf839df,-0.24956392615264086,-0.2094542767531219,1.266685534227519,1.210937387319794,-0.9380979082485233,-1.5156812873220573,1.9986202438893674,0.4415955745311886,-0.40111970325729124,-0.5102843344299399,-0.29865982584873224,0.07020484908687517,-0.499728442513369,-0.29753147430592325,-0.7802322635066368,-0.47165854806603363,-0.5757685287198918,-0.39811025996922306,-0.8067833874373405,-0.3246450585025856,-0.5700010118520854,-0.3014986045264053,-0.5523961121138983,-0.4077573936382418,undefined,1497236539840
903d185fccf839df,-0.2467918305453899,-0.10379151863528747,1.733709702402558,1.6579798118451408,-0.694923468207483,-1.5740613408434476,1.97675603746594,0.4134694213035532,-0.41888322673912437,-1.1867915629995507,-0.4172346266890449,0.03561265732797387,-0.6955631684491979,0.105206221430152,-0.6781268934133966,0.09007042935838822,-0.23529567899128395,-0.16163814514273023,-0.6972623063993375,0.13533730530935273,-0.34448214233963215,-0.31271722450435463,-0.27353521774983425,-0.25986630484615325,undefined,1497236541346
903d185fccf839df,-0.20659744489713308,-0.20651920176251495,2.7781345444892582,2.159329334526702,-0.7860753161345925,-1.503087093333296,1.8590301450988171,-0.1696963291851989,-0.4111195904829152,-1.0164250530676946,-0.35833130169940447,0.012649986171101548,-0.49102467691622104,0.034842850207536455,-0.6476005321434835,0.8417364982987028,-0.2990312594961237,-0.14631242239021158,-0.6791405656782081,0.6202959434080026,-0.26567911773331676,-0.2774032270236325,-0.22330883734133575,-0.3010693393243556,undefined,1497236542834
903d185fccf839df,-0.21907163359189433,-0.19771397679069413,2.786428303833691,2.253945891162368,-0.8876465672936213,-1.4791448431823406,1.8201432035711005,-0.4315928320161752,-0.47369137545354945,-0.566234748168141,-0.44733273459029416,0.07142264548244188,-0.47361714572192515,-0.09662553892329576,-0.6360215642235495,1.1791780702713226,-0.41951762259979875,-0.07027909707258749,-0.657611377472899,1.0382867509439417,-0.178924177947968,-0.2369931641355842,-0.0701990726358502,-0.11867211820102475,undefined,1497236544340
903d185fccf839df,-0.11234843710223272,-0.2640467300343956,2.44700655210109,2.053013429721182,-0.9892898246555665,-1.5646186028280784,1.7767329943245427,-1.032763332915854,-0.3575862035828423,-0.005397437677148319,-0.21658506675361602,0.09991733996103642,-0.7303782308377896,-0.238278080437798,-0.6497057997073109,0.6639230220560238,-0.528766072353519,-0.16670449486356786,-0.6877186559108873,0.8346423102129734,-0.27414983405092436,-0.25069326321974816,-0.22261471241519407,-0.1922806947104047,undefined,1497236545838
903d185fccf839df,-0.2925304074081487,-0.38438492156124937,2.1956302923592768,2.206925707835252,-1.059016565409483,-1.6674242343837549,1.9393733508520812,-0.2595229415041763,-0.38242148685066535,0.02054387873351553,-0.07883674558615614,0.08423011955640751,-0.8913978943850268,-0.2308714547696869,-0.7307585383356795,0.41740880488263993,-0.5515065664571754,-0.12721225706153175,-0.7056654748920052,0.6606244784802732,-0.2804482954063056,-0.36332704883390504,-0.2649001048010915,-0.24491796779150424,undefined,1497236547370
903d185fccf839df,-0.6113137765464594,-0.12081495358080771,1.9200091135055215,1.878342756635633,-1.0461697296283887,-1.6013180955985413,1.917638006893416,-0.2412653949290829,-0.3645801639030711,-0.47601843562708307,-0.04758743128084604,-0.036914981521305075,-0.865286597593583,-0.20309644662958842,-0.7844427765475902,0.11229718455052694,-0.672416518461999,-0.2994619926467522,-0.7316166476998325,0.1370619311454876,-0.4414829978130592,-0.4714340023109603,-0.47344898485497994,-0.505913057706476,undefined,1497236548835
903d185fccf839df,-0.5253807450246243,-0.12375002857141465,2.574608968543529,2.4012288392673953,-1.0373343194552775,-1.518856039963291,1.8688051355721682,-0.29788556446717096,-0.32579564625981533,-0.8362825606387998,-0.19812793291964637,0.001893384928546747,-0.8739903631907309,-0.09662556482484484,-0.7412848540681153,0.3244609464643938,-0.5059654522041315,-0.18804018540701764,-0.6539730353643642,0.41554281845512187,-0.32245665316474875,-0.4575794713215472,-0.26568340984304006,-0.5635556944354236,undefined,1497236550341
903d185fccf839df,-0.4200437343602271,-0.12844614855638575,3.0365290502263482,2.6368748247619407,-1.0016840936739857,-1.605308081735888,1.8671956879960032,-0.3936728873979475,-0.3311115519424746,-1.0186289879145087,-0.5017678057863785,0.012224688013972257,-0.865286597593583,-0.03737218390749414,-0.708653210509907,0.5184392148066362,-0.49415006086692637,-0.16234110340243063,-0.653070447366862,0.3919985946811721,-0.3170078553153997,-0.4216344494659552,-0.24601526681809985,-0.45605367983748113,undefined,1497236551842
903d185fccf839df,-0.3479710083475982,-0.25876359505130314,2.2721910814686717,2.268438725493144,-0.9431893357625134,-1.6418934418086857,1.901625109510275,-0.2603602058958348,-0.3648714578971409,-1.0487128698523986,-0.5073164606464275,0.00044069672495349277,-0.8739903631907309,-0.1318072763377017,-0.6981268947774714,0.6720054605028878,-0.5415557142923322,-0.19195394900683188,-0.6502997106511897,0.6023105629904227,-0.30191189520386685,-0.3507948218740071,-0.3010166449557649,-0.49358827601939526,undefined,1497236553340
903d185fccf839df,-0.3022324659902492,-0.09146408676276899,2.1305531895834773,2.0876354531241654,-0.7626136399175143,-1.5727453168187775,1.7985498674281895,-0.8112669311354266,-0.2989098478736318,-0.4094746970070129,-0.23666161810690012,-0.032037112160604744,-0.9610280191622104,-0.18272811596069924,-0.719179555691278,0.692211485958244,-0.42302399205282704,-0.2424781718435019,-0.6772304361437146,0.5603652002602755,-0.33547136646037967,-0.28348088482458206,-0.37264197402790045,-0.5062492875251783,undefined,1497236554842
903d185fccf839df,-0.44776403482995186,-0.10379151863528747,1.909800686384133,1.6926722049617877,-0.6702789346464119,-1.4057365358516585,1.8225073900760262,-0.2618774302313433,-0.24467037240380135,-0.14502819118772228,-0.11486610779900636,-0.06809782892422198,-0.7826008244206774,-0.32160316961196617,-0.8254954977233419,0.5729956389920664,-0.45860569664199313,-0.36846575161195116,-0.8067064221445562,0.4713159864211045,-0.4473018435900756,-0.33415022932640676,-0.37753897798837077,-0.44197725169798124,undefined,1497236556388
903d185fccf839df,-0.45608011461924636,-0.06152626340259355,1.83068734575473,1.5405685027065426,-0.626904146004088,-1.2376423285799796,1.7059622831304069,-0.5948959151998371,-0.18188889127725313,-0.49532348243782576,0.04571115182879483,0.016691491815200996,-0.7434338792335116,-0.4289999022890791,-0.854969199443523,0.24363656199575368,-0.446753659067187,-0.4194839431751279,-0.8299568248590323,0.32684777405766713,-0.5067866813177424,-0.3107560020758695,-0.417284273883295,-0.47352600744414586,undefined,1497236557835
903d185fccf839df,-0.3881653249850356,-0.07796280026196176,2.3283365411569856,2.066242308723235,-0.7880193041605933,-1.2414972206511719,1.6983726614303893,-0.475672406287769,-0.13541777798462648,-1.1077054672394482,-0.34313844146778727,0.029623015230274188,-0.45185773172905525,-0.3077156525911424,-0.8297060181265291,0.39922345263462317,-0.4765651777781831,-0.28512420980552655,-0.81601917705439,0.567279104877346,-0.40734071166517666,-0.35426347433293043,-0.27893833816531827,-0.3120349435704509,undefined,1497236559335
903d185fccf839df,-0.07215398244315643,-0.14488251004779992,2.413191852021661,2.1804242746434928,-0.684390902875079,-1.3521384114044943,1.698988033345839,-0.7835311330278762,-0.1376566704890196,-1.259319170815296,-0.26248000898183965,0.04896737653923208,-0.38657948975044565,-0.19846726997238898,-0.8676007606530849,0.23353356340043635,-0.5252505524892493,-0.17703986194040774,-0.8133463956237035,0.30898557884775335,-0.38821415029071765,-0.40682130390679777,-0.39761103733083053,-0.30802507226259107,undefined,1497236560830
903d185fccf839df,-0.2772842611277754,-0.18421263183390224,2.139484832670963,1.785595826165834,-0.7762627518534695,-1.5418246674878509,1.9197655089915708,0.06564655821730139,-0.15360174558281137,-1.6438155856690035,-0.37064990718301843,0.08195684267386845,-0.8565828319964349,0.012622817793908577,-0.7233901055434004,0.5325834750224678,-0.438055669897126,0.0632763525551816,-0.7609122951096307,0.4993257607072461,-0.2033107320106937,-0.46115046542626,-0.48726403981214417,-0.3486549154449087,undefined,1497236562329
903d185fccf839df,-0.4325178195387591,-0.20651917253452262,2.6358580064501633,2.3872054086887284,-1.0307617551146717,-1.646824444536813,1.871658464997571,-0.4258037541226757,-0.3282764383147173,-1.4828533348447994,-0.6170360172238252,-0.02537435331960354,-0.9044535427807487,0.13020383236243702,-0.7454953891957701,0.12240007008695811,-0.30142956000970933,0.0501798225499087,-0.7649774417579663,0.2225079023287058,-0.25511256668024407,-0.3516112361399021,-0.4219838220082594,-0.48377515198389204,undefined,1497236563866
903d185fccf839df,-0.33826891526008795,-0.1172928635920794,2.0016742432440853,1.7350007900636695,-0.9571161583816904,-1.6282720542540061,1.8855070257499573,-0.3480467942544328,-0.15166758315232012,-0.6079115820163165,-0.36793890349749,-0.0014558800291456747,-0.9479723707664884,0.07835701235932468,-0.6602321080775129,0.11431768816953718,-0.22140970649862168,-0.03789242568095452,-0.7157198926784428,0.26020329705046125,-0.28541405329617686,-0.2820382048643113,-0.37222931241761936,-0.5066134082450113,undefined,1497236565339
903d185fccf839df,-0.2994604738992274,-0.09029008599451856,1.7324339349164526,1.5161556646557512,-0.8590420393664777,-1.6316191707831025,1.8234357154125416,-0.8285902974837345,-0.2455037586336614,0.37834294987820405,-0.18298364109692833,0.018742822052027677,-0.9958430815508021,-0.2206873412383405,-0.7560217122904396,-0.07966062256978756,-0.4859357540303681,-0.299860973585264,-0.7463589264675119,-0.041513842014403814,-0.4755000639671227,-0.21277799997489266,-0.41994109574612637,-0.5075049821918118,undefined,1497236566841
903d185fccf839df,-0.08462817113791768,-0.25758959428305267,1.9729638837938248,1.8165735904930977,-0.7777644616685772,-1.7298245544572108,1.8583069590977717,-0.8384391255339283,-0.6022173425337537,0.25943329993464886,-0.23445422703408453,-0.025366294130633422,-1.021954378342246,-0.35030406747675763,-0.8223375779720162,-0.13017585579650726,-0.7081672503325699,-0.39652702545618823,-0.8370585858496441,-0.04762702624319734,-0.550500495861891,-0.3549010447135927,-0.5722936201869553,-0.5207904433170906,undefined,1497236568343
903d185fccf839df,-0.27035409112046743,-0.3626653374027657,1.9417014810974547,1.719870175460313,-0.8762500101177331,-1.8148278105960471,1.814397098715861,-1.2372347105851538,-0.5275374581510667,-0.21513345112511914,-0.35194141716889715,-0.021130508393788584,-0.8957497771836007,-0.34937816480129014,-0.8644428997996296,-0.12007282893646838,-0.7001264963770926,-0.4284323920486894,-0.8664242023163534,-0.09708683180506172,-0.5825321345502074,-0.3948027384854056,-0.5639119551309931,-0.53287690136889,undefined,1497236569830
903d185fccf839df,-0.31747861227062246,-0.3738186223670721,1.93276958387302,1.7795214002039785,-0.9242636477102983,-1.8289127203684192,1.8733099999043725,-0.9022688152967279,-0.3794755456532545,-0.5420870925831103,-0.2872073797735626,-0.04690755563724251,-0.9523242535650625,-0.3280840221123552,-0.8991798035594314,-0.07157831131417047,-0.7367614569663705,-0.4241576550830598,-0.909860405584519,0.14086534505713763,-0.5557940896698657,-0.4438390554710628,-0.5446194572161107,-0.5346046489211908,undefined,1497236571336
903d185fccf839df,-0.26065199803295713,-0.44778262904233623,1.9117151000241395,1.8103370503785827,-0.9062122524145693,-1.843668451065887,1.8944299599010872,-0.8692123919139946,-0.37931549468152664,-0.641354718856394,-0.03187934876831524,0.009104216087108971,-0.9784355503565063,-0.2836439961374231,-0.9128640095942576,0.11633827658271202,-0.6156731302003023,-0.3716702191471951,-0.920054758273322,0.2501173195103089,-0.5059174856242676,-0.438709108893105,-0.5059111484531725,-0.5904591929258991,undefined,1497236572879
903d185fccf839df,-0.37846326640293504,-0.4014083565067696,2.0214527054699105,1.9394122858439826,-0.987057830986893,-1.8137819801055728,1.9850977887179302,-0.24173575549799964,-0.3439428588884953,-0.6524577427204514,-0.09304386195130468,-0.013551525480772715,-0.9001016599821747,-0.3808565505293169,-1.013916749586701,0.2598014671542032,-0.5992801062898804,-0.4681652822475231,-0.9794296946509914,0.5045766288004804,-0.5194326157337003,-0.4614360997672179,-0.623813785492588,-0.5931560060605072,undefined,1497236574336
903d185fccf839df,-0.3923235029013218,-0.15955794345681928,0.9355575418393508,0.9023704288992859,-1.0437731601398843,-1.750037692031894,1.8930940323118164,-0.7666139500360247,-0.32309225255389806,0.00574849137703481,-0.2019082993790384,-0.016722053352666646,-0.8304715352049912,-0.4743657402840569,-1.003390441216499,0.6720054039734448,-0.5543783581385436,-0.5248261293346856,-0.9910863807579664,0.7400034577554794,-0.4885737477479993,-0.44685441731972686,-0.6983800764682376,-0.5684078917336117,undefined,1497236575826
903d185fccf839df,-0.08185611003607643,-0.20710621676063634,0.9387474688285132,0.9682158384391566,-0.9206533668794912,-1.7291956607422772,1.904962340057099,-0.6446239381457886,-0.3829335480422665,-0.06832846048390519,-0.17358991186870054,-0.002642162501348108,-0.8304715352049912,-0.4965857726976848,-1.002337818477936,1.0458179630893134,-0.48873340905868146,-0.5517791374041991,-0.9933253606177609,0.9545807949821704,-0.462845713602039,-0.4822231621712101,-0.6602894582478608,-0.49964048174381237,undefined,1497236577328
903d185fccf839df,-0.19966744741687378,-0.41314862724120505,1.6067451697031725,1.480146159034046,-0.8892717125530347,-1.8269608187899737,1.9465605979568557,-0.47150676514790935,-0.3938324938710441,-0.09067755821144224,-0.2211013010100568,-0.03928804153729424,-0.9697317847593583,-0.3919666055884545,-0.9370745755349222,0.5447071750898461,-0.45345695892820437,-0.4817684467171674,-0.9510086488760456,0.956505607353724,-0.42495569381004533,-0.4643645476221862,-0.6365560160689308,-0.4572485242564473,undefined,1497236578833
903d185fccf839df,-0.25094997395626634,-0.30513780913088506,1.708189015804511,1.6541961788870265,-0.9827378414695799,-1.7651404810231976,1.90607474639846,-0.6108380731724761,-0.4316149359960399,-0.4247219960082372,-0.2191983497964105,0.021802005518025174,-0.9784355503565063,-0.30401236565863593,-0.947600891267358,0.36891434378978505,-0.612293546290197,-0.34647776923174994,-0.9209713394032127,0.9183020632052762,-0.38304737664873695,-0.5026407105600815,-0.5586706157582916,-0.43433964330656377,undefined,1497236580345
903d185fccf839df,-0.17749109662378282,-0.3215742290782839,1.6660808105175984,1.4667195799354669,-0.9911206810290131,-1.7775017529620785,1.9932528281140887,-0.0764738924892994,-0.41442301870167647,-0.6957210582016091,-0.21798660313393972,0.022652306195732098,-0.9175091911764707,-0.35122985359525427,-0.9644429949668084,0.35881126040030314,-0.6627639682397386,-0.36510928976317697,-0.9380365605441905,0.49735475868044826,-0.47371567710888757,-0.47927157616110466,-0.5020867879222098,-0.43277854410053423,undefined,1497236581864
903d185fccf839df,-0.22184359117750635,-0.10379151863528747,1.2577533828661347,1.155270499960571,-0.8833780041889606,-1.6219365234002212,1.883821353679175,-0.5195961017688944,-0.2856869556391981,-0.5058242705222897,-0.0607765957654157,0.03028945834207528,-0.8739903631907309,-0.5141766543556623,-0.9823377729404584,0.0961322228626343,-0.8725009765300051,-0.5427483587900783,-0.9436480026960079,0.30556711895069855,-0.5935113653298411,-0.49355671591582123,-0.5588936438269753,-0.49877330757748445,undefined,1497236583330
903d185fccf839df,-0.2523359872544821,-0.11846689358832217,0.8232676390105205,0.8193970010046029,-0.7670879164608135,-1.5825490876780761,1.873672925352617,-0.489501794375682,-0.37196862674017867,-0.5710390983266492,-0.03415835812881644,-0.027452800246229335,-0.8826941287878788,-0.5151024922772571,-0.9918114659343312,0.013287334774983952,-0.9028031165865342,-0.5529823956509371,-0.9547099603555962,0.12274137580345627,-0.632306840270964,-0.49734803920456716,-0.5948272124386773,-0.51846982985577,undefined,1497236584913
903d185fccf839df,0.2688054614449673,-0.01573921046109469,-0.24157354904505787,-0.3641275447381929,-0.5447831484209272,-1.5841492748218662,1.917380297676719,-0.16647188731405815,-0.5493163521238253,-0.5355674805136109,-0.005672607073258273,-0.08159572515528328,0.8624108734402852,-0.6178700094448469,-0.9686535521811647,0.29617236950328746,-0.918235389861911,-0.6610287476755548,-0.9521841118432129,0.3021024665443899,-0.641460560283742,-0.48416609986933906,-0.7475257086886729,-0.5613902549890845,undefined,1497236586370
903d185fccf839df,0.06090329418555579,-0.22589069670052075,-0.2919765302242008,-0.3179181462067947,-0.7870318830864219,-1.6232898113980285,1.827914279091305,-0.9033652219494614,-0.46179776197771877,-0.4474752103628442,-0.017707690491838235,-0.023894352199009417,0.901577818627451,-0.7613742980317988,-0.9402324731995465,0.49419195599548726,-0.8512913247822989,-0.7454975511754487,-0.8883592028548858,0.6855699586627902,-0.569607129362723,-0.50217511701954,-0.8715610268084546,-0.11523667744422293,undefined,1497236587862
903d185fccf839df,0.3699846392471756,-0.3749926231353225,-0.33536126540806704,-0.44519249893582885,-0.6732617866575339,-1.6933370209918452,1.8907008928282676,-0.6281914223480694,-0.4589013231346709,-0.8120149902287376,-0.07008872026807156,-0.0910561340130152,-0.6172292780748664,-0.7872976432794823,-0.9054955620775109,0.48206834072227356,-0.8965138366774839,-0.7823489501075291,-0.8634155724649066,0.7884469725951943,-0.5587309412970264,-0.500663767147717,-0.8390423933061395,-0.1446823625828988,undefined,1497236589377
903d185fccf839df,0.03456904151945649,-0.48769961968659825,-0.2473155192803302,-0.21919598268598048,-0.7781347486604566,-1.6850239651020686,1.9040077109245774,-0.5886426712582876,-0.3737315639206466,-0.699700557869324,-0.06765889395360287,-0.029389542653725505,-0.6955631684491979,-0.8243309788324306,-0.9107587346681963,0.5911811890931339,-0.8445023893025746,-0.7957494599088805,-0.845482746799689,0.8600343423786491,-0.5485701202186494,-0.4925561230129302,-0.7908094319646721,-0.1277335559650784,undefined,1497236590859
903d185fccf839df,-0.3341107718492115,-0.5199855030392593,-0.34556943839250615,-0.3932514426302404,-0.9866258253436189,-1.648291863701056,1.9175696215281435,-0.5104743550577484,-0.31972594130885557,-0.6589923410190854,-0.07585194578099029,-0.0038114557594044634,-0.6128773952762924,-0.8743260129107696,-0.8907586964929527,0.5103568894186583,-0.7790542851776131,-0.8293267266939893,-0.8476447618744154,0.8327482963343269,-0.5733255929581426,-0.4734561944847529,-0.7492302808839593,-0.07684075632904622,undefined,1497236592356
903d185fccf839df,-0.45608011461924636,-0.3567951581935595,-0.3104792249639208,-0.4591380115680455,-0.9521790270040591,-1.5280006338728476,1.8711956211592524,-0.5561311703382452,-0.4264785781862135,-0.6491111831647292,-0.10336741322044203,-0.049967897687680465,-0.691211285650624,-0.8678451798365424,-0.9054955620775109,0.5830987506462698,-0.7212108037417916,-0.8343614167790993,-0.857811128341261,0.749180934633968,-0.5965213676348229,-0.4590942255248424,-0.7264589156825174,-0.04080442964502186,undefined,1497236593852
903d185fccf839df,-0.3909373515814671,-0.41667080491391034,-0.3391895844141811,-0.42013950713762666,-0.9068499642265886,-1.5153784874604976,1.8944115491817979,-0.37113322507729996,-0.47031414897233875,-0.4064368852350517,-0.09080811936417967,-0.048657004273878576,-0.9653799019607844,-0.8298859739850629,-0.8676007901020201,0.8134480343964826,-0.657986812953892,-0.8192383468567006,-0.8552432990186711,1.018699926020748,-0.5391526823222292,-0.4459437433532758,-0.6285171743113332,-0.0373280564076972,undefined,1497236595407
903d185fccf839df,-0.45053606142638336,-0.41021358147859044,-0.36534790061833167,-0.43674766740613663,-1.0250531966972174,-1.5478969961896245,1.9253748928735497,-0.28055693182638364,-0.31502665896257737,-0.4935491409649227,-0.0952899324724981,-0.02426148609727485,-0.9784355503565063,-0.815072631993419,-0.8739166148802037,0.5346041764945288,-0.5998451227256155,-0.8291874018721834,-0.8834124599751971,0.8535515995112999,-0.5875617942419121,-0.42802054032360115,-0.5914030378683924,0.03750038971553585,undefined,1497236596868
903d185fccf839df,-0.49766051356571894,-0.4876996781425829,-0.5133664088926989,-0.5567933990875064,-1.1347707274406746,-1.5738097823102584,1.9165939639193703,-0.4167967954471921,-0.2501671333022791,-0.5150854136563552,-0.05917504923721177,0.10534647891008778,-0.9131573083778967,-0.8030368005288656,-0.9770746261175912,0.1708947431652245,-0.6640297902874772,-0.8761081816056637,-0.9969846948105322,0.15304551805722538,-0.7987497445693575,-0.3992117539482696,-0.4362638325444386,-0.2889728618028192,undefined,1497236598346
903d185fccf839df,-0.7014047271940076,-1.0060344475876302,-0.7685712417775759,-0.8080688199199193,-1.4534319023781639,-1.6949837946541773,1.9290171638618079,-0.6848628434717633,-0.26520473133230343,-0.6703434844322582,0.06175205258494535,0.1083338379940623,-0.5345435049019608,-0.8419218054496163,-1.0465483710582077,0.09613221579645392,-0.6416607876811428,-0.9340862808891373,-1.06177516311872,-0.08655429241387771,-0.8956871136157474,-0.38411381552694285,-0.3850793682805128,-0.21365833970446832,undefined,1497236599848
903d185fccf839df,-1.1005768935078892,-1.0629749608613894,-0.9044674175644469,-0.9514513169700662,-1.7444554135883859,-1.712380881777537,1.9331932969996866,-0.7554766640776852,-0.2735684908355521,-0.6603833340080378,0.0897378167427862,0.12148887137615014,-0.7347301136363636,-0.9326535397180573,-1.130759012872876,-0.3504220985543204,-0.8595296538635132,-0.9996892440833574,-1.1402513934344005,-0.41257017645441024,-1.013086654622387,-0.3867416858488288,-0.41184538212576693,-0.28707848301456584,undefined,1497236601359
903d185fccf839df,-1.1684916141312804,-1.0764763058181812,-0.9108477798166708,-0.9631561520881434,-1.8204461424203604,-1.7113932850776317,1.9358204669935424,-0.7476095428640522,-0.2806750809693956,-0.6741393973670698,0.09173487784254185,-0.004186822402306497,-0.8261196524064172,-1.0215335916679216,-1.217074903845787,-0.5342974106983278,-1.02158218200584,-1.0238430917229369,-1.1774954175902608,-0.5150622305161142,-1.0550959982757813,-0.39555447203743294,-0.4061961083535016,-0.29916182574400235,undefined,1497236602852
903d185fccf839df,-1.0756286455136532,-1.034211109041472,-0.8795848688464019,-0.9280127406890428,-1.452917613367157,-1.7104615889048442,1.9268580978369587,-0.7285744291211959,-0.23160427966483252,-0.6276714765713228,0.09610409707161112,-0.023582784007580387,-0.7738970588235294,-1.0761577959280728,-1.2286538644034872,-0.3241542371976358,-1.0076057649707897,-1.0371169426285936,-1.1662655354236149,-0.45607078535173745,-1.0422617567723393,-0.38064555021804175,-0.3899105584380483,-0.24744228993340953,undefined,1497236604359
903d185fccf839df,0.43789930811245237,-1.0072084775838728,-0.8215257579289296,-0.8932996386685564,-0.9006682605465315,-1.7277352273105262,1.9107584253196916,-0.7508570967899488,-0.28442433616851814,-0.6491511610257472,0.09714482423499896,0.006003311892254379,-0.7782489416221035,-1.1205978251406985,-1.2444433527266083,-0.7020078600809679,-1.1687113961787712,-1.1272917280994477,-1.208988062269582,-0.7589428104367619,-1.153867960897604,-0.43600186052772133,-0.6038511309226505,-0.40309484764279385,undefined,1497236605886
903d185fccf839df,0.3159300171005321,-0.9584861158278284,-0.7704848930067341,-0.830791652582198,-0.6082767487594455,-1.779241693915308,1.907137175998794,-0.7829309587826936,-0.31498663638430247,-0.6416773746237067,0.09424388572574897,-0.03782057189676871,-0.9088054255793226,-1.1122653081290477,-1.2233906991750354,-0.4595349045280984,-1.0391631322463128,-1.110294107031251,-1.19750629596351,-0.6510767008259518,-1.1178158236194267,-0.4400832631604176,-0.6109336546286036,-0.395689781563756,undefined,1497236607404
903d185fccf839df,-0.4616241678121094,-0.8586935076912078,-0.745602344288689,-0.8255698630698403,-0.4487661611134028,-1.8186733843857192,1.9145847835979264,-0.7651644960697407,-0.2800234976134889,-0.6628439073211624,0.08289835548583038,-0.024372138509374846,-0.8391753008021391,-1.0872677959464185,-1.220232805191528,-0.4837821916039689,-1.058306562459251,-1.0951203741740032,-1.193175270055315,-0.6063442162659971,-1.1009548719346602,-0.4438355445915857,-0.6173833869841434,-0.40313669424559484,undefined,1497236608900
903d185fccf839df,-0.4782563273906984,-0.8369739527607165,-0.734756287561197,-0.8224913569906825,-0.7456010903401484,-1.802019323473361,1.9210619952902566,-0.7634819295582893,-0.32385400260552,-0.708268484227193,0.06809007952867191,-0.057895413307435785,-0.6520443404634582,-1.061344450698735,-1.1781274980883825,-0.3241542230652751,-1.026537430569537,-1.0725434299917842,-1.1537552374721258,-0.44746305613775045,-1.0457876906799084,-0.4478825597968391,-0.6196347754370662,-0.39998337098728276,undefined,1497236610351
903d185fccf839df,-0.8732705314471046,-0.5510973563956775,-0.6766971766437249,-0.7717804856583762,-0.805906129317971,-1.6725858290667786,1.8945009593569966,-0.7107410199627198,-0.3545086366474624,-0.6745884501231613,-0.0006805480145179264,-0.09113921676965835,-0.669451871657754,-1.0057944214677637,-1.1444432465160788,-0.3989167151031437,-1.04275840091174,-1.0112405350174567,-1.1316593086318234,-0.2918617643645326,-0.9823592802144384,-0.4431107469956326,-0.605111654849143,-0.4038847679442525,undefined,1497236611849
903d185fccf839df,-0.8788145156291481,-0.4665670797542283,-0.6518146279256798,-0.8061727544352002,-0.749694794452597,-1.5419900441450631,1.8589512405196902,-0.6429147727162131,-0.020453348403567054,-0.8210276567536424,-0.0778014902135608,-0.04287709822171304,-0.8174158868092692,-0.9919069109223272,-1.1402327150695408,-0.3382984832811067,-1.0300173264060593,-0.9993535997239186,-1.1253341912445176,-0.18935431411905035,-0.9546505384202644,-0.43566959156021723,-0.5767637461959211,-0.3798929270438566,undefined,1497236614629
903d185fccf839df,-0.8538662762612647,-0.4636320047636214,-0.6180001819832,-0.8096170117339998,-0.730439969884659,-1.5189794892101036,1.846593781997517,-0.6411619175152088,0.0363766539715235,-0.861058150851515,-0.12002838860423616,-0.03402025964187994,-0.8174158868092692,-0.990981076238426,-1.1402327150695408,-0.32011301797420383,-1.0300173264060593,-1.0000058929116167,-1.1251662677834775,-0.1928189644387009,-0.9555990146899309,-0.43549359913366725,-0.5754548289944864,-0.37922881041733925,undefined,1497236614967
903d185fccf839df,-0.6210159041393793,-0.387320055007841,-0.4029901572930268,-0.8084119127785352,-0.5134426189779612,-1.3216696357602726,1.7289783398045848,-0.7033329404488,0.455722869816396,-1.1879526962813811,-0.3744688794978624,0.06137212640235757,0.17046150846702318,-0.9937585802901294,-1.1497064080634136,-0.37264879721701605,-1.0304472734590235,-1.011031547953616,-1.143134078365584,-0.2993454105880659,-0.9884065556206085,-0.44542767312355697,-0.5739089604125596,-0.4328550501589308,undefined,1497236616343
903d185fccf839df,0.36859862594895987,0.5853648490870221,0.32115274913299696,-0.9905932780511048,0.311819991481034,-0.835270911388759,1.4029533991781868,-0.7165933697140292,0.9068106792973017,-1.674806275819643,-0.6218443819828264,-0.0521742999554958,0.11388703208556152,-0.9770935656929894,-1.1918117170071176,-0.30798934617154705,-0.9858350734141673,-1.0442731690560232,-1.1756762457591265,-0.4205465757862342,-1.0369785550149255,-0.45097917363629897,-0.5686764877650461,-0.4090656737652527,undefined,1497236617859
903d185fccf839df,0.3408782219630059,-0.7371812277121266,0.025114970173414176,-0.9590635152782659,0.6172229104118844,-0.5381182167439114,1.2258833031892094,-0.48403195410460587,0.2973035720564513,-1.5705603165400261,-0.2596976134072884,-0.004164990822113822,-0.5998217468805704,-0.9363568816913557,-1.1444432428349618,-0.37466937149783014,-0.9421987843852998,-0.9790058509686917,-1.1397686118017178,-0.46952902952580144,-1.0056216854922355,-0.40969738137292105,-0.5493753329711893,-0.4018717445523446,undefined,1497236619360
903d185fccf839df,0.5862028517904719,-0.885696139148807,-0.43425306826329574,-0.9186463173448948,0.4233066582100908,-0.3650627295440612,1.093966975619426,-0.6386003962716388,-0.19488278897013936,-1.2458851355779923,0.08563406134204968,-0.12006490467172005,-0.6563962232620321,-0.8400701522702821,-1.1033905474270285,-0.3766900023080873,-0.920841225381787,-0.9406788765141255,-1.0953178720697394,-0.4627691126345348,-0.9751117669989845,-0.3837934815523177,-0.5031558691475647,-0.38321974657231733,undefined,1497236620864
903d185fccf839df,-0.21629967600628228,-0.2164985736425479,-0.11460901634567217,-0.8769816444690798,-0.08665820230953257,-0.538036694842263,1.2725939252103389,-0.6306119074561746,-0.16589881319453312,-1.211079257947105,-0.0422447044682022,-0.09534543201738294,-0.7913045900178254,-0.8261826417248456,-1.1149695190280793,-0.44943187766805953,-0.9027843596133645,-0.9405395517975161,-1.0965493107656834,-0.5559451058146176,-0.9958161007427652,-0.37898821400862404,-0.48961929748914246,-0.39608546885129653,undefined,1497236622353
903d185fccf839df,-0.9134649170953615,-0.5645988182644387,-0.741136649813421,-1.012737808809295,-0.5349397391558421,-0.7557739790405682,1.4555863469796217,-0.8000795224429583,-0.29064368941490487,-0.7498573899367298,-0.09974302966416135,-0.04456956644768271,-0.6041736296791445,-0.9159885315963047,-1.1781274870450318,-0.6595751076981946,-0.9529054204152217,-1.001608127628777,-1.122220609988436,-0.7251894199436121,-1.0626117682386396,-0.3784978125083025,-0.5083647134835273,-0.39353933784328143,undefined,1497236623896
903d185fccf839df,-0.9869236219007963,-0.9995772826082948,-0.9574224419896996,-1.0459149289192244,-0.548280283051391,-0.8834535575578489,1.5561054211425651,-0.8416833440936964,-0.36901574951585997,-0.6363966153208722,0.0450809427968181,-0.11861376121410815,-0.7869527072192514,-0.9530218898131083,-1.1623379895191182,-0.7100902843954712,-0.951436180643529,-1.0186880767322395,-1.1189111187924403,-0.7993021364361221,-1.081881660135151,-0.3855007845197779,-0.5479687763490471,-0.42387885505827677,undefined,1497236625342
903d185fccf839df,-0.9300970766739505,-1.0383202724843064,-0.989961120446074,-1.065019097214043,-0.6912103272254625,-0.9311726790787601,1.6006254053557378,-0.8159753246952964,-0.33759117345099954,-0.673219147647822,0.08879745848037532,0.025151516714145544,-0.8826941287878788,-0.9557993906271182,-1.1623379950407935,-0.7080696783168454,-0.964238634169565,-1.0147426527492478,-1.121185082394648,-0.7957912908070572,-1.0796627081126275,-0.3865026726069367,-0.5505499280825265,-0.4236914722054455,undefined,1497236626857
903d185fccf839df,-0.7083348109377912,-0.983727760747048,-0.9886848446860697,-1.0665586898152535,-0.5286963076640042,-0.9810812940049113,1.619912399670944,-0.8260712711991164,-0.3781176887747752,-0.6458984805867259,0.08311596657006558,0.12559699924299958,-0.4213945521390374,-1.0419019417629727,-1.1960222429319802,-0.7969764553021771,-1.0798658592678638,-1.0667297877125483,-1.1621024328235334,-0.8729836982062361,-1.1333426496682926,-0.42273122874295954,-0.5867635008124864,-0.45766947786513745,undefined,1497236628341
903d185fccf839df,-0.5932955001534254,-0.9097639878957225,-0.9650785717280289,-1.0237262080112646,-0.3932336752227366,-1.0622692553961253,1.6743651678028948,-0.6860838508665482,-0.40563439998219664,-0.641636237255924,0.03186942316531094,0.01750935190387461,-0.3778757241532977,-1.1326336598429456,-1.2539170512421565,-1.0394493790572348,-1.2623710347798207,-1.1519838750602023,-1.2182938212126935,-1.061614653523166,-1.2274249469443943,-0.46830107171423885,-0.6515571897913154,-0.50993223335265,undefined,1497236629845
903d185fccf839df,-0.30916256698673766,-0.8575195361509498,-0.7538968660439699,-0.8617480120184712,-0.26305789540837465,-1.1621912881540775,1.7299487472341268,-0.527694627364935,-0.2351484209348402,-0.7557461423514178,0.018799673861488297,0.13923057965890723,-0.47361714572192515,-1.0835644636862012,-1.163390636184941,-0.7201933253878708,-1.069861852018968,-1.0923592105977804,-1.0360408912584407,-0.5516797354836347,-1.038984553700333,-0.3403024015677011,-0.4574040346469141,0.7523598500383503,undefined,1497236631345
903d185fccf839df,0.2050489532432719,-0.6485419629957971,-0.45403153048912126,-0.607311251333831,-0.6558995228047102,-1.2785833709453747,1.8477324999912985,-0.14203526746216877,-0.09382888105056714,-0.7336996361905568,0.011769089245198776,0.0028320538069134707,-0.5519510360962567,-0.9891294068706237,-1.0128641342103717,-0.3928548862679957,-0.9379032371025366,-0.9683538410265815,-0.930577960479974,-0.4123546019606842,-0.9265593821571538,-0.12183470582546234,-0.35335961453125536,0.8716594578367906,undefined,1497236632852
903d185fccf839df,1.1835753079350657,-0.28987533149575195,0.004060994598432623,-0.5072268496793024,-0.2069597083817707,-1.1048034873420347,1.612251777467495,-0.64265809000802,0.6084345638511881,-1.687607081325122,-0.2605443186128991,0.04673903651889813,-0.673803754456328,-0.6558292088209391,-0.7854954324162053,0.26586328892317085,-0.1992385565092546,-0.7621025320333633,-0.7749409003668328,0.016399714876591944,-0.7001306118519923,-0.07505154297918473,-0.23230385151989735,0.7432404107736743,undefined,1497236634348
