UUID,iqrAccX,iqrAccY,iqrAccZ,iqrAccXYZ,meanAccX,meanAccY,meanAccZ,meanAccXYZ, covarianceAccXY, covarianceAccXZ, covarianceAccYZ,pressureDerivative, pressureIQR, iqrGyroX, iqrGyroY, iqrGyroZ, iqrGyroMagnitude, meanGyroX, meanGyroY, meanGyroZ, meanGyroMagnitude, covarianceGyroXY, covarianceGyroXZ, covarianceGyroYZ, class, timestamp 
903d185fccf839df,-0.10611136000755697,-0.033056123677683284,1.3209164532073518,1.271375240691807,-1.166243184481489,-1.6737653876303618,1.899206686968465,-0.49199507196553804,-0.48082307459711326,0.8137753496684423,-0.2869898457335223,-0.6398071007318633,-0.02102133467023172,-0.5743558213915096,-0.23391576138409695,0.47398584574596647,-0.9235058879830917,-0.7640841303225827,-0.46248070486793263,0.24406275877623426,-0.4877479427678023,-0.6098797570576259,-0.49533853224669266,-0.639781258389963,undefined,1498671054681
903d185fccf839df,-0.06660994650299829,0.19030331693144334,1.074006015009281,1.1314807627066048,-0.9417775091246906,-1.5777839682128152,1.8827644878314445,-0.3266471395125033,-0.06704207416651407,0.18687398262771723,-0.38601154176430497,-1.070864985284482,2.4856631573083776,-0.4002990173750622,-0.17917890779585702,0.34466705671391457,-0.7248808607780819,-0.5594483361230169,-0.44185772313370875,0.5088881921388227,-0.3688099124014679,-0.4537113979618521,-0.27207378941062005,-0.4407376610143899,undefined,1498671056110
903d185fccf839df,0.5404643439385326,0.10812115873846442,0.606981338560343,0.5610178825007208,-0.3982456850821265,-1.569221981447973,1.8133295496790363,-0.5814472248697672,-0.2506553334024317,0.02107089378457233,-0.226249398502228,-0.6667179857626375,3.0427041555258465,-0.42899991523985365,-0.2633895367266161,0.48408890087072687,-0.5565976567216198,-0.5541092464848364,-0.30436497122286144,0.8257715721130833,-0.25951570752485276,-0.4816294368396096,-0.4364284408904775,-0.2183932010154984,undefined,1498671057634
903d185fccf839df,0.519674316992345,0.009502551370094323,0.606981338560343,0.5132381832880756,-0.2566190575024915,-1.475222401190028,1.7716416911525976,-0.5544138650351428,-0.02702008750317215,-0.4851874582684584,-0.3225885648330287,-0.39414500342050895,1.2366727941176472,-0.2549431630265044,-0.3781265195650545,0.6336139697406288,-0.377023517855129,-0.31952299451407734,-0.3555683585067852,0.9596071055118306,-0.144821023961973,-0.5742157679142497,-0.5365749559879874,-0.3420796645092301,undefined,1498671059119
903d185fccf839df,1.2487178984457963,0.02946117821819085,0.7620180928299869,0.4758727488718247,0.3457936512577362,-1.2688564656484793,1.7470161842834504,0.20886397832800768,0.0362676472613077,-1.0631437856962425,-0.13634478707014544,0.013930356529096351,0.09212761809269164,-0.24846231052611534,-0.40233701924561505,0.9670142235632911,-0.3539320957424091,-0.2831141350181935,-0.378158751456021,1.1839190886452056,-0.08985769906796844,-0.600160462295302,-0.4184398055755454,-0.5834697002316361,undefined,1498671060674
903d185fccf839df,0.6333274419514464,0.37756118901614294,0.9202452823626921,0.8747883997522606,0.04155302529262894,-1.0779100902843401,1.690391203859077,0.2542281165211511,0.28431994647314696,-1.1001692740034381,0.01741465725028045,0.009797526017519287,-0.04713263146167557,-0.25864647586055994,-0.3444422385438157,1.0700651371062977,-0.27413605679615893,-0.33868191601888703,-0.3190776794590972,1.5008406544049828,-0.0345307387847773,-0.6904509209787829,-0.6422800856102022,-0.26218351594860284,undefined,1498671062161
903d185fccf839df,0.4794798968386785,0.8595011454896334,1.6233339590767848,1.2935957493522683,0.017227354583376715,-1.2173802789265635,1.6324802457437142,-0.4351552500250398,0.16259519409324927,-0.7019108987761561,0.09344670290271502,-0.048403695624566576,-0.26037488859180036,-0.12532641088653812,-0.4265476219974487,1.1428071113927953,-0.2674979925707602,-0.18090929033351086,-0.3901862681907875,1.4741089534333252,0.010472816322203348,-0.8074978169065896,-0.8440949653890215,-0.1880426993925341,undefined,1498671063624
903d185fccf839df,0.04011306020690977,0.1568434912665166,1.5978132724787377,1.7717408486794035,-0.3238052201930686,-1.4715701527971463,1.7268219157606406,-0.829616993155192,-0.015140414979786708,-0.11898214288749155,0.06724219731858914,-0.06988787298809063,-0.3038937165775401,-0.16235973348871185,-0.4791792890064329,1.1044155358363716,-0.2647692659452628,-0.09799205878756456,-0.484174428580968,1.4416644247989197,0.007258311659025384,-0.8217845266565154,-0.7573754037429885,-0.2443195714079481,undefined,1498671065145
903d185fccf839df,0.1593103418751034,-0.4501306890348218,2.319404389795601,2.4125631123858526,-0.2839790089101109,-1.7790483681397877,1.8698044666497233,-0.6720576632426445,-0.4958668762258281,-0.23801120547824497,0.03350058748336769,-0.020237509568856907,-0.6476924576648841,-0.002190511246960914,-0.624442581579148,1.294352768675872,-0.20590984959730962,0.0029234011588826696,-0.6217247335627455,1.479575398483888,0.006115650076987374,-0.7577434763561008,-0.5234028492586815,-0.20517922092516983,undefined,1498671066604
903d185fccf839df,0.1690123659517942,-0.4454345398218583,2.8693699634692083,2.7543655039996797,-0.14485467236420085,-1.855386852985622,1.8854202579484844,-0.6439690860345905,-0.4478308337828074,0.3186402308399641,0.07026739800131579,0.12446238709788363,-0.5998217468805704,-0.09662556482484484,-0.6865479342197711,1.084209538645737,-0.30694905742929907,-0.039165340804698,-0.6709612920322441,1.3084832765555088,-0.06892872499726736,-0.7452279892326813,-0.5470838146312753,-0.028224860997471082,undefined,1498671068107
903d185fccf839df,0.015164958860665167,-0.5874923155071958,2.845125806768115,2.7580607119142893,0.10890376485131022,-1.9117893799234826,1.8811468168448415,-0.6439020687494895,-0.44390173464092336,-0.1938932714628306,-0.04583550798232951,0.09664887377701442,-0.43880208333333337,-0.11514216784744624,-0.7307585088867443,0.5184392713360793,-0.45665076729089127,0.08271848972228821,-0.7652013391616016,0.8056008418858799,-0.15464572029017257,-0.5112242551221039,-0.22448536325038065,-0.56912448216707,undefined,1498671069600
903d185fccf839df,-0.00008139445216651575,-0.608624884667558,2.6990212038598553,2.73976404606243,0.04633587517371447,-1.917929255090691,1.8740910426291402,-0.6956992755291017,-0.5203778566203683,-0.16346893824639566,-0.12056422798593704,0.05833298143669842,-0.6563962232620321,-0.08181223578397535,-0.7412848540681153,0.6295726798553929,-0.41017211815585547,0.0382612261035965,-0.7551119386542998,0.9001780951497405,-0.15782214414459608,-0.5114528947011432,-0.06836713355683223,-0.57795598913231,undefined,1498671071148
903d185fccf839df,0.16069642418413863,-0.5604895671376273,2.2670872491134015,2.1568066509644632,-0.29828639952098207,-1.8886740108088587,1.878674794780123,-0.7450036379284892,-0.5185725364867774,-0.5649699501977846,-0.31232106983966085,-0.015803421914173235,-0.7477857620320856,-0.10032889060967494,-0.768653288224469,0.651799293723924,-0.35702674333939777,-0.03539724128216606,-0.7555667317527757,0.6333076364066462,-0.2344286908214635,-0.4600489198898281,-0.16150710832124038,-0.49043089385615013,undefined,1498671072611
903d185fccf839df,-0.15531488385233078,-0.4965049031144037,2.297712022203668,2.141211897498801,-0.4345101745653627,-1.8469759698877002,1.781884782976151,-1.341627034242691,-0.46671835532764644,-0.6006455405573902,-0.39273322493306967,-0.15199806888162404,-0.4300983177361854,-0.08181220988242625,-0.7118111376234665,0.5932017492415872,-0.39968283390751463,-0.08578847431695724,-0.713208038497392,0.5389613609014648,-0.2659888243199247,-0.46087765111122253,-0.23864898499681175,-0.4384998673112678,undefined,1498671074111
903d185fccf839df,-0.04859185988971785,-0.43252023909118015,2.658188511922099,2.4216699339607337,-0.18686144716420575,-1.8304150788670643,1.8250635700416689,-0.9262350640784323,-0.4396908199781845,0.07271377042224014,-0.5943013900795991,-0.15075324366386203,0.205276570855615,-0.041075522643098786,-0.5644425554002226,0.5245011778992115,-0.3591144822670672,-0.05383877696922431,-0.6119921727652229,0.5744239761466906,-0.20308024806939393,-0.37942477555514076,-0.3776891099541816,-0.47732301212224526,undefined,1498671075616
903d185fccf839df,0.48225192343511,-0.5299647580073228,2.5235681036213333,2.497760974065681,0.25116524131855844,-1.830568808104563,1.915805025760961,-0.18298137189605307,-0.2996774070091729,-0.14173474544844458,-0.3314940968267497,-0.19303921421744077,-0.3038937165775401,0.0820604547011257,-0.5307582891034514,0.45984167032429946,-0.3100143891367632,0.002879068022884613,-0.5981804676052972,0.577765438512364,-0.16173250076254814,-0.41766321738852624,-0.23142154025853978,-0.4737483721708526,undefined,1498671077120
903d185fccf839df,0.42819719777223725,-0.5182244872728874,2.7768585228662035,2.6362449503078773,0.3724541768291464,-1.8633272296170207,1.9339848728179727,-0.11317889647491194,-0.14941934172106017,0.3999779710835502,-0.25495580718892513,-0.06920781193869091,-0.6999150512477719,0.10428044826242994,-0.5676004088914441,0.7366649398130783,-0.2464311918029705,0.061927437351313584,-0.5998876900647955,0.7666889628388438,-0.10820041088428224,-0.33633615792128907,-0.13621522167022795,-0.4369828661670045,undefined,1498671078620
903d185fccf839df,0.4586894903329838,-0.5763390013148971,2.3066441735650525,2.4199265742194793,0.4190072438058233,-1.8744307131805673,1.8898041337753708,-0.4875057741932862,-0.22329191908859192,1.233815328158391,-0.046915888552129095,-0.023742854902760967,-0.8000083556149733,0.2042704257636863,-0.528652984728455,0.839715909885528,-0.3288881856499763,0.15601598183762258,-0.5678982695805027,1.070130729664954,-0.0048425905893805365,-0.37952715872468534,-0.23520721357688454,-0.5190091992328172,undefined,1498671080102
903d185fccf839df,0.482251785413471,-0.4736112889596773,1.999122708271874,2.0789821751183304,-0.13417811088019765,-1.8727909295576488,1.9029689369851543,-0.585634781549803,-0.35048201295773324,1.1195466516532802,-0.17748496481706086,-0.0007985834234252428,-0.8261196524064172,0.20889962832243483,-0.46444237924847204,0.7245413528045862,-0.2711113058393235,0.16889085569704393,-0.5614891911722559,1.0571652376433565,0.008593901104293058,-0.38793141612624393,-0.3107164747374378,-0.578529696122165,undefined,1498671081642
903d185fccf839df,0.39216092102944716,-0.44308650905736513,2.1847839814948355,2.0350158184923135,-0.12509583956101275,-1.8519023122120297,1.9213775821811117,-0.370960161499946,-0.45636222309750374,1.704591434076023,-0.3192472701585292,-0.01972070466939763,-0.9262129567736186,0.20334457489131694,-0.604442558128372,0.9488287582563882,-0.2756365822460211,0.1246742451340128,-0.6258808407038206,1.141764293532753,-0.012264223141866861,-0.4827084324996628,-0.28943267482595725,-0.6030264006683795,undefined,1498671083122
903d185fccf839df,-0.004239365335994304,-0.3209872140801625,2.196906313982332,1.940342585043924,-0.37010114536994665,-1.7754520215515586,1.8639794446450952,-0.6355946740211903,-0.3868938015640026,0.9461497598573697,-0.5382533096570847,0.22278144536617062,-0.8913978943850268,0.12650045477450872,-0.6897058245221617,0.9973232758786862,-0.28696923516177886,0.1034778819426253,-0.6922036111628872,1.3440074756877225,-0.011580107798472686,-0.34756231648570013,-0.33199038137184045,-0.5996333644411682,undefined,1498671084692
903d185fccf839df,-0.07076800365035041,-0.3597302916401511,2.0035886568840917,1.843259104468538,-0.330480647059506,-1.7978709490537972,1.7999357811861834,-1.0836652628024426,-0.40164439868407614,1.3000398023161008,-0.6148252194453038,0.07347373225013101,0.2966661096256685,0.1690887401523785,-0.6949689971128471,0.9447875249005955,-0.29281727187682965,0.13753011963088208,-0.6984657553804821,1.3547555925208785,0.005850631619292044,-0.32562121427635654,-0.265225787278692,-0.5726629153329513,undefined,1498671086110
903d185fccf839df,0.5196741444652964,-0.44719555558823015,1.835153802640846,1.735686026174628,-0.10051303020078192,-1.8141779523079151,1.884444593530819,-0.5805034647637348,-0.4049919614002667,1.6615047481489382,-0.46328232985379336,0.10915904253660998,-0.12546652183600712,0.14964632510973142,-0.707600587771344,0.8781073723830655,-0.4540578643932638,0.02672893420538587,-0.6803230245753951,1.2217900147998124,-0.0542738446231537,-0.3816782070894829,-0.3628717460981967,-0.6737159650300796,undefined,1498671087602
903d185fccf839df,0.5959050138888017,-0.5857312412848393,1.155671398884794,1.2234784287369767,-0.10586158589902459,-1.8740883142318066,1.9089280868228424,-0.600322422203154,-0.3547998479696442,1.6096519219080778,-0.26437529709281826,0.04627330981434079,-0.4692652629233512,0.277411375504959,-0.7718112079757946,0.9427668799579776,-0.43337124171280467,0.12983558848402804,-0.7159227977898615,1.3243590571039041,0.008837840033006998,-0.35716804849885675,-0.4702107896051668,-0.6472408213475639,undefined,1498671089108
903d185fccf839df,0.7511387793322438,-0.5710558663318046,1.553152769808766,1.7328467853886511,0.15180541811960696,-1.8561624890372073,2.013192003213061,0.2517390316436266,-0.3890101762904024,2.274003773563546,-0.1582114201133299,0.0026414322364393256,-0.847879066399287,0.2987055829477666,-0.7444427517327394,1.035714907964553,-0.40615928447957805,0.21666024540413195,-0.7002429459242789,1.3635481041706679,0.05361171905216179,-0.24753777006880265,-0.4118577164015881,-0.5084613283905026,undefined,1498671090598
903d185fccf839df,1.0629919784632464,-0.5282037130129587,2.522291827861329,2.491616611181594,-0.005771458801286453,-1.8450659926916262,1.949061557287371,-0.1245222136974112,-0.3949558994754627,2.1123649776822107,-0.13418044032519327,0.1567484821215814,-0.09935522504456328,0.27555975146486755,-0.7749690909159512,1.080168192231058,-0.35654268866850775,0.1719053312290098,-0.7370951489157277,1.13956231557815,-0.010967879395668241,-0.3195593056075802,-0.5163051869377077,-0.4420321424638231,undefined,1498671092112
903d185fccf839df,0.5418504952583874,-0.5546194463844057,3.445494615757814,3.4844247049871133,-0.20674369477432425,-1.8529923948268414,1.917756339669106,-0.398859419217281,-0.39531053051128984,1.4460566400026906,-0.005322630496020351,0.2161591062178112,0.3967594139928699,0.23111963483451362,-0.7497059095989573,1.0256117963103495,-0.3700286109881363,0.15454673194487864,-0.7274885274474746,1.1764415944682773,-0.01816025642156656,-0.373702264570333,-0.4726629359933887,-0.45418150777465577,undefined,1498671093649
903d185fccf839df,0.1523803443948441,-0.549336282173321,3.3357565020381443,3.3404973420810635,-0.4608415557570017,-1.8377684873605316,1.8631431645248513,-0.8335256283963577,-0.41158169632001335,0.5141394434373582,-0.10865055448108549,0.18036808278673366,-0.6128773952762924,0.23297131067770321,-0.7507585323375203,1.0296530014014207,-0.3523696318845193,0.12796736796758104,-0.7473034969818808,1.125888501137525,-0.054197503403572905,-0.3863021845542257,-0.4029285497406659,-0.4019730730210355,undefined,1498671095121
903d185fccf839df,0.1593104453913326,-0.5839701962904751,3.2662134506501275,3.2723062769641134,-0.4938586462312623,-1.873599174165035,1.9666497032789096,-0.2646837411240588,-0.4568990507840712,1.062756700341611,-0.12456370608826298,-0.031754351458878026,-0.7869527072192514,0.08298616311497503,-0.7928638541651337,1.0114675078297963,-0.3799192460102335,0.009281672685487971,-0.7520473345544049,1.0995725629720368,-0.13159947064652439,-0.3800999744235281,-0.22979520697912562,-0.41662670869258617,undefined,1498671096612
903d185fccf839df,0.5418505297637971,-0.4542397063376945,3.3989199535847856,3.392934522991044,-0.19651971405864407,-1.8297046610324652,1.9875224840098802,0.12460763262334189,-0.4606622325239933,2.0905615168453946,-0.20844744632114962,-0.03408655394262163,-0.7347301136363636,0.03299114846279776,-0.7612848775188913,0.9589318416458702,-0.43768628219739303,-0.0010916884269001716,-0.7205267007291708,1.0158358165005077,-0.14472128304320467,-0.39270912642843875,-0.06323278729861478,-0.3945150824887311,undefined,1498671098112
903d185fccf839df,0.15238041340566358,-0.4501306598068294,3.2655753127701255,3.236709781743164,-0.3207297952801763,-1.8403586006622565,1.9440859725385986,-0.2481453237349826,-0.45182622271351947,2.1329157804104906,-0.20690668802822654,-0.07441027665073773,-0.7869527072192514,-0.027188018573049547,-0.7454953744713025,0.8457777033897741,-0.4254339951188995,-0.06525707288590553,-0.6712271717814682,0.9367186095997426,-0.18921239677478957,-0.3577058726558112,0.1384765288494798,-0.3708097242667997,undefined,1498671099605
903d185fccf839df,0.19257466103228146,-0.6051027654508374,2.9331712987589023,3.0332603808580716,-0.19647857733606996,-1.869993511741628,1.936767219024054,-0.35472587008833134,-0.37710026857304535,1.613939558711546,-0.02119811748587362,0.04461368083401909,-0.7738970588235294,-0.04200134761391904,-0.8107586026898486,0.922560939296786,-0.40239215324889155,-0.06396515055415451,-0.733568757396124,0.9461116607565603,-0.19649159844873926,-0.36687214888316616,0.09517021926997905,-0.43711963192251535,undefined,1498671101120
903d185fccf839df,0.05813137110535349,-0.6884589828680514,2.030384856831295,2.072220685021466,-0.5153146182275846,-1.9126675036454515,1.8907114225173398,-0.9002150393782529,-0.39692249289817194,1.0550658475913175,-0.0789697610534615,0.004067453941778741,-0.9175091911764707,0.08761539157527266,-0.7486533015848619,1.0215705629545566,-0.4189079833177733,-0.055795653680935545,-0.7412792431045636,1.0181147945847175,-0.17213420549701416,-0.3702046816477719,-0.028061336765018444,-0.4384267255997071,undefined,1498671102615
903d185fccf839df,0.3381061953665744,-0.7330721811812616,1.9378736703652395,2.1193754946549275,-0.24638478584840784,-1.9377534099348037,1.9226767166148928,-0.6576305778736603,-0.18878806230333695,1.5053791197846396,0.09858707520631506,0.019790752449172916,-0.9697317847593583,0.06539541096474298,-0.7202321710676072,1.1226010011432745,-0.3685019433815236,-0.04330075487528129,-0.7808671998767234,1.1109520197167766,-0.154888868282761,-0.3691172178964448,0.12850140387170655,-0.4528575477185672,undefined,1498671104143
903d185fccf839df,0.1260460917287448,-0.6737835933010206,1.9914665785335448,2.049113949957446,-0.42380277259857,-1.9202468473672318,1.9492403896842687,-0.48607909626236,-0.1779498542269899,0.9877199931518673,-0.057429406738964094,-0.01577402675322239,-0.9958430815508021,-0.12810387284822433,-0.8318112636036552,0.8477982635382274,-0.4874288390581613,-0.269177858135227,-0.8619602383961916,0.8933411901776339,-0.3261907770889933,-0.4411980914848216,-0.07910456073208695,-0.5166009869989435,undefined,1498671105608
903d185fccf839df,-0.20105346071508953,-0.5687077917253229,1.8964025864105314,1.870891457371561,-0.49718093750758713,-1.9054748123911842,1.9268975522215661,-0.6428223242609764,-0.23479469142307952,0.6104361274696963,-0.07756090242248839,-0.09746380216843074,-0.9262129567736186,-0.2364264822992557,-0.8149691451797372,0.6942321026361404,-0.5292509065612812,-0.3340335337872682,-0.8540188569990285,0.9170393937750123,-0.345936816928286,-0.4971133341715859,-0.10179303895744181,-0.506820934368013,undefined,1498671107104
903d185fccf839df,-0.3424269551547352,-0.5311388026175617,1.903420832405808,1.9682234240827021,-0.6082253205343207,-1.9015174358239644,1.844826565068926,-1.1685081263024881,-0.37368708306144105,-0.13973152270825978,-0.23867519165518683,-0.014165297151501157,-0.6563962232620321,-0.16884061189065,-0.7276006038598863,0.6558406966680459,-0.5814764695658597,-0.2957635556596984,-0.796672995029314,0.8800215327260889,-0.3226738829888102,-0.43875895121584363,-0.10596471237229671,-0.48717764892319326,undefined,1498671108605
903d185fccf839df,-0.31193466259398867,-0.568707806339319,1.6648047888945434,1.7967702346747976,-0.5764630848786961,-1.880831462382263,1.9510759820266754,-0.43598576298967195,-0.38616761803904676,-0.06726519131787197,-0.1821682955410812,-0.01492938974896516,-0.8261196524064172,-0.19013478048113397,-0.7676006875726074,0.627552034912775,-0.5983304792913823,-0.27361092010464105,-0.8105756591282455,0.750428210667152,-0.33868162303665117,-0.3970615014575445,-0.15178740211945768,-0.5339682116722343,undefined,1498671110128
903d185fccf839df,-0.33688283295105276,-0.6174300804113866,1.6150396914584533,1.6077165368247008,-0.6177292985562922,-1.8761869600138255,1.8842631302829362,-0.9037210060536393,-0.27401320205652685,-0.2622867213850068,-0.029884867933590402,0.04140475980801232,-0.7738970588235294,-0.27253400583215825,-0.7949691364534287,0.43761502819104686,-0.6810553268675876,-0.30902474149742687,-0.7839318025207579,0.5512185234767089,-0.39415952074362287,-0.35251667879086723,-0.2909068173098971,-0.49543490777179633,undefined,1498671111606
903d185fccf839df,-0.347970904831369,-0.7048954028154503,1.4555367344396426,1.5112512130854496,-0.7079451545325885,-1.8555382532588895,1.9308948555813514,-0.6290580451289357,-0.22630143640708425,-0.09327732911136298,0.1064025318964668,-0.0007634576853262025,-0.9784355503565063,-0.1642114481842251,-0.6823374359032853,0.43357373830581103,-0.6009622005592684,-0.2413192406701128,-0.712669284078239,0.5889755092743255,-0.3285073235157997,-0.38621658233858097,-0.2143034164990167,-0.4410112100837539,undefined,1498671113108
903d185fccf839df,-0.3327248275618152,-0.6960902070716218,1.4159803182618904,1.401913323640985,-0.8581163336448419,-1.884574549115855,1.968474783216354,-0.465601165931761,-0.17481964508007852,-0.40009031196827405,0.13004955271406,-0.024306094395444622,-0.8130640040106952,-0.19476398303988252,-0.6676005555942595,0.3810379873277203,-0.6263864521266048,-0.236715191425002,-0.7236822655114341,0.5544367982518874,-0.32891936995521576,-0.4121914298563356,-0.26446313884291417,-0.48658545042526474,undefined,1498671114623
903d185fccf839df,-0.24956385714182142,-0.7289630761944118,1.3630252938366378,1.4221656433308467,-0.8254798210408488,-1.9115634440314855,1.9887926625843526,-0.36843230128665583,-0.2880655487465639,-0.09211680610595309,0.24630652978400536,-0.09266887494393865,-0.852230949197861,-0.2308714547696869,-0.7433901142697089,0.286069257849084,-0.6023898356751034,-0.25848152013424147,-0.744553751047511,0.4885314493454899,-0.3547324222799537,-0.36933673694031743,-0.3445669216476103,-0.45106376600149967,undefined,1498671116136
903d185fccf839df,-0.21768558578826883,-0.680240772894352,1.4931792452512873,1.4629538119321757,-0.9187196544098876,-1.8915226687844418,2.0804256214159405,0.2739890463758168,-0.3987945005127703,0.11145088585270593,0.03594462252582461,-0.009503003221694086,-0.7347301136363636,-0.30956734138510655,-0.7781269885805755,0.32446091819967227,-0.6171160757487097,-0.3361614059025013,-0.7584913972861856,0.3742133890464148,-0.4158456514456608,-0.37052534520561964,-0.4505518504320364,-0.4435996641957849,undefined,1498671117616
903d185fccf839df,-0.12482262579699396,-0.49356985735178915,2.1541594625415184,2.050856982843593,-0.8170146825276235,-1.840141981301286,2.021607383724424,0.05746773589034022,-0.4856091058556449,0.2386079522313033,-0.12453856141158028,-0.021504887039002343,-0.6868594028520499,-0.22901981777882094,-0.7423374768066783,0.3022342195369766,-0.580353711789235,-0.2646561384756488,-0.7137258012605026,0.2845174442814086,-0.380523123743202,-0.39625229426137115,-0.47007231965311863,-0.47799244746024244,undefined,1498671119106
903d185fccf839df,-0.3119345935831692,-0.4466085698181011,2.496771395400231,2.3780489162919793,-0.8280203730333977,-1.781018900673714,1.932051964391508,-0.4303990921638529,-0.4761127186955828,0.055287886335362205,-0.2927644861002613,-0.056715220699659945,-0.6999150512477719,-0.28642147104988386,-0.7560217196526734,0.16685352394179248,-0.6790908019669608,-0.3255980549350618,-0.7643617216056008,0.20136583726944665,-0.43734106489707686,-0.4359774752665819,-0.5633765623036479,-0.6037747235091002,undefined,1498671120599
903d185fccf839df,-0.4089555934690913,-0.4712631997391994,2.1567112516506786,2.1391433251730207,-0.8131678324313916,-1.7976380239523304,1.8312173132891658,-1.1438575172795418,-0.40180494046921933,-0.08478534995293123,-0.24543925603794273,-0.02421344454781879,-0.8261196524064172,-0.3428973770547738,-0.7233900908189328,0.1830184008355205,-0.7472086997802413,-0.2869101016278444,-0.7437001381692139,0.2749858053923988,-0.40318305129768106,-0.46162304152124434,-0.532606342394922,-0.6371960876188959,undefined,1498671122108
903d185fccf839df,-0.25788004044734514,-0.4665670505262359,1.5001974912465639,1.4626420191686504,-0.8388203628018418,-1.80359388751206,1.875040402203277,-0.9160968654579172,-0.4216797523290827,-0.181598514125574,-0.21642168738688813,-0.05253937395428698,-0.9566761363636364,-0.3438232149763686,-0.7518111992494861,0.08400866411886367,-0.8239604731329367,-0.34285532471190516,-0.7587852626640124,0.2223847200962099,-0.45050946618926113,-0.5001145433092579,-0.43598609037285446,-0.690810282976833,undefined,1498671123599
903d185fccf839df,-0.2869862852044662,-0.49826591888077554,1.2826356774472303,1.1896154292829728,-0.9776875598125429,-1.8508704568388379,1.912893841444999,-0.7743998406523684,-0.43703376617007156,-0.09669049441921565,-0.1933086978434914,-0.005501693582867682,-0.9088054255793226,-0.4289999022890791,-0.7623375149819219,0.05167888206668608,-0.9142430960328499,-0.4238663403382998,-0.7574978499398345,0.2647766409752539,-0.4843398454361134,-0.5351058210269739,-0.4159304555875223,-0.7048463891089323,undefined,1498671125109
903d185fccf839df,-0.33688286745646245,-0.4794814097128988,1.2430787529955794,1.143045712405107,-1.0192520600145958,-1.8445535603228285,1.8599979222011354,-1.1124140680871766,-0.48893055551367465,0.020355336745518288,-0.2616575142373282,0.02611253611706588,-0.7086188168449198,-0.46232989910642275,-0.7823375089837628,0.17089475729758524,-0.9247565955975637,-0.4459049839203738,-0.7806502976078901,0.33871997818921595,-0.4926840021016841,-0.5482116929239425,-0.3641107038001946,-0.6546298617309673,undefined,1498671126639
903d185fccf839df,-0.37291921321007204,-0.45423982324966383,1.1882100773411683,1.1392016109765504,-0.8899197077774974,-1.803214223577648,1.8899014409554933,-0.8517077764906977,-0.4578791138342875,0.404526891695328,-0.22841976035412426,-0.000434446449861733,-0.6563962232620321,-0.47066242745000136,-0.7897059565005095,0.07794678582045296,-0.9295033920276579,-0.477221390454907,-0.7897671416174308,0.3405215956467783,-0.5066702704642846,-0.5539198891174775,-0.39758796513267336,-0.6721305834643638,undefined,1498671128116
903d185fccf839df,-0.4408338993280536,-0.4501306598068294,1.5033879265096253,1.347870402233853,-0.8073769876774315,-1.710685196083587,1.8950006303952636,-0.6569192372613136,-0.3560008203437503,0.46135377931025096,-0.21833675333287786,0.03753936647831709,-0.7782489416221035,-0.5308416592397214,-0.8033901698975694,0.23959538516940396,-0.9196439971217986,-0.4757078152328639,-0.7654182391732393,0.3385967912179871,-0.5027547680100789,-0.5175937582715084,-0.39271413736301625,-0.6851542267681564,undefined,1498671129610
903d185fccf839df,-0.32718080887436196,-0.5863182562829606,1.4542607128165879,1.373360370003692,-0.7722821848449949,-1.5504055857032994,1.8195646447140545,-0.8291345778400873,-0.44467439632260297,0.7628891070835496,-0.23171088917391247,-0.11488287024623176,-0.8304715352049912,-0.43733243063265775,-0.7939164621792292,0.3002136028590802,-0.8401626597839591,-0.43844477638467605,-0.7651313713219855,0.41344862936285903,-0.4714902865254193,-0.4321849167977931,-0.43082554938276,-0.5800261058735476,undefined,1498671131085
903d185fccf839df,-0.33549678514742726,-0.4160837314598043,1.747745940256162,1.9233781622960924,-0.8749025822192804,-1.551206843607811,1.8240668740051862,-0.7625109528823204,-0.42192391224573705,0.5908080871150166,-0.3090274515731174,-0.10387675214163648,-0.49537655971479505,-0.32252905933665915,-0.8097059799512855,0.3648730821692708,-0.7846449600668943,-0.3192777762923779,-0.8069163258530334,0.4990023927470701,-0.4107715840715831,-0.45027023257870186,-0.48814907793179774,-0.5314534541651696,undefined,1498671132617
903d185fccf839df,-0.2675821335348554,-0.26698174656901785,2.0023126352610365,2.0822228120000927,-0.8361255061807219,-1.5922363929182939,1.8233147523096274,-0.7927758883106103,-0.4399183837915165,0.6871043906012689,-0.3774140282237848,-0.06808195712063612,-0.5301916221033868,-0.2271681548864059,-0.7886533190374788,0.4800477523090987,-0.663358221047392,-0.18102961579830143,-0.8047962925611262,0.7219718810726612,-0.3104232062406369,-0.360550002671612,-0.20254903942494154,-0.4657961763159479,undefined,1498671134119
903d185fccf839df,-0.005625309623390587,-0.3186391833156693,2.4310561547444296,2.24155394901557,-0.5833236465658136,-1.6328909344995137,1.746048407966774,-1.2402744030914195,-0.4265154968576191,1.0233588219089165,-0.4172478637959116,-0.027005944716130277,-0.8696384803921569,-0.13736225206417232,-0.7591796173172977,0.4295325332147398,-0.529816319992896,-0.0443583569455591,-0.7731917008101843,0.8176578258146185,-0.22135528333133808,-0.2896818653579606,-0.16001311956555503,-0.3277718010354847,undefined,1498671135647
903d185fccf839df,-0.03195963130030935,-0.25993762504754586,1.888746456672202,2.002189792115174,-0.5568688303819868,-1.5011142288515071,1.7789551737993554,-0.8005005593242089,-0.46209726626979564,0.8121616788236472,-0.21860386813798866,0.047812101341269383,-0.9653799019607844,-0.11884557133692362,-0.814969152541971,0.5022743944423512,-0.5457735329473943,-0.0245995732811294,-0.7707218260385328,0.6989820083890278,-0.22164719276999167,-0.31144090075966363,-0.1940388147051188,-0.375430716499474,undefined,1498671137133
903d185fccf839df,-0.30777648467770247,-0.40610453494772536,2.1707474895042824,2.046971517800729,-0.7528525064301849,-1.4433234727575526,1.7308034385974211,-1.069015657235539,-0.3885860686904349,0.29941719657815813,-0.07808720635144044,-0.018949250627697926,-0.9653799019607844,0.07557953744686392,-0.7191795630535117,0.6113872428132116,-0.3429285727681264,0.05468888392397429,-0.724444918202845,0.7887703453479527,-0.15349110934355967,-0.29496355497170956,-0.1880738544719242,-0.3316680896629434,undefined,1498671138620
903d185fccf839df,-0.3826213753084018,-0.2887013599554939,2.2071142328298214,2.0673492728676695,-0.7490570870177181,-1.5912907223553308,1.9080260710437031,-0.20453763836322414,-0.40849484440162415,0.054012600654803566,-0.33142222543311467,-0.019048844407287286,-0.9653799019607844,0.22463875643257547,-0.7591796173172977,0.5366247649077037,-0.27533588137413073,0.14594660239270585,-0.736465438346949,0.7889859221437336,-0.10836672308429024,-0.3236779502694116,-0.21456759643999088,-0.36635900031129953,undefined,1498671140124
903d185fccf839df,-0.3438128994421315,-0.3309665567322031,2.3774635007130733,2.253091179973855,-0.6989657447889879,-1.6514293495005894,1.8182918287415852,-0.8484102174904724,-0.3926474381963513,0.26174360486756265,-0.5148833751225217,0.022066489344277747,-0.8000083556149733,0.1292779037854204,-0.8139165150789404,0.46792402397699884,-0.30152793984834314,0.1124833255873804,-0.7320294596271953,0.698751029418741,-0.14108555867278214,-0.30113362793108384,-0.22645344462922481,-0.3476106070337988,undefined,1498671142364
903d185fccf839df,-0.33272479305640545,-0.3468159616814806,2.525482008987441,2.3024835813412468,-0.705353165472612,-1.6593534217319972,1.8551801193750508,-0.6334824470466377,-0.3506405157190425,0.09448538554123724,-0.4816813239853792,0.08182563795026626,-0.691211285650624,0.14131373201228004,-0.819179680307392,0.4820682559281089,-0.2787530897011062,0.12205240316832976,-0.748339024404391,0.6540647373545777,-0.142250450284005,-0.3250616217625227,-0.3035780946537983,-0.4325690499447524,undefined,1498671143760
903d185fccf839df,0.07753548826955456,-0.4665670797542283,2.602043306370734,2.4124274842453493,-0.4891580929693609,-1.666278249658045,1.7057703077394408,-1.5272320620735123,-0.40479337140676486,0.5158003689782904,-0.5797976682024769,0.014536987586690604,-0.691211285650624,0.309815586203806,-0.7981270267558191,0.7184794179767324,-0.3165852750238313,0.23872422184056552,-0.7584004379312197,0.9322992502505738,-0.03358332442950277,-0.40230528770303137,-0.21608820461845787,-0.5288892008015675,undefined,1498671145290
903d185fccf839df,0.09555366114635934,-0.32979243905198335,2.9357230878680625,2.905504027978449,-0.41071936873435916,-1.7110508849405826,1.805658227614399,-0.8349866494022959,-0.40106007872671023,0.6094104780351208,-0.7122061125805916,0.026387209067613996,-0.6825075200534759,0.4079539396649709,-0.8065480970111288,0.9649935220912301,-0.14258495003870214,0.3903855556813385,-0.761842868484936,1.1053623804522625,0.07848871623451857,-0.40556780380683377,-0.23644218736841574,-0.5431600937999845,undefined,1498671146786
903d185fccf839df,0.011006815449788706,-0.2746129707725882,3.1201085936049187,3.013763508055263,-0.4641844139902481,-1.7954555266516217,1.9347001797365373,-0.121895696847287,-0.3387689428181539,0.1139209544620729,-0.7904441067456958,-0.13091939189146795,-0.6389886920677362,0.4098055637050623,-0.7939165063526319,0.8781074854419516,-0.19842674269921223,0.38533186621706644,-0.7478772339383859,1.0658807644432602,0.07188478750483268,-0.4170994437437404,-0.24395208744492572,-0.5764465163092042,undefined,1498671148256
903d185fccf839df,-0.023643517005605102,-0.5464011925687178,3.1264889558571425,3.231096629654346,-0.5387042894560627,-1.9009118321599685,2.042979813348396,0.352942905242228,-0.38262605922085186,0.26070044744979565,-0.6453826393908029,-0.15910606106920347,-0.3430606617647059,0.2709304971030208,-0.7665480501095767,0.8376952932076316,-0.3956764227966215,0.3321034760868766,-0.708135349113121,1.0075206584096532,0.03766702824700867,-0.45443427886276483,-0.23220578455457244,-0.5450316364712864,undefined,1498671149772
903d185fccf839df,-0.06799601155932865,-0.4665670651402321,2.847677850014225,2.9225187186763537,-0.6711223564861813,-1.8743026047848401,1.9385659977842964,-0.43024598584630375,-0.4457645253691867,0.5108146849301667,-0.5584713841122169,-0.07458998271678038,-0.22555982620320855,0.22278721009713134,-0.7139163831005925,0.7932419524116834,-0.3671271174517514,0.28304849446145847,-0.6889920743526692,0.9047822336499084,0.0042120602714664996,-0.49472519688957006,-0.2709668947065996,-0.5376244254004764,undefined,1498671151303
903d185fccf839df,0.07199150408751101,-0.456587854014157,2.6843465739892998,2.7618668080695743,-0.46909070124614194,-1.8492166981992086,1.9041786607199755,-0.6329788867634129,-0.37736769641206247,1.139479066574556,-0.3147638392337102,-0.12487624075531745,-0.8217677696078431,0.18205052285780388,-0.7160217022000565,0.8053655676848971,-0.33587691615512166,0.27119955821968794,-0.6529375091102126,0.9303436510444728,-0.0021192472980319696,-0.4123153642971018,-0.13541207521946208,-0.46636658963794875,undefined,1498671152779
903d185fccf839df,0.3478082884540847,-0.4906347531331898,2.7800487039923154,2.7614189189381544,-0.32349665355102636,-1.8398252060438325,1.849949427977478,-0.9195764275913582,-0.40774520424892136,1.5765393546482467,-0.31180948047172086,-0.03582054071813747,-0.8957497771836007,0.08391201398734438,-0.7476006641218313,0.7063558027035187,-0.41766913966338726,0.10753096472791966,-0.6479277925653313,0.8973601792426633,-0.1019770434854134,-0.36368281322284746,-0.2956956544999924,-0.3212860014066225,undefined,1498671154277
903d185fccf839df,0.4143371338008992,-0.48476457392398364,2.697107044356798,2.768234291129099,-0.1989779960849511,-1.8391660311888849,1.9062719821819945,-0.5497991121218283,-0.2921879263625196,2.0759610233177,-0.15455846108284718,-0.010394597282411476,-0.9610280191622104,0.12279705128503135,-0.7581269651297995,0.621490297937972,-0.4268861716108834,0.04134536805777988,-0.6269443571132,0.8284829335018506,-0.1370486511753002,-0.3862685364859944,-0.28516298979019256,-0.3316397239362339,undefined,1498671155790
903d185fccf839df,0.45730347703476804,-0.4806554397091416,2.728369447053168,2.7326353579059703,-0.06046051036893164,-1.8515529257019094,1.9531745672857088,-0.22546608859524642,-0.3100372243315005,2.590853635674075,-0.1744925433547639,0.02844443892282782,-0.8174158868092692,0.13761043212899904,-0.7360216667529622,0.548748408445639,-0.3452358508782063,0.06538522119412,-0.6265595319583303,0.8096352331792643,-0.1224778746674322,-0.34156414522629336,-0.27777028043740176,-0.3679585509412806,undefined,1498671157268
903d185fccf839df,0.5307622508510224,-0.41314862724120505,2.889786563575036,2.8356258210267855,0.00769251610741397,-1.8051009088916512,1.8758214582839476,-0.562705862141688,-0.4004880991911339,2.5668846114313917,-0.18814550667614782,0.08878691959195555,-0.6607481060606061,0.1292779296869695,-0.720232178429841,0.9104371261705215,-0.28829391354083705,0.0946497540879115,-0.652755593318119,0.9637736719754321,-0.08467646320545434,-0.3473862627541324,-0.32659883973180964,-0.3364479693399691,undefined,1498671158768
903d185fccf839df,0.45591760175819124,-0.3755796673614362,2.372358905946955,2.4737701929186073,0.06433583520048437,-1.8032258713615947,1.9405883265992971,-0.11036479464533816,-0.4043317393797743,1.7947681965254823,-0.24495992078952689,0.13182512012785771,-0.5475991532976827,0.1070578972733416,-0.7139164125495276,0.8073860995686288,-0.34604396961076,0.047412323305968763,-0.6348017764067023,0.9783559985206838,-0.10078079913343571,-0.3160878055174024,-0.49570491148056645,-0.3835484279208252,undefined,1498671160270
903d185fccf839df,0.7248042506228667,-0.2840052691985151,2.4457307846149847,2.201107206112822,0.028685614710570514,-1.7651102006392847,1.9207069961775458,-0.10983243011733108,-0.4774035345762776,1.068082165584501,-0.41277681331468674,-0.01651621970148622,-0.6607481060606061,0.03947210456938319,-0.7054953570186856,0.6982733642566546,-0.39103774891147997,0.04876757447653388,-0.6772234407581131,0.926832797109163,-0.11782722763849128,-0.3210347263456629,-0.48945708090653206,-0.36059995715758186,undefined,1498671161764
903d185fccf839df,0.44898739724547354,-0.44778257058635157,2.2504987138767385,2.1795276091420672,-0.21398483345548094,-1.798043313005083,1.9178115686844082,-0.35541096680387985,-0.39377749301652054,0.8030699318061979,-0.34114106257256593,0.029447490557611124,-0.5780623328877006,-0.024410491857490606,-0.7591796025928301,0.6720054887676093,-0.43197488046868093,-0.0028522475388116555,-0.712900178598604,0.989288889833417,-0.15226765477443754,-0.3138574474949777,-0.42343226114581295,-0.35252722304282497,undefined,1498671163305
903d185fccf839df,0.02902509184282269,-0.5440531471902285,1.914905027013302,1.8839739775965996,-0.5074049088168173,-1.8455714385020645,1.8769496426604493,-0.800551472143247,-0.3066864163789331,0.27517372349174324,-0.24649149760718478,-0.03106929468744352,-0.6128773952762924,-0.07533140918513541,-0.7539164447266122,0.7730358421621626,-0.42171945590114884,-0.08073478985783121,-0.7518024469995244,0.9556124945426693,-0.20694320809776265,-0.2889122894799807,-0.29382840865902027,-0.2905987815234221,undefined,1498671164771
903d185fccf839df,-0.24124784636334637,-0.5516843567798027,1.2181964584144835,1.3468353337134362,-0.7852215919854577,-1.8996517150364975,1.9762852995033822,-0.41815744825433887,-0.3026287308469887,0.2716259062764718,-0.007678119435216967,-0.01067335632486096,-0.6650999888591801,-0.26975651796892297,-0.8086533719371901,0.5689544621657167,-0.4933154021279504,-0.24000832282932905,-0.8087284995153032,0.5970904906168601,-0.36346822095464326,-0.31940629968247414,-0.34159372144066813,-0.3266042879477676,undefined,1498671166254
903d185fccf839df,-0.4643961944085409,-0.49591788811628235,0.6459006334058907,0.6796358571144956,-0.9726372813183296,-1.8465171093409207,1.9556991801820918,-0.5201727900101488,-0.3744672420204324,-0.2646711625174885,-0.0034839586949766787,-0.006821150310225557,-0.5432472704991087,-0.29475398644268797,-0.8665481820879246,0.5669339020172633,-0.5072773427157812,-0.3438812628887591,-0.9002957629628957,0.5484160026225757,-0.4491075856104092,-0.39261341579203096,-0.35948030153263866,-0.39368045969887244,undefined,1498671167780
903d185fccf839df,-0.4574660934120524,-0.6309314838241631,0.10167652169365701,0.06396891481103227,-0.8712305963906344,-1.7812658022859722,1.9171015102264841,-0.7180503926010614,-0.39133653187201034,-0.3338946774469791,-0.00966044846429853,-0.07989271864141242,-0.43880208333333337,-0.519731630082133,-0.9633903869527131,0.40326457293152984,-0.6364419858188637,-0.5669085394785319,-0.9459849381711096,0.3907359211852902,-0.5923547977837997,-0.41128018765620333,-0.4994497774180507,-0.4375622923858982,undefined,1498671169264
903d185fccf839df,-0.5018185189549564,-0.8076232028546472,-0.39023044933637674,-0.48793385384244226,-1.0253514800128385,-1.733968270035012,1.919673465346582,-0.6921607961727028,-0.4077677286665743,-0.5744322584345943,-0.01281632443935111,-0.027527617348379562,-0.8913978943850268,-0.684530067833407,-1.026548369694133,0.4578211101758461,-0.684714823436931,-0.7179112487658792,-0.9990557487379937,0.3091241614642678,-0.688493372472341,-0.42688806151531816,-0.5385391721628123,-0.432014147726966,undefined,1498671170761
903d185fccf839df,-0.21491359369724705,-0.8886313310513833,-0.41766453302663276,-0.4983372483169443,-0.7972455785691844,-1.7227576434195346,1.883629348695719,-0.9043918157184813,-0.3468619478434435,-0.4597626060766411,0.028646248386377502,0.0036929504382128505,-0.8391753008021391,-0.734525101911746,-1.0139167643111684,0.19918324946452698,-0.7829073914674702,-0.7434646772073124,-1.0013786902426696,0.2226772853228509,-0.7099236244779183,-0.4637510013372015,-0.5924702899630303,-0.4611478455782709,undefined,1498671172291
903d185fccf839df,-0.3521290482422455,-0.2065191433065303,-0.46551547095966583,-0.6112879579824505,-1.0243640528170725,-1.48605569606359,1.8026655187527307,-0.9375368063472539,-0.3770581409772181,-0.4701065886372329,-0.05161979339752566,-0.006604908144088543,-0.8348234180035651,-0.813220995002553,-1.0044430786795295,0.11633830484743356,-0.7215264403362659,-0.801569435142867,-0.9524359981419613,0.06790750973835578,-0.742758369326739,-0.44535159140472047,-0.5974262069064673,-0.48211634475533294,undefined,1498671173801
903d185fccf839df,-0.3950955294977533,-0.4571748397842861,-0.48848386017465384,-0.6028495366242336,-0.8672191730432405,-1.3914885832350468,1.7773378517399856,-0.9232779988590738,-0.4995646484783124,-0.40100833940426167,-0.00533151238619716,0.025329890363609393,-0.7260263480392157,-0.8771035137247795,-1.0212851897412139,-0.2514123194405813,-0.8578094244489651,-0.8678120261910969,-0.9561373105635392,-0.08772457486013711,-0.8064229433955237,-0.4275161093469462,-0.6416179915398688,-0.46958132929280294,undefined,1498671175262
903d185fccf839df,-0.748529196586048,-0.7007862978286006,-0.6505388604395743,-0.7579874300408229,-1.2107614522556027,-1.3123084252568307,1.7722202468670782,-0.9047030958223964,-0.2510848853624832,-0.699535198570368,0.03860228295224957,0.012981756638636854,-0.8870460115864528,-0.9233952187805948,-1.037074674383218,-0.37062818053911967,-0.8514273324142646,-0.9019022622002811,-1.0094670030655728,-0.40628761239511396,-0.9000817519500997,-0.4226282574104281,-0.6307714518312307,-0.4366314086318251,undefined,1498671176787
903d185fccf839df,-0.8441641831737544,-1.0177747475500578,-0.6180001819832,-0.7357206135307488,-1.2860733252950933,-1.4739459806210924,1.8437562277265693,-0.8747708728027569,-0.26604628120869256,-0.7142390307649217,0.07951586239902696,0.023283131109635646,-0.8696384803921569,-0.8752518508323645,-1.0391799419470455,-0.3766900164404481,-0.9014829395712362,-0.8859812416735111,-1.0125595932773181,-0.4875914040553361,-0.9130217155949616,-0.4282010778079556,-0.6200786636124906,-0.43373798460016677,undefined,1498671178262
903d185fccf839df,-0.8386201644863011,-1.019535792544422,-0.6830775388959488,-0.7670057856423113,-1.374653749654766,-1.4894167891614651,1.8371028207734579,-0.957787425691096,-0.2713316710919876,-0.7431195325325549,0.06442709115005413,-0.05713614663901054,-0.8565828319964349,-0.8891393743285755,-1.0844431577581661,-0.5282356454588033,-0.9677299739655852,-0.9055753690957719,-1.0191505890986798,-0.535542161249962,-0.9417095174301728,-0.4078871118895791,-0.598179920329807,-0.443863577961063,undefined,1498671179783
903d185fccf839df,-0.731897037007459,-0.8739559560983485,-0.4584977332382881,-0.559936923997582,-1.2228574349976296,-1.4314606573163513,1.8074438721699364,-0.9671264203216113,-0.2819236751469054,-0.6016558442413981,0.029092794401703523,0.018076191521180087,-0.8391753008021391,-0.9104335364436722,-1.1160221417666423,-0.497926423555079,-1.0378444525946426,-0.9471258124800905,-1.1071634730246462,-0.542024907146331,-0.9981595341769514,-0.4651460900874024,-0.6458770404702573,-0.499205301556611,undefined,1498671181275
903d185fccf839df,-0.5087485854460352,-0.4383904183003864,-0.40490431679608385,-0.5040508480245568,-1.209794596393898,-1.5420063497895178,1.8748484239316263,-0.6476475214378788,-0.27703265608557354,-0.677122362581813,-0.056392540092260704,-0.008487325380889917,-0.8130640040106952,-0.8882135105054316,-1.1286537545118407,-0.40295796259129724,-1.001644839889279,-0.8749492528019678,-1.1135375680024497,-0.49638391643209023,-0.9524427747682256,-0.44180299072654544,-0.6666061331320452,-0.5012234947831541,undefined,1498671182769
903d185fccf839df,-0.24956396065805062,-0.1812774983873106,-0.1854285976306427,-0.19148183777734115,-0.8878522742965835,-1.705900937167165,1.9155499314205418,-0.5341004009353989,-0.34001959596602754,-0.4700635561919505,-0.06869879000750785,0.04308479595875901,-0.8261196524064172,-0.7984076271093599,-1.0949694882150696,-0.170588005633745,-0.9780636176180356,-0.7647433667342095,-1.068876924127683,-0.12742176232038294,-0.8174829975546803,-0.4411599889955442,-0.4938735359942667,-0.46941582863162856,undefined,1498671184249
903d185fccf839df,-0.5794354361820873,-0.9397016651159363,-0.4502032114830071,-0.493083543834451,-0.97913783431468,-1.919967338941059,1.9539293177372097,-0.66628541819099,-0.25908852180498276,-0.5929638496337444,0.015225762269813245,-0.031109036435738036,-0.6955631684491979,-0.7734101197832712,-1.0812852674557756,-0.10794917126617237,-0.8725447964619167,-0.7687901182589729,-1.047095852107152,-0.0012161037791762906,-0.7813755663966422,-0.42542860244915276,-0.5395278616081588,-0.5182168568068586,undefined,1498671185806
903d185fccf839df,-0.740213047785934,-1.0430163924692775,-0.6358649929798672,-0.6884490488658191,-0.9394659053924933,-1.9555767483827404,1.9301400894170235,-0.8923785597632653,-0.23732964139490229,-0.4437685038523406,0.04956188233867908,0.07304688984029956,-0.7303782308377896,-0.7697067810476665,-1.1076010862358001,-0.09986674695166912,-0.8713695192018768,-0.7944828713616487,-1.0734878229236076,-0.07605254952317911,-0.8161037918083498,-0.4087636264181605,-0.5145558258283731,-0.484777018090225,undefined,1498671187244
903d185fccf839df,-0.7776355103539885,-1.0623878874072834,-0.7558105172731281,-0.8018496821918601,-1.2011751840641274,-1.9475129222675964,1.9490668053715585,-0.8440885984967328,-0.2804906975869247,-0.6397057294401715,0.09012153726032188,-0.0116928226977729,-0.843527183600713,-0.8224793127023219,-1.1139168852461656,-0.1907941158832658,-0.9814177734483526,-0.843664511954738,-1.1076322600446116,-0.050722106131309015,-0.8418035659880383,-0.4043649098681685,-0.5063228733082669,-0.480308344941015,undefined,1498671188762
903d185fccf839df,-0.8053558453291231,-1.0424294066991484,-0.7341184038181443,-0.7671478627057258,-1.1765820848997883,-1.9642322012347568,1.9551179930928648,-0.8131221400770343,-0.2578001991456845,-0.6496048696216196,0.09287304126399072,-0.007064572751632149,-0.8870460115864528,-0.8678451701234615,-1.1802327472466254,-0.19685588112279034,-0.9670171847010572,-0.9353402049497906,-1.1347798863011727,-0.14456023196747692,-0.9173282315417619,-0.4232798820388276,-0.42787083297731376,-0.45272072742915265,undefined,1498671190268
903d185fccf839df,-0.7388271380039475,-0.9532030100727282,-0.6460731659643063,-0.685902446841597,-1.1757900832530512,-1.9758155065128824,1.9393102355689538,-0.9156405698541503,-0.2868839100797931,-0.6789702876493406,0.08605287048288665,-0.06802759081959019,-0.8870460115864528,-0.9724643955111772,-1.1823380184915697,-0.34233968837217793,-1.0312202945281597,-1.005604215155651,-1.151348334243047,-0.40086735889798103,-1.0011955896507325,-0.44181878684207565,-0.5756343037208853,-0.5319637762295064,undefined,1498671191766
903d185fccf839df,-0.6903166035555767,-0.9132859609724815,-0.4348909520063485,-0.4761132604032614,-1.063891986169812,-1.9826215432782328,1.9580502213360256,-0.7446816329817393,-0.35464474874629126,-0.4569763616105067,0.025503390901750356,-0.06370982932460932,-0.6346368092691622,-0.8956201912143346,-1.156022203392662,-0.5080294998783805,-1.0875753263184367,-0.9596967069143902,-1.1419935980948126,-0.6043732134314607,-1.0210989497592218,-0.44794144617055154,-0.6522499082739405,-0.5327341307915611,undefined,1498671193264
903d185fccf839df,-0.349357021645814,-0.8751299276386066,-0.4144746060374702,-0.47254236791944887,-0.8935196982240455,-1.9526582107335402,1.938471322502681,-0.7990958291094683,-0.3105025034675898,-0.5130199371160868,0.003561127999833397,-0.11977967046969767,-0.5084322081105169,-0.865993494280272,-1.1170747718674392,-0.2938450576909939,-1.0751686249823007,-0.9251694979797125,-1.1115714645131274,-0.3511611759876949,-0.9390200435846089,-0.4434422113567274,-0.6710189580998692,-0.5093034083299166,undefined,1498671194748
903d185fccf839df,-0.24401987295977787,-0.6743705936851458,0.01107924059370923,-0.07522221111255048,-0.667316646793482,-1.8558014565778969,1.9636648716338236,-0.43151766390185564,-0.22406266175651138,0.09575796708899967,0.10926836712546836,0.05615222908205106,-0.5432472704991087,-0.7178600970276869,-1.076022102227324,0.07996736010126705,-0.7878543666506188,-0.7138518328265141,-1.0278266347081007,-0.13898599548327265,-0.7783108523761751,-0.27145560615128556,-0.19924657854162028,-0.3690351377272059,undefined,1498671196256
903d185fccf839df,-0.19273738092579504,-0.6638043529469532,0.43216663033877245,0.45770181323945147,-0.6021156137687608,-1.839496781684126,1.8527633313013625,-1.0869714249207305,-0.221121308942266,-0.24419755633770335,0.19417743544083008,0.15004722442958876,-0.5824142156862745,-0.5151024987526444,-1.0128641415726054,0.16685358047123555,-0.6832989640352937,-0.5641917079918772,-0.9376237486596471,0.2540131307988669,-0.6088362051570237,-0.2947985051310596,-0.147544797866815,-0.371713672105683,undefined,1498671197796
903d185fccf839df,-0.1705610646381138,-0.46774110975047106,2.602043306370734,2.7037254178135335,-0.5720710957241765,-1.8399463251408439,1.8867588326253282,-0.7909747406547822,-0.31957246244487536,0.33663740595490427,0.12955531733154427,-0.05562127068443691,-0.5388953877005348,-0.25309148718331476,-0.9802325127388648,0.27596634404793124,-0.5508828660401204,-0.4058174517048425,-0.8770593535887882,0.42045492873168727,-0.48792145906984147,-0.3037570447594371,-0.15026067578314622,-0.38386727969145235,undefined,1498671199251
903d185fccf839df,-0.14422684647742423,-0.5399440422033788,2.27729567623479,2.3256005902059353,-0.5765762349360442,-1.913347641085718,1.9251829276959218,-0.6384548148151936,-0.37301481180951573,0.05140301068815891,-0.005587436835752171,-0.07564896752570636,-0.1863928810160428,-0.14291726664296656,-0.8560218369065536,0.4012440127830765,-0.6092353124536548,-0.2969541465297185,-0.8163270353688591,0.6951477972903143,-0.3676303394105619,-0.3048477451014732,-0.19595706623871753,-0.4298082302009877,undefined,1498671200756
903d185fccf839df,-0.12898070019705096,-0.6062768246750725,2.0189011704976996,2.0576026767026137,-0.4350861885714167,-1.8936236438536993,1.9544710771536347,-0.4010005644518495,-0.3691719390327736,-0.14617900444435206,-0.06353265047040028,-0.043669124304839005,-0.26907865418894833,0.0061419523427449895,-0.8202323104081888,0.5184392996008008,-0.5152657856238401,-0.14264564016661938,-0.7680070594117069,0.9208120146459903,-0.24163326438214508,-0.3280154571968533,-0.22458058552329943,-0.48583775455794,undefined,1498671202256
903d185fccf839df,-0.023643482500195368,-0.5974715997032517,1.6603383320084273,1.6805450996477396,-0.4690907025744878,-1.8813112854559206,1.94674470095966,-0.44904715143685564,-0.40515749648279176,0.18008176218312377,-0.09520551897329879,-0.12185823975259125,-0.5432472704991087,-0.04477887432947798,-0.8065480822866613,0.6437169400712245,-0.5504522349365468,-0.11078460104057027,-0.7368012830668874,0.8383995341193592,-0.23153336965600163,-0.42998839769420466,-0.42897781801909607,-0.5007676108076313,undefined,1498671203762
903d185fccf839df,0.1205019350196526,-0.6139080196506506,1.694791424104808,1.6924411814604114,-0.6196424445070886,-1.8781994221761686,1.9208858120759758,-0.6553495655093419,-0.3677031407492289,0.09311061408935732,-0.08875411409857147,0.21727361683882648,-0.6128773952762924,-0.11514224555209353,-0.776021757827917,0.7629328435668452,-0.6408927122210675,-0.10432499847302043,-0.7332189158062727,0.839508224143527,-0.2257520145274959,-0.44864986392580786,-0.4500921473711443,-0.5042987396642071,undefined,1498671205258
903d185fccf839df,0.09000960795349633,-0.5751650005466467,1.9627562190832846,1.8750810122812789,-0.5672573862113142,-1.8907586796510698,1.886861376105018,-0.8624004286543875,-0.4071534295643832,0.8301748966824499,-0.15647896059773636,0.06142035923024196,0.009441844919786108,-0.10403224229605414,-0.8086533424882549,0.7568709935331561,-0.6660287159667595,-0.0606720180923243,-0.7458621538372953,0.8449284755405392,-0.2135739451965236,-0.38960879834374523,-0.3631449051624673,-0.3989181002783163,undefined,1498671206750
903d185fccf839df,-0.07769813915224864,-0.5945364954846525,1.3898214937838411,1.6303398051224411,-0.6161658784019544,-1.8806148419000521,1.9615320921208719,-0.39900740702172155,-0.3710598110803815,0.5475071818248666,-0.05820606207453299,0.07885180405285662,-0.08629957664884134,-0.13458472534861338,-0.7665480501095767,0.7609123116831135,-0.6552212488039588,-0.14129672579878771,-0.7180288406408871,0.7520758514514665,-0.25500470988107704,-0.3733035272445311,-0.48077271243926123,-0.37940989272038345,undefined,1498671208253
903d185fccf839df,0.038727115919513486,-0.633279485360664,1.5927094401234674,1.437012811059382,-0.5243351776111239,-1.906632444136585,1.9152001675598769,-0.7206038897864021,-0.4275409845870716,0.7653444393555521,-0.060521678137830534,0.06760319616808565,-0.8261196524064172,-0.20494809657122892,-0.7107585148849035,0.7245412962751431,-0.6701964493672083,-0.15749006356254894,-0.6848709528441793,0.854028961941897,-0.2463363755596112,-0.31938882130117124,-0.3914779390795402,-0.34851882785114435,undefined,1498671209794
903d185fccf839df,0.01932289523908322,-0.680240772894352,1.6590623103853723,1.5635436234280136,-0.48703924309840496,-1.8832585296323214,1.889951391508476,-0.8649322327674874,-0.4417377703249193,0.8887256171466844,-0.01341425555510605,-0.09651352994498318,-0.7260263480392157,-0.21142892317006887,-0.707600587771344,0.5548101736851635,-0.6818518849443298,-0.17683087305500406,-0.6933300966741319,0.734136667918391,-0.27516450895105093,-0.3694756999677071,-0.4133752946140531,-0.31716552784611773,undefined,1498671211249
903d185fccf839df,0.2979118097183176,-0.6503030079901613,1.9557377189510585,2.0553838108722347,-0.3842851250769041,-1.8881965168502892,1.8791297350665068,-0.9266745862858271,-0.33171271321430945,1.1861526380677936,0.08164149116918372,-0.02878472430287011,-0.7913045900178254,-0.15865640770388176,-0.7223374533559022,0.7912214205279516,-0.6300333562835225,-0.17090957208419902,-0.6454439247408131,0.9272947655234137,-0.22929553755407986,-0.3185305429973802,-0.3539571416465127,-0.3187968127572221,undefined,1498671212766
903d185fccf839df,0.12050196952506234,-0.6127339896544078,2.2064760949498194,2.184684386326952,-0.43994102869726187,-1.8813671880198455,1.9357915333940725,-0.5638478458212213,-0.33149893956945325,1.0897657002581653,0.11385667616303295,-0.011113821715946083,-0.8043602384135473,-0.07070220662638686,-0.6886532017835986,0.9548904952311913,-0.5267170756506941,-0.13576806739134778,-0.6341300807274229,0.9164080620485126,-0.20430643549143204,-0.28995841777874465,-0.3439517795474914,-0.31342674611102217,undefined,1498671214265
903d185fccf839df,0.3921609900402666,-0.5317258614576716,1.8236690997594531,1.6680757272518452,-0.21460197987498647,-1.866306327087222,1.9823706699558679,-0.13559768670711633,-0.33365601729532257,0.9576623690422079,0.09014900643742933,0.08666013755315696,-0.847879066399287,-0.09292226494156385,-0.6644426432051677,1.165033810055491,-0.5798376308146769,-0.18517136121246583,-0.6040857753857407,0.9761694272369981,-0.19734638167431334,-0.3789704129461837,-0.28668182815287535,-0.30984228766996247,undefined,1498671215751
903d185fccf839df,0.6208533222675047,-0.568707806339319,2.324508476287821,2.2339751305497084,0.055644426230287654,-1.8648202732327492,1.9068768312172628,-0.5086948735328892,-0.3140985965127787,1.8425463527339456,-0.0734286002820902,0.04898348734223427,-0.865286597593583,-0.009597136915072019,-0.7181269329527149,1.3448678181819018,-0.4927856712621098,-0.09510423554051405,-0.641287817789367,1.3057269565168745,-0.10544178027368477,-0.4116349705810869,-0.23087642952972232,-0.35619800815738784,undefined,1498671217260
903d185fccf839df,0.7539105298853974,-0.5927754797182806,2.4234002791430496,2.3690815234028153,0.13583171628513196,-1.882953399157062,1.8952451968797737,-0.6075365334436815,-0.19009238099181694,2.2850123496903856,0.010231268526731258,0.09690423013436733,-0.49537655971479505,0.020955346137487216,-0.7160216874755889,1.1791780702713226,-0.5058584549473427,-0.10581957682401116,-0.6455628697855523,1.224453957614616,-0.12485846505099932,-0.4083978575487959,-0.29400408521060173,-0.34220409721429773,undefined,1498671218762
903d185fccf839df,0.39493287861505916,-0.6855239078774445,2.6122517334921227,2.682361141046611,-0.06027538309821807,-1.9092877770451813,1.889706822928922,-0.76800732995652,-0.16937106565982613,2.2447498734862656,0.12481394344439178,0.07333775281903157,-0.6520443404634582,-0.06329552915517757,-0.692863751635721,1.1286627946475205,-0.49745834019097906,-0.12939712438535503,-0.6362711037546152,1.2278108210643486,-0.13981325176908546,-0.4210117136813139,-0.23401289215935647,-0.3798192127633556,undefined,1498671220256
903d185fccf839df,0.06921944298566977,-0.5974715997032517,1.99529438926576,1.9564295311256004,-0.5949259100764903,-1.8506282159058172,1.9724378902271769,-0.2962947239019395,-0.38374230330467085,0.6742978729200989,0.044918733054114125,0.00006266963696769902,-0.8913978943850268,-0.14939805438948286,-0.6844426813804113,1.1246216460858924,-0.510449671766067,-0.10924569757067382,-0.6478998044409677,1.2430552826350516,-0.13142788894775503,-0.3779072136943265,-0.3292709800657908,-0.3990313672053675,undefined,1498671221772
903d185fccf839df,0.05813130209453402,-0.5235075930279876,2.1809556624887216,2.272183270907705,-0.4937455057504086,-1.7695054733884779,1.9293327486576197,-0.3212839271837357,-0.423383192665087,0.4357902583556585,-0.25547903055438187,-0.029260684720430197,-0.8957497771836007,-0.10495806726687439,-0.711811152347934,1.001364565763922,-0.47638463275067716,-0.052420195952172066,-0.6717519317285964,1.0365313316094162,-0.1515429215516656,-0.35546064219833307,-0.3549429639910037,-0.43753608869712246,undefined,1498671223256
903d185fccf839df,0.10109778335004181,-0.39084211576857697,2.0578197029323992,2.2506818560956554,-0.4238233363106461,-1.7684433408958808,1.921785200670455,-0.3256084658977232,-0.45290666778135974,0.2943648589459925,-0.3543524524868002,0.006956185843284828,-0.8043602384135473,-0.15495308191905166,-0.6781268713266952,0.9286226480068674,-0.5044954755613067,-0.12995442588724523,-0.6511393267085106,0.9324840353653762,-0.20163424443753333,-0.36613728737931467,-0.4938390240144504,-0.3989898196788635,undefined,1498671224752
903d185fccf839df,0.5418504952583874,-0.48359060238372553,2.5165498576260563,2.4617935840246057,0.03861132069286497,-1.8071879060792593,1.9450537174296214,-0.1260266822384955,-0.24792717887244117,1.2320977580718733,-0.10522882764540906,0.004591234881737611,-0.6607481060606061,-0.04663049836956939,-0.6518110525466707,1.0437973746761384,-0.47133666007368014,-0.007918601140851965,-0.6428970851902108,1.0335440350640979,-0.11453545969559464,-0.3201956806455152,-0.5659746090462409,-0.4375951367958471,undefined,1498671226256
903d185fccf839df,0.6929260137747238,-0.5933624654884097,2.4629569494577512,2.442441358551223,0.3056280096659082,-1.8286075884751871,1.933614062935065,-0.2341934831743755,-0.0902077774196265,1.9879306470604683,0.23110941787980605,0.008568411663656824,-0.6607481060606061,0.10613209820407045,-0.6876005790450356,1.1145185909611321,-0.37319469483586665,0.05330196784677579,-0.6567927517503352,1.1127074388359048,-0.06929325227935573,-0.32213983599386786,-0.5419433426996676,-0.46399080271486204,undefined,1498671227752
903d185fccf839df,0.5127441469850371,-0.5692948213374405,2.3455624518628024,2.2773880533192363,0.39829184955023816,-1.8169241241923648,1.9574322149032644,-0.0669534697721678,-0.0822231628484661,2.3132699247034907,0.29222954185628885,0.008704279001827164,-0.6520443404634582,0.11724210146010984,-0.7065479650327811,0.8760868970287767,-0.35212098699011285,0.05504985977575264,-0.6429810467188679,1.1554535200696057,-0.06394034586756563,-0.3020328776577904,-0.4952895568765252,-0.4542419943101216,undefined,1498671229245
903d185fccf839df,0.45591739472573284,-0.6890459686381805,2.4042597006602766,2.5107845144763736,-0.05853710465785207,-1.859234755474051,1.8715585345609966,-0.8674420276010467,-0.13177166913381183,1.8808962713183932,0.2814828179399372,-0.02986773527909495,-0.6520443404634582,0.0015127886363200914,-0.7086532399588422,0.7467679384083957,-0.3877307426522116,-0.059779074683738574,-0.6954991101318195,1.1003424842750649,-0.14079203530941573,-0.30515301046119725,-0.5168489185558495,-0.39548128733355586,undefined,1498671230735
903d185fccf839df,0.19950479653417968,-0.6731965929168954,1.8377058458869557,1.82304340210719,-0.3931513998010737,-1.8881778835001113,1.8848969139651965,-0.9003266123152818,-0.26260750938264077,1.011176388568994,0.10422979633234812,0.08565498393608126,-0.6346368092691622,-0.03459469604425884,-0.7339164065513686,0.8255716779344179,-0.43164536191234526,-0.07554177158535379,-0.7042101398506776,0.9792799028646318,-0.17932803474885636,-0.26313684614717797,-0.37144871431307547,-0.36321565214368784,undefined,1498671232255
903d185fccf839df,0.027639078544606937,-0.6350405888110129,1.8938505431644215,1.9263486947408888,-0.570353381602045,-1.8870249109620654,1.9125072477655813,-0.7472719120608489,-0.3419790397917736,0.36889204250342034,0.0018067031654726438,-0.0010134567963780994,-0.9436204879679144,-0.14754648215248964,-0.7654954273710137,0.7427267333173244,-0.5028542633861204,-0.13132233597450252,-0.7024259522268533,0.7882313893509674,-0.2491572546664969,-0.20913142880832677,-0.2612251904159338,-0.3109991519094334,undefined,1498671233776
903d185fccf839df,0.11079991094296181,-0.6538250395229049,1.1224945825484174,1.2151630022841984,-0.5092974860322294,-1.884551258551185,1.9338376046096495,-0.5752956045877562,-0.29427813233632494,0.3929585780644828,-0.005287562359583512,-0.045163826341963,-0.7216744652406417,-0.28364395728509945,-0.8623376469602697,0.6457375284843994,-0.6838559853164711,-0.2701467977095146,-0.7445257616630329,0.7189537834900588,-0.34071580878111735,-0.2953777796783396,-0.33419779339425193,-0.3605432434464342,undefined,1498671235253
903d185fccf839df,0.1606963896787289,-0.6714355479225312,1.3719571910610726,1.3496682771232589,-0.4762084024864728,-1.9093110705608651,1.946849885765553,-0.5203223445200398,-0.2854693933900111,0.5895762443614251,-0.029049574606355284,0.033941902533856635,-0.5737104500891266,-0.1605080705962968,-0.8581270823836797,0.49823313282183695,-0.652739532104202,-0.21628511106889617,-0.7609262865537102,0.6863706759547361,-0.3286723571786025,-0.276570996903112,-0.2943473998840297,-0.3220361757790882,undefined,1498671236761
903d185fccf839df,0.6014491360924842,-0.690807042860537,1.3949255802760607,1.636784058583353,-0.322210949323276,-1.9178780121912253,1.8990294919203736,-0.8012785341825451,-0.21456176066215005,1.3829395843800207,0.020715673581373825,0.013221440529816518,-0.5432472704991087,-0.13736221321184866,-0.7907586086880076,0.6376550900375354,-0.617618902663078,-0.20285293887455766,-0.7590371478127532,0.7801164085334628,-0.2986225268226099,-0.3159392534455542,-0.34285103723769966,-0.289154176193145,undefined,1498671238251
903d185fccf839df,0.4157232161099344,-0.6062767954470802,1.9034210865427574,1.8990778383174567,-0.2972372731268881,-1.8991392828434739,1.8146363909281389,-1.309769810724889,-0.23488153375049475,1.425323346364266,-0.1143868896188483,0.0026925228406067966,-0.5824142156862745,-0.05866635249797813,-0.8233902154350469,0.7326237912514502,-0.5241005065398473,-0.20197266030689673,-0.7735765209123614,0.9350401688282044,-0.2792071467500912,-0.3310069174090637,-0.2463362277168344,-0.31471455167795304,undefined,1498671239759
903d185fccf839df,0.5862029898121108,-0.5722298963280473,1.6131257860923458,1.7012667788158324,-0.08512562791535919,-1.8587246533352397,1.9396705149771467,-0.31081824547824155,-0.29417746620931773,1.179677019829016,-0.2460910720959714,-0.030174783301604183,-0.6955631684491979,0.025584522794686662,-0.7854954360973222,0.661902433642849,-0.46396998453103233,-0.17228382232387301,-0.7741852448839077,1.0972319965313526,-0.23175476697340117,-0.38099483094672143,-0.3345467019205823,-0.31511097281978245,undefined,1498671241270
903d185fccf839df,0.27296357035043406,-0.5628376563581052,1.8026148700475222,1.777338172043426,-0.057261675112271336,-1.8118952984456802,1.9368487295755243,-0.23229498448232738,-0.3988179385971954,0.7239166103505156,-0.28483055251489797,-0.05223258360608392,-0.8130640040106952,0.006142030047392271,-0.7381269269545558,0.7487885268215705,-0.4429721102570738,-0.13733863996467072,-0.7703789793143327,1.0639713536269466,-0.21850297170951238,-0.42242452810329273,-0.262087007364251,-0.3248707830133196,undefined,1498671242756
903d185fccf839df,0.09000967696431579,-0.5945364662566601,1.317726145012765,1.336216604080218,-0.3685582994764326,-1.8447445584198066,1.9349237034886784,-0.4033592977421979,-0.3743380167829232,0.48469700218672884,-0.18574421869540467,0.03505396736346313,-0.7477857620320856,-0.06051804129194227,-0.774969098278185,0.7629327587726806,-0.48919108041766535,-0.16500093592663567,-0.7555037598370625,0.993446470696256,-0.23931240890875843,-0.4386880985814467,-0.26429154663363497,-0.356713414063562,undefined,1498671244253
903d185fccf839df,-0.09294425092721219,-0.5804481355297392,1.7681622862250401,1.572261655010346,-0.5964996311438295,-1.8572479142440848,1.8879317008771128,-0.8183036304925747,-0.43166216920337286,0.26725948232928665,-0.16001178608238126,0.023152902027185108,-0.673803754456328,-0.11791973341532883,-0.8044428368095352,0.6861497207187195,-0.5283571920002709,-0.1868622569528628,-0.7678251436012621,1.0148965070472697,-0.24538466221868702,-0.4322450750283622,-0.2764399963267669,-0.4223591888520459,undefined,1498671245796
903d185fccf839df,-0.3216367211760892,-0.5111802780674384,1.7018094159631354,1.7305176353559961,-0.7314171180751293,-1.8710603030007855,1.932956613116676,-0.5916650629918259,-0.4405983024093452,0.14310547276787539,-0.20351407325928725,0.07477861770503304,-0.5388953877005348,-0.2197614515136475,-0.823390208072813,0.6134078029616649,-0.660355986499466,-0.24647425543934334,-0.7634381428573813,0.8872433989959005,-0.3009212046930267,-0.4436312778242563,-0.3501327015851458,-0.4819193015853586,undefined,1498671247243
903d185fccf839df,-0.4047975535744441,-0.45658776633018006,2.187335770603996,2.109669948923644,-0.775398757275273,-1.8152470715006683,1.9685694535222404,-0.28232887691483305,-0.4843909317688788,-0.17906610421983143,-0.23022777508854045,-0.07470178192124016,-0.6825075200534759,-0.21513227485644806,-0.8528639245174618,0.4638828188859276,-0.6690874066783482,-0.21646876522301078,-0.8074061017213099,0.7694760870649423,-0.3227144070465669,-0.44655817541354503,-0.3487668716760628,-0.5072366441458382,undefined,1498671248763
903d185fccf839df,-0.3673752290280285,-0.4653931082139702,2.6326678253240514,2.541203782264868,-0.6866949037829386,-1.810476790173241,1.9474126668493388,-0.34235142382517286,-0.5139031878500233,0.19956781352393532,-0.38467783535629607,-0.14941308710749382,-0.2908380681818182,-0.15773063453615968,-0.8254954535499391,0.6235108863511468,-0.5791517198835272,-0.20330257742718244,-0.7918871750439133,0.7823799797448207,-0.3053661779646629,-0.4368436729658952,-0.5140427738716242,-0.48458018307785766,undefined,1498671250253
903d185fccf839df,-0.3160925989724067,-0.45130471903106456,2.902546779805585,2.750188104551992,-0.6802560591933148,-1.8456110351026043,1.8596560430370133,-0.9261557243343891,-0.4755926523634219,0.3010340915204996,-0.41291448478643494,-0.12329810509309515,-0.3038937165775401,-0.19013476753035943,-0.8423376087850261,0.7306031180441107,-0.5525068379680171,-0.1293907907108378,-0.7704139634115355,0.9830525240721678,-0.24018124501593938,-0.3898724483738457,-0.27826363034072066,-0.40193301712228446,undefined,1498671251764
903d185fccf839df,0.5709567745209181,-0.4665670505262359,3.345964929159533,3.3811610965129675,-0.04211084156813645,-1.8168868570081764,1.9193079331403535,-0.19324665649545542,-0.30920611179543966,0.7376402086921261,-0.6250942545379836,-0.03967693610688977,-0.852230949197861,-0.12069724718011322,-0.798126997306884,1.1852398637755688,-0.42181242325283175,0.0028474062555405868,-0.7377458521376298,1.3868459640181185,-0.08249544426523052,-0.37909091990869803,-0.41238594270753465,-0.40682018886229715,undefined,1498671253262
903d185fccf839df,0.6513455458174318,-0.4289980614184748,2.950397717738618,2.8147707450992145,0.08395066373195846,-1.8252954103218897,1.9693583982276603,0.12272734385799203,-0.1343517399658505,0.5945973301306532,-0.36831767097822893,0.12640213329676148,-0.7608414104278075,-0.060518080144265914,-0.7233900613699976,1.1407864664501774,-0.33031069004129365,0.08523900309976998,-0.7023839705480242,1.4235250583517867,-0.0258608084401235,-0.28283431107897333,-0.2945783890788128,-0.3994101934912921,undefined,1498671254752
903d185fccf839df,0.43928530415796324,-0.4272371041080877,2.5376043414749367,2.4005326523619646,0.22155271789237707,-1.776355764658366,2.008403123773109,0.4617531257548649,-0.12269217254507787,0.3671650574683765,-0.2952850519997763,-0.07434104013701706,-0.6172292780748664,-0.018855516131020003,-0.6391794766126413,1.1367451765649415,-0.39318025846193283,0.10069138504142654,-0.626349626934685,1.5280035117010515,0.026831533005430928,-0.36088147776635626,-0.396132430021217,-0.5372181698384709,undefined,1498671256257
903d185fccf839df,0.08446562377145278,-0.4348682990836657,1.898954629656641,2.0467323586996504,-0.212009989130571,-1.7908645964055585,1.9388026740727737,-0.1872530175047933,-0.2730148263914737,-0.22535800280707516,-0.17435520526862464,-0.11580052234805942,0.057312555704099835,0.0524336800624158,-0.6476005321434835,0.9710554003896409,-0.3804094886762774,0.10864556026273775,-0.6061848179881013,1.4847800758314307,0.03205539055343717,-0.34966674036486994,-0.38576192243071167,-0.5632447106981217,undefined,1498671257798
903d185fccf839df,-0.051363817475329886,-0.44249949405924377,2.6575501199051472,2.5065088529549353,-0.3651640221864496,-1.7707702503585243,1.8091479759104432,-1.062450621971624,-0.3644237124664791,-0.214706024294894,-0.10518116839817765,-0.25838640705673566,0.549075311942959,0.05706290852271343,-0.6612847749894786,0.9468080567843273,-0.3886477930084251,0.08451070900144741,-0.6084307953744686,1.4737393919676842,0.024598137613659615,-0.3585761959377591,-0.46043960321002114,-0.5922383022014973,undefined,1498671259263
903d185fccf839df,0.060903397701784996,-0.4965048738864114,2.815777055300903,2.745072689434252,-0.20630142471555477,-1.787666552450349,1.8650076883716846,-0.6332484794762608,-0.480432536126992,-0.6169361335800194,-0.03948357980045265,-0.22935504811839796,-0.5824142156862745,0.056137005847245895,-0.6676005408697919,0.9548905234959129,-0.40115001267625827,0.06973594917635215,-0.6413577872622385,1.4410484844905407,0.008892840511816708,-0.43861983696991996,-0.5326265829872184,-0.5973391732947859,undefined,1498671260762
903d185fccf839df,0.3353342377809624,-0.4671540947523497,2.7475097713989918,2.632293036185151,-0.0811862001221078,-1.7972979576042434,1.8814334607085312,-0.5489081120333934,-0.35452628709732226,0.15354015939566018,-0.02386938149868988,-0.023772825054383304,-0.6389886920677362,0.08206038994725297,-0.6581268331514516,0.8316335562328285,-0.41255970716182216,0.06316868885846641,-0.6474240211056077,1.2990594200669308,-0.021701995184834164,-0.5096908474764594,-0.6345480297099617,-0.6197181619182118,undefined,1498671262275
903d185fccf839df,0.2701915437540025,-0.45776182555441514,2.8936146284442006,2.834625616304286,0.20360418163957245,-1.8284608480648037,1.8677163964144576,-0.5612359852361772,-0.17661852653923907,0.022759132585830386,-0.13923647033097067,0.06265169446198943,-0.7129706996434938,0.0977995698604918,-0.6865479563064726,1.1003743024805788,-0.3449600916347702,0.11243265773043527,-0.6828418774085581,1.5333775609901836,0.03654612589266944,-0.5566920627599327,-0.6325470910692502,-0.6254428887186105,undefined,1498671263756
903d185fccf839df,0.7594547901107188,-0.45776182555441514,2.775582247106199,3.0143557856498475,0.3960804224843936,-1.8322062641436219,1.8518271060792388,-0.6476384093608416,-0.20704817340660908,1.5026062070412036,-0.14314164120742603,0.16062848654346518,-0.14287405303030304,0.2774112718987626,-0.7128637603620295,1.0781476038178832,-0.27195446696556774,0.23493078732652126,-0.7094997268119958,1.6214566682429028,0.09893878969808964,-0.5001974221012012,-0.6107037390228457,-0.4897887584367384,undefined,1498671265256
903d185fccf839df,0.9410225321769824,-0.48300352892961945,3.1654074882918417,3.24393302251485,0.46082888142653344,-1.8545436676421696,1.9252512873969103,-0.18388530557516794,-0.15453517522067609,2.496613095111941,-0.17339283481363768,0.09449581373588822,-0.7129706996434938,0.1181678746278319,-0.6718110907219144,1.3226412325780923,-0.3647429627902913,0.2570074304531261,-0.7247597699271048,1.8248701312421165,0.12961984313083835,-0.5071613596310661,-0.49092449747780104,-0.4504480274992363,undefined,1498671266767
903d185fccf839df,1.02972745227361,-0.5722298963280473,3.0320628474771816,3.147221570749153,0.504491667971514,-1.8446280956489025,1.9639146982490219,0.06536114188146022,-0.2764666154371993,3.417234109850608,-0.1536273842955995,-0.011830091070081192,-0.8696384803921569,0.030213673550337012,-0.6581268626003868,1.369114992198886,-0.4161704880370817,0.2867722661188983,-0.6854167017313745,2.0026143936251337,0.17801455540145156,-0.42371366139003847,-0.42348423810167124,-0.48904514331245774,undefined,1498671268262
903d185fccf839df,0.8523177501019937,-0.5452272064144635,3.038442955592456,3.046004661019797,0.33807937904103114,-1.8157408701405582,1.8907824172594014,-0.40990672682729007,-0.3311406617898957,2.8074662063550866,0.0905173309054662,-0.09801244653308014,-0.6085255124777184,0.08391209169199167,-0.6791795382386611,1.324661651402938,-0.4140072894820818,0.3347759799686626,-0.6868160658029989,1.9576663313270362,0.19338815094068235,-0.3672342556960406,-0.4896859978111318,-0.34895959410450855,undefined,1498671269750
903d185fccf839df,0.5016559025776721,-0.6009936604639877,2.688813030875416,2.7648958874730685,0.0002868092244104245,-1.8187642234743762,1.7877676611807405,-1.2343826676045175,-0.3269941284377505,2.30553062297458,0.311678571864392,0.019912459274698494,-0.6215811608734403,0.05150785509159555,-0.6686531783328226,1.6459384878054373,-0.322969703299424,0.3623496151676141,-0.6910141538154511,1.8716506176084562,0.19117648431687664,-0.3330858840714737,-0.4386615675420446,-0.33286738284288364,undefined,1498671271288
903d185fccf839df,0.3644405860543126,-0.5047230546321185,3.009094712399143,3.02206351456066,-0.08844789600164395,-1.8147509442689356,1.828314010265301,-0.971517352795239,-0.35477461024048657,1.9038750764791292,0.24907570678333188,-0.037546019457916226,-0.517135973707665,-0.0058937852286928254,-0.6497058070695447,1.5166195857144993,-0.3403720176682686,0.314288906435923,-0.703454484135304,1.8279498315050906,0.15625994760683456,-0.3741527646700216,-0.4349153574805755,-0.3378746973501542,undefined,1498671272756
903d185fccf839df,0.3907748387204119,-0.4695021255168429,2.5956629441185104,2.5175209797643525,-0.20268084252162855,-1.8326954028227733,1.8770890259103488,-0.7364124857850661,-0.33118605628451714,1.8213321086900423,0.03939187033790014,0.01596165403934793,-0.5606548016934046,0.022807047882225907,-0.6802321315282889,1.4418569664853838,-0.32516937690968917,0.19803506172526852,-0.7093737864122407,1.6470334941661833,0.07373435953933144,-0.39546164565650993,-0.5737011116103101,-0.3447036034659383,undefined,1498671274255
903d185fccf839df,0.7137162132479601,-0.4325201514072031,2.4629566953208015,2.5275522521698295,-0.10930729085998753,-1.8401163585350586,1.8750430335780233,-0.6995198868418039,-0.28618039872425405,1.2732631416166247,-0.18122840267610063,0.0219310591470385,-0.6433405748663101,0.09317041910484146,-0.6897058245221617,1.356991405190394,-0.3284065026193782,0.14331842678018866,-0.6792875010433358,1.5871489350868422,0.043022541406258025,-0.43647303649916286,-0.5556011642275788,-0.3617145175167607,undefined,1498671275759
903d185fccf839df,0.4337414234921489,-0.4336941814034459,1.8791761674308156,1.8215940150002692,-0.41479249574324384,-1.8357117668873228,1.8195462392323742,-1.1998663429789447,-0.3206169928792573,0.6990479117663865,-0.07959095808195664,-0.14412706351057955,-0.691211285650624,-0.07070218072483778,-0.7760217431034495,1.292332010674368,-0.3788723475115543,-0.04347807906444469,-0.7306091079734913,1.2405145282723304,-0.11589993611055707,-0.5215569434205324,-0.529197283923943,-0.37714464464701514,undefined,1498671277253
903d185fccf839df,-0.21768551677744938,-0.3849719073313784,1.756039953737544,1.703092902017762,-0.5935476286738566,-1.8444650498441353,1.8589985775057964,-0.9997437893598087,-0.38339040051399165,-0.050509209924194505,-0.12957919077793467,-0.018263410972267816,-0.31694936497326204,-0.1540272569482314,-0.7697059330497334,0.9488288147858314,-0.490721272855319,-0.2130363142733203,-0.7283211496362252,0.9244306372367134,-0.2492113760215842,-0.5436620399386995,-0.48773463189393035,-0.5295033390318978,undefined,1498671278769
903d185fccf839df,-0.34658489153315325,-0.5305518022334366,1.3949255802760607,1.3994542170404276,-0.9234407895946081,-1.876298763039632,1.8903248298854443,-0.9943120419901154,-0.3231352876092665,0.15723956658065305,0.03776637884191934,-0.06237172267384958,-0.4083389037433155,-0.2456848356136546,-0.7265479811213232,0.9326638813626602,-0.4592403096844688,-0.31290683701256133,-0.7332049236893164,0.8297455969952364,-0.3119940600228118,-0.5402823376988579,-0.4211823411208581,-0.493547014333456,undefined,1498671280258
903d185fccf839df,-0.09571627752364369,-0.5094192330730742,1.7164835375597918,1.6585901337503681,-0.8791608631178118,-1.8780224005301824,1.8866562372933093,-0.9991216306888216,-0.315124732918712,0.2808449779750761,0.03850888441059858,0.03959510689952065,-0.5693585672905526,-0.38085657643086596,-0.7454953744713025,0.7730358421621626,-0.5413822309077717,-0.44631662894682383,-0.7491506555671567,0.7230805667754274,-0.39842705986423055,-0.5418037612012641,-0.39905208089708516,-0.5207517226777806,undefined,1498671281754
903d185fccf839df,-0.16917505133989805,-0.7025473282089686,1.5799492238929187,1.5583210073790443,-1.018778914890029,-1.9244185154537907,1.8411290477812565,-1.380544144584028,-0.26906071792580555,0.35991769262690515,0.07820472071283045,0.04680663649417022,-0.5867660984848485,-0.4067799216785494,-0.7297058787859475,0.4355944115131505,-0.6952878719086096,-0.4968345200523462,-0.7946369228439867,0.33376167802854695,-0.502905541921052,-0.5635264138060574,-0.4311575680742269,-0.5738748263405685,undefined,1498671283302
903d185fccf839df,-0.17749113112919254,-0.6843498778812017,1.6718225266159212,1.7676635540821644,-0.9801355546394201,-1.9138367811099048,1.8868245614753314,-1.0276937109869606,-0.3289787021775709,0.31854858656682267,0.021509376536072367,-0.06844510846879047,-0.15592970142602494,-0.42251908864101373,-0.6981269095019389,0.30829598477650116,-0.7978615707713645,-0.5046747039982942,-0.792027112968107,0.23308664205074553,-0.5262521399791202,-0.557462915409648,-0.41615666426525577,-0.584755065780208,undefined,1498671284788
903d185fccf839df,-0.5558731928597146,-0.4289981491024518,1.401305688391335,1.5232340236742754,-1.1676849545148758,-1.8278529147660985,1.8953740729623196,-0.8694766794858794,-0.395822041600323,0.13856217915689578,-0.02391366366308054,-0.16367540986520213,0.048608790106951884,-0.4651074646743053,-0.704442719555655,0.17493584932977035,-0.807559863351622,-0.5532547146375146,-0.7875911355268191,0.21798076756604393,-0.5547827974158941,-0.5328810445358979,-0.44491403287766984,-0.5402752081346963,undefined,1498671286255
903d185fccf839df,-0.5863655371785758,-0.4477826582703286,1.59589936711263,1.6566998735692324,-1.1087376229109236,-1.827310202263458,1.9078735345863986,-0.7592985780881537,-0.4382838543293442,0.25840755360462697,-0.1207320665573855,-0.10147780239799009,-0.6825075200534759,-0.47251407739164186,-0.7486532868603943,0.19514198784401268,-0.7901556427459031,-0.5268526730721108,-0.8130175456593092,0.2772185864305566,-0.5511290874126251,-0.5115208300565393,-0.43930739103087485,-0.5151860138157535,undefined,1498671287756
903d185fccf839df,-0.4713262954050294,-0.43193316563707407,1.2915678288086145,1.3628938086791504,-1.0484942954946492,-1.789599818950774,1.8935095276412894,-0.8058291262976284,-0.3946852351310639,0.04890049533852437,-0.08911578675020859,0.044014061723817235,-0.5867660984848485,-0.4762174161272465,-0.7560217122904396,-0.03722788431937497,-0.8877981574778595,-0.5020338667616551,-0.7857649671172567,0.12338811370276762,-0.5604709361067264,-0.4944142924747721,-0.47249712292671253,-0.44969592152599325,undefined,1498671289258
903d185fccf839df,-0.39786748708336533,-0.5857312705128316,1.1971419745656033,1.332118120529706,-0.9322453466976514,-1.919065922884899,1.8829403312843087,-1.0479355460351132,-0.2936655296031403,0.07128329292345068,-0.014204047228900472,0.07183282209998218,-0.3604681929590018,-0.49565994772686456,-0.77917963340584,0.07390549593521711,-0.8369152840100612,-0.47263634242713154,-0.8037327770937741,0.23165458410678905,-0.5345441726581237,-0.4664888145474964,-0.47175584593241315,-0.4480274154947786,undefined,1498671290752
903d185fccf839df,-0.3909374550976963,-0.5892533312735676,0.9406613741946209,1.0571737238267673,-0.7942421517290909,-1.9161613617338056,1.9127702197317715,-0.819865406864443,-0.34196520696377436,0.133813420223876,0.053337286156665775,0.11884265005833353,-0.8000083556149733,-0.4780691437735343,-0.9044429319767141,0.11229704322691925,-0.8157425459993495,-0.4472982336111865,-0.830110752777562,0.2586480558508736,-0.5260988813823526,-0.4613082532435629,-0.5004024306972192,-0.42641885619159686,undefined,1498671292246
903d185fccf839df,-0.4006394791743871,-0.48476455930998746,0.7569145146116661,0.884169890781875,-0.9491858886077195,-1.8952727439242876,1.8984062295470114,-0.9410212519648279,-0.28826574670984456,-0.291550110521676,0.05430128121295968,0.042339044608257145,-0.9349167223707665,-0.4706624533515505,-0.8676008195509551,0.13856497524540767,-0.828492822565443,-0.4796089122089469,-0.8107435806807627,0.28610348472779334,-0.5295481505857034,-0.47992871601478787,-0.48997448368097546,-0.46098845268029576,undefined,1498671293767
903d185fccf839df,-0.4311317717351336,-0.5287907426250762,1.0465714230451262,0.9920164286416173,-0.9478898931935008,-1.891014896273998,1.9427473923622653,-0.6354424776427976,-0.36349509205275854,-0.17710694974047927,-0.0203629256481239,-0.08482663928574223,-0.847879066399287,-0.4780691049212107,-0.8676008195509551,0.3588111756061385,-0.8393978813385033,-0.44181390426475836,-0.8104986917495434,0.4958765065444491,-0.4684476915237465,-0.47552692815465747,-0.5051520757292794,-0.47665322547781247,undefined,1498671295260
903d185fccf839df,-0.47271230870324515,-0.5017880380974962,1.2411651017664211,1.3317899239838704,-0.9025711102815498,-1.8573364265022652,1.9330249990057096,-0.664052694650868,-0.32417209443091055,0.013907674880052992,-0.06161000205489049,-0.014082739277808223,-0.6999150512477719,-0.4715882783223707,-0.8633902844233003,0.3487082900697073,-0.8485291150898074,-0.4880950553524856,-0.8131574796624664,0.48702239951085974,-0.49097889661872823,-0.5034516101666745,-0.49911681886468556,-0.49419658582588,undefined,1498671296799
903d185fccf839df,-0.37153316540644654,-0.4965048738864114,1.5748448832637496,1.666621495584825,-0.8458763538109711,-1.888254748196328,1.9447539334525488,-0.5807720395814758,-0.38270650034271586,0.011459124246534978,-0.1235984673503345,-0.058284229194139905,-0.5563029188948306,-0.4419616072898572,-0.9023376644128867,0.48813007769707656,-0.7420840864962458,-0.46504313963593896,-0.8107015995341177,0.6188946813856523,-0.45910898583415805,-0.4956056802149574,-0.44294803868126587,-0.48339151368060584,undefined,1498671298257
903d185fccf839df,-0.36598911221358355,-0.5440531471902285,1.8747102188185982,1.9567431222503222,-0.6933291783907556,-1.8704430552354945,1.8662857843777563,-1.026631650336018,-0.4243121527133926,0.039850339387436644,-0.2032622262695468,0.017041568165062308,-0.7477857620320856,-0.4336291177986022,-0.8644429071618633,0.43559432671898585,-0.6495643438322375,-0.43406871397013463,-0.8034808906543334,0.7105462321956124,-0.4273969369376116,-0.4771339073459889,-0.4018828709766022,-0.4748657596860329,undefined,1498671299763
903d185fccf839df,-0.24956389164723114,-0.4483696001984691,1.798787059315307,1.8278099444116307,-0.735366820464528,-1.8722552045389005,1.9519964142864732,-0.4595961325327158,-0.46105379995358525,-0.14428939150084577,-0.1702669604309865,0.11679213496479995,-0.5911179812834225,-0.3512298406444797,-0.8602323573097409,0.34264635524185355,-0.5948307111098097,-0.4267794951718133,-0.7945179753768914,0.851472806198946,-0.4009570362503469,-0.4610233457442736,-0.32688834128097305,-0.4229468493841394,undefined,1498671301257
903d185fccf839df,-0.26342399012397893,-0.5047231130881031,1.7062753645753528,1.7016091663369095,-0.7649587695218575,-1.8665555553732098,1.8832401377830994,-0.9119946059477625,-0.45748916272410556,-0.08045682263262773,-0.16919025950550357,0.02445809640287528,-0.20815229500891266,-0.2891989718638937,-0.8318112930525904,0.28606937090797013,-0.5029038846522964,-0.40251798796033467,-0.7766761080389735,0.82751282575764,-0.389220847869918,-0.4142023046271958,-0.2898874716431746,-0.4168595690054267,undefined,1498671302752
903d185fccf839df,-0.32025060436164426,-0.3597302624121588,1.4708492480532507,1.4536334544287248,-0.9678852865438429,-1.8181493064813445,1.8933385935587177,-0.8581940419882976,-0.4634861349374128,-0.18396620906954017,-0.09308554843397553,0.05045162470562233,-0.3125974821746881,-0.2577206249881906,-0.7676006728481398,0.4355943832484289,-0.5311582185358144,-0.36053690416233997,-0.7355628483614017,0.7537696701788158,-0.3707574415359912,-0.42795720935683484,-0.3099148898285435,-0.44654491622212944,undefined,1498671304261
903d185fccf839df,-0.3881654285012648,-0.4953309023461533,1.238612804383362,1.0953667447530613,-0.9773481268789889,-1.8126779227286514,1.867282467843977,-1.0480457382889654,-0.37798200245010666,-0.02111444129759404,-0.08425217802226498,-0.13616756618418632,-0.28213430258467026,-0.2410555942025824,-0.7676006433992046,0.409326422965219,-0.5799955298568379,-0.3776231859547936,-0.7334708020254993,0.660270311690632,-0.3944785993510061,-0.42172513934677763,-0.3483087194312306,-0.4275525826975142,undefined,1498671305757
903d185fccf839df,-0.22184355667209663,-0.5751650005466467,1.3024138855361065,1.2266530471377028,-0.905327674203108,-1.8227844924600998,1.9246674574101978,-0.6792023572574919,-0.4028178672186508,-0.03460493626447569,-0.06376473637895194,-0.0259717339124799,-0.9349167223707665,-0.11606804462136469,-0.7486532868603943,0.3830585474761736,-0.554225353152722,-0.25595467373556885,-0.7161327049911804,0.6684468888881475,-0.33121442782436356,-0.4597162343589827,-0.2823538527092518,-0.41539805365736354,undefined,1498671307258
903d185fccf839df,-0.2315457532758361,-0.430759194096816,1.4064097748835547,1.2915536591544412,-0.9517367421694409,-1.8003539182040964,1.9436651749156855,-0.46844529155695525,-0.41358012430198526,0.08886096206552745,-0.23708028903862546,-0.013721776499308565,-0.9088054255793226,-0.18643146764707844,-0.7139164125495276,0.32648153487756865,-0.5606901409567466,-0.25855118137967614,-0.6990884740014479,0.5129225871208801,-0.3448132895181665,-0.4708545719941537,-0.3923516391195295,-0.4678596376269457,undefined,1498671308790
903d185fccf839df,-0.25372189703646864,-0.47772036471853463,1.6131257860923458,1.671136601678708,-0.9057699625266349,-1.8457927159509622,1.9343451488217196,-0.5227017389584068,-0.37236697734690977,0.006214288539611246,-0.2270081707087582,-0.11580235436829182,-1.0001949643493762,-0.2086515000607063,-0.7128637898109647,0.37699675397192756,-0.5758222335228191,-0.22528422773849954,-0.6944705774036828,0.5443662127356597,-0.3227155929104107,-0.49791334798535886,-0.35552190072290385,-0.48820478741768375,undefined,1498671310298
903d185fccf839df,-0.3535150270350515,-0.3820368323407715,1.6137636698353985,1.7118786228490879,-0.7888113039488461,-1.8099969684718,1.967904109055851,-0.22541485454870558,-0.41140337997604,0.01920479118473989,-0.2869609070863607,-0.01766687718830518,-0.7956564728163993,-0.19568976915837913,-0.7770743511175449,0.41538821646946505,-0.5782324112015621,-0.21948958456712922,-0.746666785785179,0.560811751233761,-0.3312581999029722,-0.5370288843092472,-0.41061987131052063,-0.5142128871789821,undefined,1498671311756
903d185fccf839df,-0.33411080635462126,-0.3315535717303245,1.6794789104912,1.6811146402725294,-0.6612069459174561,-1.7796819193786308,1.9137984880751238,-0.5274696421606667,-0.37223106779230575,0.16564778021880125,-0.20328523335816212,-0.026200807923554705,-0.7434338792335116,-0.18365392798074492,-0.7654953979220785,0.34466702844919306,-0.6094792032455896,-0.2494000775277681,-0.752921934066637,0.5432267266148758,-0.3489892433639643,-0.5497922770723674,-0.5132169981959652,-0.4780367886548262,undefined,1498671313254
903d185fccf839df,-0.35628701912607325,-0.48946072313694705,1.6826688374803624,1.6811146402725294,-0.7233531278439925,-1.7694146337145107,1.9679041216261126,-0.2666173046166048,-0.4206815754959215,0.3215807502248698,-0.026368516810836747,0.05259202543554442,-0.7738970588235294,-0.18365392798074492,-0.7412848687925828,0.39114098592303764,-0.60780187627128,-0.26259793136524645,-0.7335967419053043,0.48027788090349166,-0.36268905205881213,-0.5011609734488979,-0.46340042402577164,-0.520500605588726,undefined,1498671314743
903d185fccf839df,-0.03195959679489962,-0.48182952816136904,2.448920457467198,2.389077808814026,-0.7137565776144317,-1.7199672144478437,1.8926522206160759,-0.584307960356279,-0.49465158430517026,0.8548935595918846,-0.14401887825137002,0.08232845105837407,-0.3822276069518717,0.058914532562804836,-0.7118111376234665,0.48408898566489145,-0.5621207287798431,-0.05501037157722524,-0.7058823751360912,0.44934240384035423,-0.24929665100899828,-0.356446523214666,-0.45340701315869497,-0.47167059788042764,undefined,1498671316282
903d185fccf839df,-0.04859179087889838,-0.4536526913395731,2.4935814684110684,2.6110141442711714,-0.7132422900938132,-1.7598065220373398,1.902924238706447,-0.5654707208412132,-0.46631145559055215,0.5164523617413777,-0.08932006529763699,0.1633734201546325,-0.21250417780748662,0.10983535923502781,-0.7454953891957701,0.5952224224489266,-0.5843375871727606,-0.02367496554725986,-0.7002779301988765,0.5386533885865749,-0.21721162468422212,-0.34674727890926493,-0.4695054327573002,-0.4747700416071393,undefined,1498671317759
903d185fccf839df,-0.14006877207736723,-0.54992326794345,2.4361604953735982,2.488196073793491,-0.6189018787374693,-1.8335805154235025,1.9409643793287827,-0.3982233192048292,-0.4001709316612088,0.2623360390671245,-0.1591279148283075,0.16899421104791382,-0.7086188168449198,0.08298624081962232,-0.7181269182282474,0.6679642554118166,-0.5345044647205658,-0.005638743111210677,-0.6948973829160966,0.5885597512338133,-0.19943732715348067,-0.35201784479056064,-0.4044094139487328,-0.4409987985310225,undefined,1498671319261
903d185fccf839df,-0.1733330912345453,-0.5270296830167158,1.6029176131079066,1.5634892125308297,-0.7953221497960983,-1.8728421701756737,1.9783917804579372,-0.31648306221550443,-0.35252140677750105,-0.5328594052704545,-0.11777468786463852,0.017554541527594114,-0.7521376448306596,0.12187129106808384,-0.659179514787885,0.6315933813274539,-0.4937618534684901,-0.024232265615153577,-0.6753412970051488,0.6051592791943569,-0.20078900435609456,-0.3449910096931208,-0.3879534533513246,-0.41419656115967496,undefined,1498671320802
903d185fccf839df,-0.13729671097552598,-0.46421901976174273,1.740090064654782,1.6864463195419708,-0.843747209620731,-1.8755021623881196,1.9836224710698684,-0.28360807904342966,-0.3731923082438453,-0.2453161828875332,-0.22409189570092589,-0.047434159994171485,-0.7564895276292335,0.056137005847245895,-0.6633900057421371,0.5386452967914355,-0.46754429153736377,-0.010838090263452851,-0.7015723415078788,0.675391590234563,-0.19533184732478873,-0.3351979547906526,-0.40909264590827804,-0.3679977417928239,undefined,1498671322253
903d185fccf839df,-0.28144226651701293,-0.3714706354445674,1.656510521276212,1.66990872198493,-0.8458660587815019,-1.854089466365716,1.9170016023116272,-0.6945493089755139,-0.4462240354056546,-0.3229884376452226,-0.2230123243188384,-0.05329453658089515,-0.5693585672905526,-0.07718304617600136,-0.7233900760944653,0.44569738184374624,-0.5792188711421355,-0.15765472132730102,-0.7316026538578649,0.735168355349349,-0.26547383551801923,-0.4459099844579147,-0.4816391345387699,-0.35421295899325717,undefined,1498671323765
903d185fccf839df,-0.4075695801708756,-0.3837979650191127,1.6533205942870495,1.692421452273607,-0.7957952872626705,-1.8471436765248281,1.9229738901676543,-0.6436958762550304,-0.5157720500588802,0.0018745531816430196,-0.21870366251528658,-0.10882656288949963,-0.8870460115864528,-0.11884559723847272,-0.7012847924420955,0.3608318770781995,-0.6232640774081715,-0.27054577520975676,-0.7475763723369204,0.7485188071474101,-0.32704131667497566,-0.4579124605990788,-0.47981743131406607,-0.3738357830915644,undefined,1498671325282
903d185fccf839df,-0.40063944466897733,-0.40845253648422625,1.553152769808766,1.6732026258665365,-0.6954068822147086,-1.8317590508072576,1.8644764748809195,-0.9692186346532518,-0.5942234303389271,0.3131785726213169,-0.2771902362758808,-0.0589419551352176,-0.8217677696078431,-0.07440554536199151,-0.6823374064543501,0.27596631578320974,-0.5077871087870919,-0.26766428693833993,-0.7163496047030823,0.6597313684289917,-0.33805987805480986,-0.3416193285169983,-0.42371644560508465,-0.3947870304241573,undefined,1498671326750
903d185fccf839df,-0.20382541830070158,-0.5986456004715022,1.7955971323261444,1.7484120442523032,-0.6946148895943227,-1.833450078313615,1.9194920031462206,-0.6544482414217432,-0.4964468731126727,0.5994335762823297,-0.1296834454369714,-0.0011878814829151003,-0.8000083556149733,-0.09940306563885469,-0.7370743189404604,0.18503898924869536,-0.5510442043744563,-0.26366819874152914,-0.715509987312242,0.5597492607596353,-0.35393708202108215,-0.32098807266410534,-0.5039933631373998,-0.43350240140622615,undefined,1498671328258
903d185fccf839df,-0.07076800365035041,-0.7025473428229647,1.8836423701799825,1.8091368387350955,-0.7289279725740444,-1.8638350038195177,1.969934311568416,-0.38537842049355214,-0.36070921153541186,0.9366604246664098,-0.06292682308602093,-0.03292670888350141,-0.8348234180035651,-0.07255389542035101,-0.7381269416790234,0.20322439802615516,-0.6108290791790484,-0.2389887177456426,-0.680448969538478,0.5777808388694581,-0.33091888706770706,-0.3087643403944683,-0.45770807007437503,-0.45571094205864654,undefined,1498671329759
903d185fccf839df,-0.0499778731879336,-0.6878719386419377,1.93787341622829,1.8345160816733672,-0.8198021061369734,-1.8876840844488736,1.9752964975911385,-0.41968317340625383,-0.2211596605794881,1.0019310578056846,0.09507322676412712,0.045206958583187073,-0.9088054255793226,0.08946700266458953,-0.7739164681773882,0.2193893879787693,-0.5057765573403487,-0.16879437033548336,-0.6781330242390898,0.6099481904105398,-0.2897188567705662,-0.2890123653829277,-0.4438634962101852,-0.46107508923533197,undefined,1498671331254
903d185fccf839df,-0.004239330830584569,-0.6491289487659262,2.2989877896897735,2.243582667240018,-0.7228285539861687,-1.887672438061154,1.9214170381370022,-0.7242927813633567,-0.20008783191052137,1.0787396256830755,0.08429429761816623,0.05384830343643231,-0.9262129567736186,0.08854125539841656,-0.8307586703140273,0.2941517810901126,-0.5025880883731817,-0.11602195000183955,-0.6675608437568292,0.5433961109283274,-0.2708006698875229,-0.31523377413307613,-0.4718721607566027,-0.4723752545284563,undefined,1498671332805
903d185fccf839df,0.15653845330031085,-0.5446401914163421,2.117154581335977,2.189445548931898,-0.6686640754781396,-1.8891841143203396,1.967438643794243,-0.39065826026026595,-0.22678893392287733,0.8852644567305857,-0.0015880532683491136,-0.008243036750060734,-0.9436204879679144,0.07002453581884423,-0.8381270883818388,0.2880899875858665,-0.5002051319721074,-0.08492719749815152,-0.6974162374803878,0.6198185950185943,-0.2548490114337276,-0.3194441390615749,-0.4619627408122801,-0.469530183810318,undefined,1498671334284
903d185fccf839df,0.2757355624414558,-0.48593858930623024,2.649256106423765,2.6055344090734347,-0.5847122200371455,-1.8906375595125506,1.9373326233642922,-0.551333917753618,-0.3217595025362986,1.1139953565060445,-0.05973341001457316,-0.030063593548286492,-0.9566761363636364,0.018177741717280992,-0.8518113165033664,0.40326460119625135,-0.5425846206865614,-0.006227705671751757,-0.7003688913889609,0.6097326133051258,-0.21566345105315862,-0.36856930783561287,-0.5118612913945826,-0.4390343111057186,undefined,1498671335757
903d185fccf839df,0.08169356266961154,-0.4542397940216715,2.483373295426629,2.5602402516946077,-0.6412424136152601,-1.8457018768677413,1.89056941732039,-0.8623794994478364,-0.20200760607007517,1.2872081958607946,0.15455503693306655,-0.008404256445414397,-0.9088054255793226,0.0996512198021323,-0.7844427986342916,0.46994472544905985,-0.5030650635995843,0.11270497705474936,-0.7109830533114854,0.6642585112825014,-0.152578142441412,-0.3425607164620985,-0.34747391416543744,-0.4393626197490946,undefined,1498671337258
903d185fccf839df,-0.04304773768603537,-0.5493363114013132,2.5242057332274364,2.6776824878174548,-0.5032906397579714,-1.857336427567783,1.9394943333341488,-0.5340697726844615,-0.21954198399072572,1.3182262815723693,0.3794999715246803,-0.016968670117847442,-1.013250612745098,-0.002190433542313632,-0.8023375471590064,0.5406659699987749,-0.5664887268830339,0.10675200998139085,-0.7398518949397189,0.721325151358434,-0.14779722828847802,-0.38553937427060914,-0.48701064020909457,-0.4298180675240284,undefined,1498671338768
903d185fccf839df,-0.022257538212799084,-0.564011686354348,2.2690014086164583,2.327926184911479,-0.4854243871429693,-1.8596283988530535,1.972948090954516,-0.3228602022383629,-0.18956301257260913,1.2750872263323865,0.3785959452817061,0.011986216377708572,-1.02630626114082,-0.039223820898360094,-0.7465479972098655,0.5123775343612763,-0.5432833817889468,0.038742529081165,-0.7745001020707031,0.6777321515730321,-0.20493828557767968,-0.36544362337785585,-0.430930659498027,-0.4066715294482075,undefined,1498671340257
903d185fccf839df,-0.18719325872211254,-0.6033417204564733,1.849189532220551,1.946546608140522,-0.5512837030737089,-1.8735409441463637,1.9446934474491244,-0.5100146051305461,-0.24883292560964757,0.9204717955339352,0.12097845917414052,-0.052767898835817055,-0.9044535427807487,-0.11329054380735484,-0.7560217049282059,0.48408895740016994,-0.5956788243356204,-0.030679200606665475,-0.7887735947787958,0.6539261558688972,-0.24779787919521054,-0.3625067880266925,-0.44270214967614396,-0.4202070787915471,undefined,1498671341760
903d185fccf839df,-0.09017218982537095,-0.5669467321169626,2.08397801913655,2.2113882744403406,-0.6803280615632327,-1.8783461641549293,1.8926206598319468,-0.888719001800781,-0.3223050826775671,1.043228506522303,-0.04687611298455097,-0.053618197466128927,-0.852230949197861,-0.11884557133692362,-0.7918112240643369,0.4962125444086621,-0.6388768064889636,-0.07880957159146446,-0.7879829546542492,0.620927287667912,-0.2763991828404759,-0.3676008011666533,-0.43296636774782127,-0.37138661049638066,undefined,1498671343254
903d185fccf839df,0.05813137110535349,-0.5182244872728874,1.8645017916972098,1.961615653758306,-0.6053350431254121,-1.8755394312421632,1.9291723259324889,-0.6071126042955403,-0.3687829855092672,1.2104888922905181,-0.10917225267206257,-0.061454091685940876,-0.7303782308377896,-0.18550559087316,-0.7444427296460381,0.4133676845857333,-0.6481750697744133,-0.10206414030976795,-0.781685825287317,0.6103947518980892,-0.28948161816779633,-0.4077645119789525,-0.43147872721696773,-0.38290523655902503,undefined,1498671344750
903d185fccf839df,0.5432365085566031,-0.4853515596941127,1.7177593050458972,1.7726375199533089,-0.19623172991957225,-1.8623140115058896,1.875716249908814,-0.7637416872338203,-0.4479038621105287,1.3894669942514297,-0.13950889846209602,-0.09486761238873584,-0.6999150512477719,-0.19846726997238898,-0.7528638072635816,0.6396756784507103,-0.4664682418234918,-0.1855133388810018,-0.7373330410605385,0.9200574895940519,-0.25447266446006706,-0.28723878549459597,-0.5856467858231559,-0.3927806800784112,undefined,1498671346245
903d185fccf839df,0.15238027538402465,-0.6027547054583519,1.2335087178911424,1.2565934986613303,-0.29292756561565214,-1.818351949979804,1.8848258980108183,-0.7284288314142736,-0.45245110922619713,0.45445787404461563,-0.09078015633910164,-0.17393916169867002,-0.1646334670231729,-0.361414070732797,-0.7939164695414629,0.847798348332392,-0.4601400409128241,-0.33072773794065613,-0.7817417987894836,0.9312521541428144,-0.3186816917556416,-0.24637366667770547,-0.7144175306380822,-0.4127245551848839,undefined,1498671347761
903d185fccf839df,-0.10264634401472246,-0.5522713279359356,1.0184986932009692,1.060933651895223,-0.8053712770410046,-1.788428211566657,1.8729234167001727,-0.9595935531938128,-0.39190041592060304,-0.3242543129835071,-0.026520607480792442,-0.18731084827936895,-0.517135973707665,-0.41603821023907556,-0.8581270750214459,1.0114675643592395,-0.43639801920305715,-0.27817697099006766,-0.8422082391136582,0.9645281903635269,-0.3031298670241793,-0.27490204998989337,-0.7275507057118779,-0.4419837944371583,undefined,1498671349239
903d185fccf839df,0.09000964245890605,-0.4683281539765848,2.5165498576260563,2.5906696193636747,-0.6244458731081589,-1.8531787336589303,1.826183867888465,-1.1960593221277338,-0.38134192597295374,0.693071363002919,-0.23334112104817145,-0.02311646789030455,-0.7390819964349377,-0.25586901389887373,-0.932864055131735,0.9973232758786862,-0.5091498709823616,-0.21795701171551055,-0.8962026293646722,1.1508801806546871,-0.2560643779208098,-0.3996110422691971,-0.7257165954521717,-0.3116053656204408,undefined,1498671350741
903d185fccf839df,-0.0014673042341530646,-0.589840346271689,2.4514725007133076,2.557121552312718,-0.4516461582526867,-1.8692388391102888,2.0155114903917575,0.06400370940077428,-0.309868444301703,1.054497358735884,-0.27731896823701413,-0.0768856671440901,-0.8565828319964349,-0.05403722764387687,-0.7865480735603528,0.6578612568164992,-0.5606830912212971,0.0977845598406642,-0.7950427364923782,1.236557133204483,-0.08853498955031697,-0.37179279314873315,-0.4490776017633861,-0.2765920656040241,undefined,1498671352268
903d185fccf839df,0.18841665564304394,-0.5557935056086408,2.5478122603224267,2.593371710904104,-0.4272896235585234,-1.8079775193411092,2.0137653113671146,0.18258805163838757,-0.362344210287094,1.386451932969119,-0.3921427938596629,0.01096997297003574,-0.8565828319964349,0.05521115497487655,-0.7833901464467934,0.758891638475774,-0.5013335391894074,0.14055092975091518,-0.6990884731756446,1.318476864688441,-0.032226217496815014,-0.30337810327264236,-0.4390320857728185,-0.27407951447186973,undefined,1498671353734
903d185fccf839df,0.5432364395457836,-0.4970919765685098,2.283675784350064,2.3808917319232186,-0.30269898662449496,-1.7518964257391152,1.9524908207420846,-0.05672449902327239,-0.5281400118378324,1.569850090040054,-0.5817013489879195,0.06718536496451831,-0.9305648395721926,0.1820504451531566,-0.8444428837110873,0.9973232758786862,-0.2834651633139826,0.18022049151511138,-0.7039092748114236,1.4802837250627692,0.01315131193995806,-0.2832020774779246,-0.28174178028288366,-0.3601689247316059,undefined,1498671355281
903d185fccf839df,0.40740699829900096,-0.5458141921845926,2.2600695113920235,2.2676412578180947,-0.19515173703591493,-1.7681149177643285,1.9224110883953134,-0.2745183192572028,-0.3581508695285543,1.3352140216605628,-0.5246934212018081,0.045629489092296596,-0.6868594028520499,0.15612708695469862,-0.8318112488791876,1.0902713604147047,-0.254031592203653,0.14898008031578014,-0.6636426287483308,1.6555334349351616,0.03711898764752575,-0.20294506982903987,-0.17842793931929654,-0.32183101416308435,undefined,1498671356744
903d185fccf839df,0.22306695359302803,-0.420192836446654,2.143313151677077,2.168620091788265,-0.2613607611405232,-1.7596784139596373,1.8797898335437524,-0.5797710924278836,-0.343959576037365,0.8970315336091685,-0.5372315924232732,0.03509257379243225,-0.7086188168449198,0.1181678487262828,-0.7539164300021446,1.1771572274756539,-0.20747450229735093,0.16312154352524982,-0.7016353116251761,1.7142323107668933,0.044318917860552094,-0.2174968738031935,-0.015561810129556581,-0.34683384628996633,undefined,1498671358242
903d185fccf839df,0.017936847435457735,-0.46245803322336326,1.7968728998122498,1.9522606004664378,-0.402038240595934,-1.760563523548647,1.905375213963282,-0.4875724412028509,-0.48109422623016596,0.9994830589777628,-0.4437434999226693,0.021990030222948376,-0.9131573083778967,-0.02163296514193166,-0.7497059095989573,1.0619827834535982,-0.35580438171079165,0.09047001207472279,-0.7046999148013947,1.5982050305890982,-0.0027108037392926075,-0.3067049215658624,-0.20328321379924968,-0.41603721060834026,undefined,1498671359819
903d185fccf839df,0.09832568774279084,-0.4466085405901088,1.6686323454898093,1.6096686179142918,-0.4520472936834278,-1.7425049323768769,1.9390814416200945,-0.257826242886432,-0.5080856222399639,0.9886409294048275,-0.4206221112445707,-0.09979363571963537,-0.8043602384135473,-0.034594644241160655,-0.7781270180295107,1.0134882093018573,-0.4017128233115743,0.10428849505698534,-0.7189664126377192,1.5842232394852573,-0.009458307955126127,-0.2714129543987634,-0.15336774762524055,-0.39866479421566864,undefined,1498671361281
903d185fccf839df,0.11911592172143685,-0.4436734655995018,1.8121849051519592,1.7504633357567154,-0.5605922555606548,-1.7377765767238524,1.896623221227377,-0.5627407326264405,-0.5746268592395964,1.0473765127420411,-0.3609956789269448,-0.06500667809371112,-0.6259330436720143,-0.0790347349699655,-0.7160216727511213,0.9670142235632911,-0.3902365854909464,0.04967952013781132,-0.7368712513958684,1.468380732629281,-0.057077348599939605,-0.2902707789850188,-0.17757068680699856,-0.3663824949313212,undefined,1498671362765
903d185fccf839df,-0.11096249281483643,-0.4143227156934325,1.554428283157922,1.6008732438541033,-0.6766149169702719,-1.7343572523397377,1.9110740069729382,-0.5067977805239349,-0.4774521695773132,0.5320966739937658,-0.34274472317722277,-0.17579781574676745,0.0007380793226381577,-0.11236474473808368,-0.6833900291929131,0.7346442948704605,-0.4798519458086792,0.06622116867988595,-0.7158948124915802,1.4037534587470808,-0.06208623553631423,-0.28729407790709616,-0.19824578383930924,-0.3525067038321382,undefined,1498671364253
903d185fccf839df,-0.18442123212568104,-0.42606304488385255,1.8498279242375026,1.745461139531298,-0.7635496272051125,-1.6992043745530896,1.9333642368436277,-0.3176178894397367,-0.44319815517583616,0.15824036982039685,-0.40162532913346854,-0.11390662782391604,-0.42574643493761144,-0.047556401045036924,-0.6739163582857418,0.6800878989497519,-0.4729183137321213,0.08860812495595978,-0.7449875523125499,1.3063890869382162,-0.07276124756279574,-0.2948653286171426,-0.3004424205386118,-0.4347074273989021,undefined,1498671365774
903d185fccf839df,-0.2218436256829161,-0.4066915207178544,2.080787838010438,2.0131981446035208,-0.8196786810713711,-1.7240457109098546,1.8859593556120309,-0.6457257012867484,-0.39949563544070277,-0.26173473543250964,-0.457838720218993,0.04372150597882476,-0.321301247771836,-0.04385307526020683,-0.731811146349775,0.7932418676175188,-0.46815571924415744,-0.003947847592280326,-0.7498293470357635,1.1636454949721404,-0.13909487245023716,-0.36782901113879574,-0.426994872544485,-0.41442817645462987,undefined,1498671367323
903d185fccf839df,-0.21768551677744938,-0.3896680565443419,2.1433134058140264,1.9954521926442503,-0.6876206173126082,-1.7257483850648745,1.7959331993640784,-1.1630074008893538,-0.46437767502339905,-0.1432987802075526,-0.528390625027389,-0.031266089173828705,-0.10805899064171122,0.024658620119219127,-0.7865480588358852,0.6740260206513411,-0.4706680228933752,0.0481659453199448,-0.7382986026804143,1.0633708179701384,-0.12993114763408228,-0.3457007646696879,-0.4226723362713619,-0.3670161975059906,undefined,1498671368779
903d185fccf839df,0.15653838428949138,-0.4442605390536079,2.2077523707098234,2.363950676520771,-0.5456677151353939,-1.764423072278921,1.8996001608432675,-0.498981999844443,-0.5777450822220611,0.3570004478690226,-0.5670733805462992,0.0636823281676801,-0.3996351381461676,0.07002453581884423,-0.7612848627944238,0.9023547725178221,-0.43332944684684355,0.0889817680017459,-0.7586313345986732,1.2048363340908166,-0.09404707350948792,-0.39044454828518105,-0.2828052458775262,-0.33652226037626276,undefined,1498671370248
903d185fccf839df,0.06228944550541048,-0.4243019998894884,2.0233668649729677,2.054740937806554,-0.5275545997959072,-1.7667150444448745,1.852492445308019,-0.8447096750791726,-0.5291769874813138,0.19079938362169555,-0.43718585481803635,-0.09422789514837959,-0.4866727941176471,0.13390708044261984,-0.7760217283789819,1.0640033718667732,-0.41139614888933995,0.09546036930620456,-0.8057618532083892,1.2681393462687462,-0.07727152817601152,-0.3757054532323106,-0.2827607746588464,-0.36075784573380393,undefined,1498671371762
903d185fccf839df,-0.008397336219822091,-0.4976788746546618,2.0291090893451895,1.8654463424881345,-0.6233247230746072,-1.7952691881593026,1.9041050272705158,-0.6053838981538711,-0.4399298016526425,0.03620215604274988,-0.3823676051536172,-0.0401079919954624,-0.8391753008021391,0.2024188017235949,-0.8002323016818804,1.2276726444230637,-0.35003301062076975,0.05523984428238494,-0.8185100423687784,1.169127338966255,-0.11025711335861223,-0.40981647099814955,-0.27787170877784784,-0.33986169098435987,undefined,1498671373266
903d185fccf839df,-0.22322963898113185,-0.5886662870474539,1.7215876240520114,1.7376071701760472,-0.8072535555920005,-1.7703859273775813,1.8678899739182764,-0.8968870185144454,-0.3621486975888514,-0.5150410349438009,-0.25889980792715844,-0.05118076147525561,-0.8043602384135473,0.1218711745111129,-0.8181270354821276,1.059962166775702,-0.4320746067490318,-0.01063543517437313,-0.8674807212480966,0.958245632146873,-0.18321671281775284,-0.4422899197278492,-0.26145152302514785,-0.37638111513989464,undefined,1498671376610
903d185fccf839df,-0.26896804331684193,-0.47008914051496425,1.8300497161486264,1.7205956495084902,-0.8838922834434262,-1.7892760572142412,1.9486197607806963,-0.42257390205204437,-0.3790334974733384,-0.28490142229904286,-0.22263156185574734,-0.11523191590537989,-0.7782489416221035,0.0959479717219495,-0.8265480762885021,1.132703999738592,-0.38820960628355583,-0.022307049436109855,-0.8759958400972468,0.9701332293389442,-0.19232960180481526,-0.42560417591565614,-0.22832574034475706,-0.3902095207185723,undefined,1498671377761
903d185fccf839df,-0.052749830773545635,-0.549923355627427,1.780284364575587,1.965951368016724,-0.7737119036971558,-1.8118091177946865,1.8793611876256788,-0.869318256463449,-0.43220336077406235,0.04392099119725817,-0.22943087787392896,-0.19477723662107077,-0.678155637254902,0.04873043198223298,-0.8276007358382341,1.1832192753623938,-0.419350623956634,-0.001541326830034931,-0.9011143905144606,1.0132334752352417,-0.1840212300319216,-0.4861383062921851,-0.18363608232389003,-0.4691604734929327,undefined,1498671379257
903d185fccf839df,-0.0375037189985821,-0.4965049031144037,2.1624537301598497,2.1321916930285663,-0.6426824142434381,-1.8390728615848342,1.807777868732559,-1.3318999385061034,-0.4761018599170193,0.7026357298812066,-0.2050100684071521,-0.11410765442012162,-0.673803754456328,-0.018855464327921814,-0.7991796715810835,1.154930726666009,-0.3824139278906167,-0.007348634748207012,-0.8939286664842777,0.943663300499406,-0.19470252611211306,-0.4053178761687111,-0.2923937284636131,-0.37529821168254784,undefined,1498671380764
903d185fccf839df,0.400476828291693,-0.4612839447711358,2.5599343386729734,2.3199130051532246,-0.44015703507882603,-1.8636370177593455,1.9184979599586809,-0.5475525431217297,-0.4354830082776545,0.8127436732765871,-0.28026650306736184,-0.15650239001411473,-0.7173225824420678,-0.07718305912677591,-0.77707438056648,1.2600024264752412,-0.3650359800369922,-0.013029284828187545,-0.8148786968203209,1.0582277345793911,-0.16717949360311277,-0.3977626602549829,-0.24135772593753008,-0.26803873678587326,undefined,1498671382256
903d185fccf839df,0.34642237867209813,-0.4859386039202264,2.092272286754881,2.0285672843642164,-0.43858332102531356,-1.8499364317928777,1.9878433098191075,-0.06980057220859451,-0.44168131796837773,0.6931883262686652,-0.31285114558262095,-0.027474903626527894,-0.8391753008021391,-0.03922376909526191,-0.6960216566625791,1.2054459174956464,-0.2722240052770589,0.044866486862953005,-0.7372910610333158,1.2108879186547956,-0.10314077397777106,-0.3585779826485304,-0.168029068192017,-0.18155037646092143,undefined,1498671383828
903d185fccf839df,0.24801529647714077,-0.48241654315949045,2.0801502084043344,1.9438798938999773,-0.5165077561072715,-1.8296464295256016,1.9380742305598448,-0.4062114252560907,-0.3621874088716085,0.6104542544588184,-0.31184011200146355,0.04480395872793937,-0.9218610739750446,0.012622817793908577,-0.6770742412258984,1.1529100534586696,-0.2510651804312192,0.09653064126130996,-0.7122914564254738,1.3501360589543039,-0.04963718668276953,-0.3368365596699598,-0.19151069041544153,-0.17299132671148096,undefined,1498671385287
903d185fccf839df,0.16624051188241137,-0.43486824062768104,1.83068734575473,1.9239442059173584,-0.5579282633165481,-1.8063330745718826,1.9170804786076665,-0.5409728857713302,-0.4505812240367193,0.6392399153423525,-0.3487677365872449,-0.08897307108223929,-0.9479723707664884,0.024658620119219127,-0.7433901289941764,1.1064360111906604,-0.32179840525741915,0.16545206509323698,-0.6958699405455139,1.5410305874346266,0.013357434989387499,-0.3561628719927673,-0.24318839165232542,-0.199644872025257,undefined,1498671386763
903d185fccf839df,-0.020871455903763863,-0.4589358555506579,1.8389818675100107,1.851003145956016,-0.5788699447194516,-1.8312442877119566,1.972990144240694,-0.23504036977260168,-0.43817428078884557,0.6117228314863156,-0.33512466499002513,0.02107779467003013,-0.9479723707664884,0.04965617924840595,-0.7402322166050846,1.0963330691247861,-0.36695514809805596,0.12178642008200914,-0.6734241710206851,1.6201786019557445,0.014551997259352377,-0.3615289783226748,-0.23930190212299185,-0.2419048226275673,undefined,1498671388281
903d185fccf839df,-0.2634240591347984,-0.4700891697429566,1.789216515936971,1.7298448872545347,-0.5414402901616742,-1.814452802239796,1.8870296819554087,-0.7843941541911306,-0.47030240924373795,1.1306989373083889,-0.2748762169061621,0.0004695820852144966,-0.7695451760249554,-0.022558919620497386,-0.7223374533559022,1.1569513433439054,-0.2968518609898885,0.0469056937747667,-0.6752293483247408,1.5286810393562313,-0.03406205606739839,-0.35324730184791847,-0.18244835142668756,-0.17890233952665038,undefined,1498671389780
903d185fccf839df,-0.026415509096626873,-0.506484216538452,1.4083236802496624,1.3893104737314352,-0.5124346225046696,-1.821675773561311,1.895331976203987,-0.7469920918688978,-0.48090306746275674,1.229990416074775,-0.21495555216671383,0.007013052909610051,-0.7434338792335116,0.004290393056526316,-0.7044427342801225,1.0599622515698666,-0.3470884374225755,0.0333975238976797,-0.6890340558112842,1.5177943417239728,-0.04672320095047421,-0.42000132708615184,-0.17317099576767622,-0.19064607860930216,undefined,1498671391254
903d185fccf839df,-0.027801591405662095,-0.5657726728927275,1.3930114207730036,1.3762996845716249,-0.6309875678763984,-1.7812285344100127,1.9248383962066171,-0.5161191098386132,-0.4146244821624861,1.5106281918996889,-0.23596305579328533,-0.012698904236345756,-0.7826008244206774,0.01077114195071898,-0.7170742660407492,0.9225608262378998,-0.439892133248121,0.05411258261106208,-0.7399078678668818,1.4191211016483045,-0.061683395779608824,-0.43675266288027187,-0.20841628643010357,-0.20662414292168532,undefined,1498671392764
903d185fccf839df,0.015164958860665167,-0.46774110975047106,2.200096240971494,2.14884632843823,-0.6751543502433959,-1.721786351824529,1.8592484114536474,-0.7850501854994025,-0.3822489212012752,1.3077924778100622,-0.3389616337450569,-0.10097138647484748,-0.8826941287878788,0.11539039971537114,-0.7549690527407077,0.8659838419040163,-0.354014158323875,0.08404841041926027,-0.7903198898479661,1.2533722378396468,-0.08292089032459099,-0.430142606481259,-0.10940221226555794,-0.2793074622235171,undefined,1498671394248
903d185fccf839df,-0.05690783616278316,-0.42136692489888145,2.300264065449778,2.1155080733655764,-0.656640101607724,-1.7277002888436692,1.8464254756233653,-0.8549684376583999,-0.28548656552020835,0.5798816556405463,-0.3278048173636162,0.0893095429751353,-0.8957497771836007,0.019103696195846714,-0.8044427926361325,0.7932419241469618,-0.4325811914132031,0.03399915654236816,-0.8119820164139145,1.2044513794704172,-0.11806027629547743,-0.4538283270173606,-0.17361602933924852,-0.3458063451871433,undefined,1498671395776
903d185fccf839df,-0.14699880406303625,-0.3168781383213051,2.2122183193220413,2.1620699180654253,-0.5433019996912113,-1.7644440365581053,1.9086046147116829,-0.4717184189229752,-0.3704276777703274,0.49816729584580066,-0.3266592120595758,0.022911219282479793,-0.7216744652406417,0.1348329313149892,-0.8023375471590064,0.7790977487252948,-0.3263130036129112,0.07881106702234027,-0.8150116358599541,1.2563441426572117,-0.08744479610081661,-0.44399775740533065,-0.08676737359460333,-0.27208196463961654,undefined,1498671397306
903d185fccf839df,0.23969918218243652,-0.40551749072161164,1.7496600997592189,1.6673345787854696,-0.5170940433891286,-1.7879414004826903,1.9482568321898859,-0.31022062767194536,-0.35049699768328074,0.5730136667309252,-0.2095573383743467,0.008332167514776724,-0.8043602384135473,0.23019388756834064,-0.8339165385297164,0.7972831575027546,-0.3381999202184763,0.12617515280216465,-0.7926778151684598,1.2912062211147957,-0.05037828937590746,-0.45007616493857283,-0.1581156816300064,-0.3157361617183784,undefined,1498671398758
903d185fccf839df,0.22722516601472395,-0.41667077568591804,1.585053310385138,1.6160610566399156,-0.5901019154827498,-1.7966387807741004,1.9608983084386107,-0.26310801888196317,-0.32559727714101944,0.5558331803414509,-0.24281201135301103,0.06128132312282058,-0.7738970588235294,0.25148799140495187,-0.831811270965889,0.6800878989497519,-0.33888848740730915,0.12940495380080125,-0.7893053521240384,1.2425779289684178,-0.056086179153190925,-0.4061413978906577,-0.1924325712142952,-0.322823406190067,undefined,1498671400256
