UUID,iqrAccX,iqrAccY,iqrAccZ,iqrAccXYZ,meanAccX,meanAccY,meanAccZ,meanAccXYZ, covarianceAccXY, covarianceAccXZ, covarianceAccYZ,pressureDerivative, pressureIQR, iqrGyroX, iqrGyroY, iqrGyroZ, iqrGyroMagnitude, meanGyroX, meanGyroY, meanGyroZ, meanGyroMagnitude, covarianceGyroXY, covarianceGyroXZ, covarianceGyroYZ, class, timestamp 
903d185fccf839df,1.3949425084400164,-0.08852909945613907,0.7336266752512529,0.619925488123905,0.006562384640535443,-1.6415624057996836,1.9303966839395923,0.05955766321286494,-0.2305839854319574,0.7662734114375139,-0.19343472493137442,5.611204095704641,-0.9827874331550802,-0.34752657961352235,-0.6476005211001328,-0.15846431969872746,-0.6539321218314305,-0.5542108173089582,-0.8251210810798983,0.2012988427776466,-0.5781034157910997,-0.2919361801132152,-0.6154973291715177,-0.4608427016402207,undefined,1495339202902
903d185fccf839df,1.0844752190910003,-0.2690363575184274,1.2277666205873954,1.3799881284875113,-0.1612766359153811,-1.752082379366043,2.0153407739754856,0.3435176661954118,-0.20435968249970834,0.970449914790367,-0.09032194811268092,-0.9205363251930507,2.0047801080659537,-0.061443827410438884,-0.17286308301767336,0.9750966337454336,-0.0788307696742328,-0.23965651734967955,-0.41803188945356656,1.15323562291075,-0.16345833361374557,0.05100661656515174,-0.040180590669177146,0.4682046959484971,undefined,1495339204358
903d185fccf839df,0.20158385098691306,-0.25847008755224243,1.8424907363706997,1.7904627454483546,-0.2682486276858776,-1.7229083217727057,1.9685859650754867,0.05302870004503112,-0.21541390313215342,0.5506384599212742,-0.04020374273080376,-0.6182840287152231,2.988305620543672,-0.18457980475466337,-0.5528636022047563,0.7487885833510136,-0.44832731116070845,-0.28094394117420424,-0.605186025701141,1.153007741540134,-0.23161652382720607,-0.15817648044184612,-0.20064290877138274,0.08945039827186181,undefined,1495339205905
903d185fccf839df,0.1329761582198236,-0.253480489296203,2.2543270328828524,2.092862341229189,-0.2467447837823732,-1.736341765849484,1.871450722570444,-0.5660882927299232,-0.3551916523959339,0.3815405743596188,-0.08362092927745919,-0.4481386021454731,1.3367660984848486,-0.32530650834757086,-0.6949689971128471,0.5628925273378629,-0.5890820981408976,-0.36143398590814035,-0.7126575760745734,0.9117222200575826,-0.3409236834905079,-0.19994447228615314,-0.2682481033911341,0.03520106592845423,undefined,1495339207399
903d185fccf839df,-0.22600159656674387,-0.24761025163101208,2.2045624437206612,2.183336635363151,-0.7521222225586147,-1.7216279603081566,1.9095960579501299,-0.4481813749945976,-0.44747757956495976,-0.34224453436986996,-0.06922491505763294,-0.12558620787511396,-0.6476924576648841,-0.3030865018354921,-0.7686533103111703,0.46590349209326704,-0.6311096717776328,-0.36078438478526487,-0.7583669868873184,0.6452159303575841,-0.3985795413182944,-0.24942666481621228,-0.3608868216688839,-0.030861010805017512,undefined,1495339208863
903d185fccf839df,-0.5184507130389552,-0.25876362427929545,1.208626677446996,1.12530852362086,-0.9875721122338775,-1.668749571920484,1.8724184975777185,-0.7041237724558983,-0.6189647457523748,-0.5421460850194193,-0.02756351649814706,-0.006495683976563365,-0.5606548016934046,-0.28179229439268444,-0.8286533733012648,0.42347071144577214,-0.5456144474305598,-0.3964066985463279,-0.8157672925907599,0.4136334137641589,-0.47236471535633023,-0.2705086935726735,-0.35066525711784424,0.0017761555806957553,undefined,1495339210351
903d185fccf839df,-0.6099277459955387,-0.36794844315786585,0.9527839608190665,1.0044892372832803,-1.349186361941037,-1.6031185995756685,1.8924234371424347,-0.5939916406869372,-0.49456016726343416,-0.4121190458993928,-0.03746945795503632,-0.05812320491109628,-0.45620961452762926,-0.4289999540921773,-1.0223378345664782,-0.0028775845158263745,-0.7163587053562405,-0.5109949805758015,-1.0036176705979458,-0.05307807096359053,-0.656328385261047,-0.44573700675053446,-0.5271213345836951,-0.42685879482934497,undefined,1495339211925
903d185fccf839df,-0.7762494970557727,-0.42195393989700286,1.0491232121542866,1.0576062037612874,-1.305215008872045,-1.5132402468941222,1.8677847843985351,-0.5801709318272674,-0.5477551167619846,-0.26151428545699784,-0.11546448241384495,-0.08781610832630378,-0.012317569073083769,-0.526212437254811,-1.0591799727600553,-0.4575143443796451,-0.8092999382995542,-0.5812906549629924,-1.047207801876397,-0.3936916842623732,-0.7635061213717557,-0.44271783130882564,-0.6503155408635528,-0.48482367175902474,undefined,1495339213404
903d185fccf839df,-0.7499151926315589,-0.3450549166871164,1.109734620454818,1.164943368298496,-1.2615625094344702,-1.538736098723159,1.8153674747197495,-0.9305408120206122,-0.5277565038952172,-0.3065760208996646,-0.18274547918613968,-0.23740558130816725,-0.7738970588235294,-0.5678749818418951,-1.071811567099669,-0.5504622875920558,-0.8362654430050181,-0.63246717308022,-1.0661971460635147,-0.5334941718019772,-0.8177082314857567,-0.41714662087227816,-0.6498401333423334,-0.5088611384802041,undefined,1495339214868
903d185fccf839df,-0.7429851261404801,-0.31863912485968465,0.7320319658936211,0.9050804221769452,-1.2537865228854952,-1.5421577510830007,1.8723921854015377,-0.5485664718665482,-0.5248627229203232,-0.3599884370144275,-0.17411676845437024,0.033781160311900975,-0.8739903631907309,-0.6984175719034562,-1.1107589765381907,-0.5524828901375914,-1.0055263398280452,-0.6938143987045827,-1.0901682197355187,-0.5841550551393658,-0.8616768659973868,-0.4339028878009702,-0.672530697248823,-0.5459718390803436,undefined,1495339216358
903d185fccf839df,-0.6875445252010306,-0.2200205759472992,0.9011047038799193,1.0216104396483674,-1.1945511929107648,-1.6829346404089747,1.8979407569527509,-0.6335129722660443,-0.5645825069756139,-0.46862175977591514,-0.15503949308989506,0.04055686163376527,-0.847879066399287,-0.578985017474871,-1.087601062785024,-0.5302562056072566,-0.9176861942991447,-0.6418779272574813,-1.0832763607283726,-0.5368356307751485,-0.8286088373003967,-0.4195315306169646,-0.6151268848758799,-0.552792010924385,undefined,1495339217876
903d185fccf839df,-0.6584382631912046,-0.26932983578949576,0.8175256687752481,0.9522341025801975,-1.1644655314598658,-1.6975972022843158,1.8793559243524252,-0.7813260800221985,-0.48867479236653194,-0.44792931480779213,-0.02102963720224702,-0.020724459845490366,-0.9001016599821747,-0.47343996064094757,-1.087601062785024,-0.4696379172557765,-0.8305471312545993,-0.5889851820182502,-1.084689716684505,-0.3949697512764959,-0.775339188847018,-0.44082001612123195,-0.5716303843708855,-0.5571619195181217,undefined,1495339219384
903d185fccf839df,-0.6043836410445611,-0.32157419985029156,0.8060414741677541,0.8954823581438655,-1.1976883324620067,-1.631530660092393,1.823598771607462,-1.0342509748132265,-0.4989208946398329,-0.5086425755233056,-0.020872277320682493,0.015612322567093585,-0.9218610739750446,-0.4965857921238466,-1.0970747594600139,-0.4514524802135952,-0.8491554540077272,-0.6048872055687712,-1.0959895665745432,-0.36220185979759206,-0.7822468375318025,-0.43586360780587174,-0.5784536341410534,-0.5491211603354809,undefined,1495339220927
903d185fccf839df,-0.582207428273109,-0.47185027319330547,0.6624884062317054,0.6039864959303773,-1.184975205921157,-1.528548006597169,1.7320604825580004,-1.4725025508135532,-0.44709430768668745,-0.564088279227105,0.06946573262770044,-0.01497555310494163,-0.9436204879679144,-0.5021408002272536,-1.1076010862358001,-0.3807312215315193,-0.8635649403940197,-0.59626173593689,-1.0911547700201936,-0.36173990664960043,-0.7762124727179943,-0.4468217686221104,-0.5841669142179513,-0.5541865006051608,undefined,1495339222375
903d185fccf839df,-0.5655753031999298,-0.3890810415462205,1.0357253663176345,1.1457147011511886,-1.1027924887003444,-1.5811096182754387,1.8184627659667223,-0.9612419216707393,-0.42729095445224596,-0.2912151407557933,0.05282201142241404,0.0333327734332682,-0.8870460115864528,-0.3975215424626014,-1.087601066466141,-0.19079410175090503,-0.7501420948195441,-0.5212480175300523,-1.076874280152552,-0.22584862883053858,-0.7109950522791201,-0.45546262502315754,-0.5669697737113256,-0.5348044245185283,undefined,1495339223883
903d185fccf839df,-0.34242688614391575,-0.5035490246358757,1.8727960593155413,1.6920005176768735,-0.812468404304586,-1.73482776066684,1.9200916187626067,-0.46130563741962166,-0.440984240273612,-0.7784711393723913,0.057413510388625605,-0.005457070373767591,-0.8217677696078431,-0.4021507061690263,-1.0949694808528356,-0.16654678641031298,-0.7813993863489037,-0.5152507201942254,-1.0872995286524196,-0.11242368077710128,-0.6908168063372091,-0.46471894832232524,-0.5521330629375972,-0.5306586031531327,undefined,1495339225381
903d185fccf839df,-0.32302266546348546,-0.5822092097520957,2.045697370444903,1.832909253162916,-0.834253516147499,-1.7963313227430693,2.060454873486338,0.35319733910904244,-0.3984628397573531,-0.5639360863101444,0.17423800356311656,0.056542025678807346,-0.9088054255793226,-0.37067237224409777,-1.0623378593813289,-0.23726805922474964,-0.7474481353272111,-0.5108746554542843,-1.0636223205906907,-0.1268366301708499,-0.6878373418010074,-0.4456923375339279,-0.5100622519523118,-0.534339297471357,undefined,1495339226867
903d185fccf839df,-0.22322967348654157,-0.5117672930655598,1.8951265647874764,1.8708826906561544,-0.8327929456356374,-1.7861665238296889,1.9297719185033961,-0.46628147300136663,-0.47041722862543217,-0.8004356922938486,0.06365282379995506,0.09503352365382157,-0.5214878565062389,-0.36789491028241156,-1.0728642045626997,-0.20695892211518999,-0.7357154606872665,-0.4756698204775492,-1.0433455623825783,0.005466815284538045,-0.6429525721400908,-0.46377457405186595,-0.5079472148246393,-0.5429584875548974,undefined,1495339228378
903d185fccf839df,-0.4186577210620113,-0.5475752371789567,1.5856909399912416,1.6318158570962746,-0.8774534451514425,-1.7846012759931194,1.9491877784259295,-0.39835905346843276,-0.44221340949130444,-0.5613919771675783,0.16824029338290875,-0.04679254514439237,-0.5432472704991087,-0.36974658612560113,-1.0170746656569096,-0.24939170276268488,-0.7721951005039916,-0.4523075917111935,-1.0359359395785381,0.12332651450913408,-0.6086315879823575,-0.4668871352159067,-0.5384439335956297,-0.537626395315246,undefined,1495339229872
903d185fccf839df,-0.44776403482995186,-0.5810350628438835,1.5608083912731965,1.53715378860226,-0.8630226108601204,-1.7815196923910122,1.862767091630571,-0.9472555982493117,-0.41215307036744675,-0.6589969914236722,0.20389261321127952,-0.05245547261631511,-0.38657948975044565,-0.38085656348009145,-1.0002325251462902,-0.12007277240702531,-0.7964828133315681,-0.46674670375519045,-1.0409246650913175,0.1162124351496276,-0.6216405896609534,-0.4676480733667529,-0.4408547208009878,-0.5290046689832227,undefined,1495339231369
903d185fccf839df,-0.38400728509038834,-0.6139080196506506,1.544858248053485,1.5676288803878198,-0.8407129348419058,-1.7873031912746133,1.87780695387575,-0.8829200919597208,-0.3445861728644639,-0.10594675451455264,0.2587870085010156,-0.1494062464568018,-0.6041736296791445,-0.38178240140168623,-0.9981272686258135,-0.07561945987579863,-0.8017366264135499,-0.4696408579914754,-1.0280925140597157,0.15726469446541191,-0.6152479479063162,-0.44322525460165113,-0.44156257013630223,-0.5120844560408395,undefined,1495339232906
903d185fccf839df,-0.36183103781352655,-0.5499232971714423,1.5990892941017925,1.6122226101421715,-0.9388076230226148,-1.751558684717004,1.9436415229211004,-0.40554165101012585,-0.3064194901118381,0.019708048872407853,0.12357799728910027,-0.07460898113711839,-0.8217677696078431,-0.4308515781322687,-0.9823377839838091,-0.02510421251671818,-0.7818095817512504,-0.45851387651503767,-1.0292679779689105,0.20897267461059987,-0.5990672776623643,-0.4533077741696579,-0.48899131084074654,-0.48082902141215167,undefined,1495339234363
903d185fccf839df,-0.3244086787617012,-0.452478719799315,1.5831391508820811,1.6520387514622132,-0.8852397108697557,-1.6967004400232049,1.958673492089562,-0.20668324033217964,-0.3226998979929063,-0.12382741911457777,0.09488139233635681,-0.03580032551547682,-0.7826008244206774,-0.4956599218253155,-1.0023378037534683,-0.0796606932315914,-0.7812558985925082,-0.4963278832515017,-1.0403719165426952,0.08265922472998802,-0.6409972209485513,-0.4372842951631537,-0.5141738198863413,-0.47390410995946225,undefined,1495339235873
903d185fccf839df,-0.1899652508131343,-0.48711266314446156,1.5627225507762534,1.4842305324392278,-0.90627396099134,-1.6847491149260065,2.024347634219695,0.2419848424489184,-0.3876825450154674,-0.30876051348867173,-0.07021484660186547,-0.018991581677048286,-0.847879066399287,-0.47806906606888705,-1.0033904264920313,-0.06349581633786339,-0.7639892379104902,-0.5256620782489113,-1.0368245336239659,0.06026988628962009,-0.6547683661126393,-0.43794181937812415,-0.5152231690043538,-0.4617468263381029,undefined,1495339237365
903d185fccf839df,-0.2440199074651876,-0.46774110975047106,1.405771891140502,1.4729315334167374,-0.9051116812690462,-1.701589515523049,1.983995895305293,-0.04443970922020673,-0.344147134708951,-0.33333542682755624,-0.06365229493639696,0.1164784392243467,-0.847879066399287,-0.4651073999204326,-0.9854956853295502,-0.12209341734964324,-0.7993680235315921,-0.5367067315682762,-1.017387392745523,0.0076995929705808205,-0.6645874467850652,-0.43733828775881073,-0.5795844376465091,-0.46246169583077734,undefined,1495339238873
903d185fccf839df,-0.23570375866507362,-0.38144978811465774,1.4867993912729622,1.5420670205300961,-0.8256443884184809,-1.7610060793434341,1.8850441923868568,-0.7498224281471093,-0.3193134124342663,-0.404264566077254,-0.1331574720939996,0.19512887319414648,0.3097217580213904,-0.5104732897185086,-0.9844430331420521,-0.13623764930075333,-0.8172295347927901,-0.5746663975208302,-1.0225020605176443,-0.053663216508121565,-0.695681571156814,-0.44240170203291784,-0.5957499496557833,-0.44585397373795854,undefined,1495339240356
903d185fccf839df,-0.166403093754286,-0.29457159762068474,1.740728202534784,1.7597851648709337,-0.7641667763653318,-1.7156930605623535,1.7915098809372052,-1.1970127152655248,-0.32677123056818475,-0.9299496347194842,-0.1853420769732177,0.15832912305716268,0.048608790106951884,-0.4447390692515434,-0.9897062057327376,-0.06551640475103823,-0.7899412773343847,-0.5430333439076239,-1.0164778065730395,0.020695877588593956,-0.6637484125923311,-0.4404537380846368,-0.5727847851540209,-0.4791965456252475,undefined,1495339241901
903d185fccf839df,-0.11789249029509573,-0.2898753899517367,1.639921986039549,1.8304758860808301,-0.6464983999566556,-1.6844672793567692,1.7724963793733262,-1.1948590263504257,-0.3519712011108703,-0.8829630977954884,0.08111140319713188,0.14655625750280665,-0.8174158868092692,-0.4160382231898501,-0.9707588197449921,0.0840086075894206,-0.6714864868387488,-0.46219331884570536,-0.997369516478677,0.18110148469107312,-0.5912548174445099,-0.41065032457508927,-0.5067722897529481,-0.4843475977299062,undefined,1495339243368
903d185fccf839df,0.13852024591809634,-0.25993759581955356,1.6488543915378826,1.7637861442235727,-0.44829301479652534,-1.6837848128716328,1.8938803346435114,-0.30144715256840565,-0.38149700617116017,-0.7287019097059725,0.04730084881106985,-0.03245566227597481,-0.7434338792335116,-0.44010991849589304,-0.9812851354774278,0.14058567671746866,-0.6273266564886142,-0.38281620430478436,-1.0036106719213655,0.41809896034535626,-0.5135133422813243,-0.4089109575995104,-0.4590228350297364,-0.5039309139894007,undefined,1495339244883
903d185fccf839df,0.3422643732828606,-0.3474029182236173,1.3738713505641298,1.3059526733854565,-0.41531706815068975,-1.6544363987701094,1.9459925651225563,0.06409314021196381,-0.48483288384398365,-0.4668541847088924,-0.06318935023616876,0.0026816324673074998,-0.7521376448306596,-0.4354807547894681,-0.9886535535452393,0.1648329072638961,-0.7213328852480088,-0.35414696902468085,-0.9706836805413118,0.5031599738791552,-0.47670489394580084,-0.4008494715651108,-0.4942178670538569,-0.5337801486673621,undefined,1495339246365
903d185fccf839df,0.17039848276623917,-0.3421197832405248,1.3464365044630253,1.2164929804252573,-0.42165306141539916,-1.6708016334667606,1.9845875989895694,0.2502428716366896,-0.4477023122421802,-0.48094905946044747,-0.366948010247969,0.11369477958075776,-0.8565828319964349,-0.41511242412057897,-0.9844430478665197,0.11633830484743356,-0.6149913185611534,-0.35405197304795677,-0.9549688441380981,0.5584711929512363,-0.4616020809291183,-0.4134433008339628,-0.4686221624058984,-0.514617049550912,undefined,1495339247855
903d185fccf839df,0.055359344508921986,-0.31159500333821266,1.7005333943400804,1.5281666666809914,-0.5712790986286251,-1.6770556408940103,1.972535200811745,0.08101771561553946,-0.37086863265265735,-0.24408406211591172,-0.32864451253766813,-0.032503760176275355,-0.852230949197861,-0.42899991523985365,-0.9676008999936665,0.18503890445453075,-0.584829768504427,-0.38061867073925965,-0.9661007706955539,0.47919999498601457,-0.5006021512246934,-0.3961561888793031,-0.3792116425349057,-0.4957282826365328,undefined,1495339249382
903d185fccf839df,0.14545020889294588,-0.3245093332968832,1.8134609267750141,1.9018200211943779,-0.6672549374725175,-1.6769182151092248,1.8551196325859851,-0.7198558555412982,-0.18459297628686955,-0.2792265154593242,-0.0626970551576646,0.055837798582389735,-0.8783422459893049,-0.5095474776984629,-0.961285141475587,-0.09582554186059788,-0.6583560129433491,-0.49164783727041245,-0.9553186846635808,0.17889950969817825,-0.6155260533280843,-0.41201417319406836,-0.35671334441162217,-0.45937066601100757,undefined,1495339250873
903d185fccf839df,0.062289376494591014,-0.24056610088154776,2.230720759924812,2.2774309095315277,-0.693041181110261,-1.6986756402664323,1.8050770456482088,-1.0515295192706506,-0.29066263049513974,-0.35545649443095473,-0.08661750082768006,0.07038169760571665,-0.6433405748663101,-0.5271383593564404,-1.0107588519220767,-0.19281466189935834,-0.6925522593476718,-0.5364597458236248,-0.994074019540609,0.08874161136784915,-0.6611377285631979,-0.4074672609679865,-0.42802981189197753,-0.4863557464036031,undefined,1495339252361
903d185fccf839df,0.037341102621297736,-0.20769317330277307,2.001036613637982,2.1207894869741852,-0.6709063600952193,-1.7142885308646942,1.8082669951545678,-1.0283692761803693,-0.3639115516294644,-0.5467634174075322,-0.14118990407734291,0.03553782270904587,-0.673803754456328,-0.5715783464790489,-0.9970746090760815,-0.1968559517845942,-0.709604490828951,-0.5782445079357603,-0.9963129989722093,0.04100642862656204,-0.6916323131815358,-0.42849180895484873,-0.4295062492904292,-0.4598239487767077,undefined,1495339253888
903d185fccf839df,-0.21491359369724705,-0.242914219330018,2.166919678772067,1.956838452907192,-0.7835347429105134,-1.7268734092610993,1.824408738765884,-0.9906561264648147,-0.47995069529088874,-0.781255151975554,-0.21749625407206968,0.07557503112942345,-0.6520443404634582,-0.5428775263189047,-1.0012851736526716,-0.18271169156876255,-0.7141120404097608,-0.5930509312058093,-0.9925067335127413,0.020695878504030853,-0.699869232396992,-0.40087644489089475,-0.5036650083083731,-0.49129154389108165,undefined,1495339255355
903d185fccf839df,-0.5198367953479904,-0.24467526432438216,1.5295459885768263,1.4001321150312294,-1.0084623630990541,-1.6717845735773504,1.865615171924265,-0.7227807040063539,-0.5215085010470591,-0.48494604041760303,-0.2316824598520598,-0.002113974956469539,-0.7477857620320856,-0.5410258375249406,-1.0139167643111684,-0.09380495344742304,-0.7175405572799693,-0.577889863344513,-0.9867203704895351,-0.012672550933735583,-0.6908599007423392,-0.3791621305867949,-0.5474436762836824,-0.49013891245236135,undefined,1495339256859
903d185fccf839df,-0.5364689549265795,-0.39436417652931294,1.859398213478889,1.741370924054831,-1.064622265460189,-1.6689242685082326,1.8972254373166169,-0.5679446337542755,-0.38269059617467827,-0.5052707774230063,-0.10821850965805506,0.18608168265322927,-0.5388953877005348,-0.5391741746325255,-1.0065483315188894,-0.04328973435306412,-0.7975128412544321,-0.5676304949968514,-0.9829980672560693,0.023991146664199405,-0.672820005472724,-0.400414716876964,-0.5757190554609903,-0.5214763837824021,undefined,1495339258379
903d185fccf839df,-0.24540592076340334,-0.46832818320457714,2.118430857095981,1.8842863499261238,-0.870880874619224,-1.6863376599677067,1.8877476177772228,-0.583698288242939,-0.44979752849812316,-0.5798807977036081,-0.12835354525230994,0.07327959554536001,-0.3517644273618538,-0.5151024922772571,-0.9707588050205245,-0.0008569537055692197,-0.785918136648813,-0.5668705421763509,-0.9680388856996065,0.029734765967538712,-0.6692841893951633,-0.41830702572272477,-0.5242923637137817,-0.5138610228501762,undefined,1495339259866
903d185fccf839df,-0.059679897264624394,-0.4325201514072031,2.2345488247939764,2.144871639690719,-0.6532869537724221,-1.7484771021736192,1.9174828390613654,-0.3939541639024799,-0.5234470134725022,-1.1761837663434258,0.0005698848335558979,-0.0016009268709345067,-0.4649133801247772,-0.4993633123640183,-0.9939167555848599,0.07390560899410327,-0.7886952919244369,-0.5755340091602431,-0.9750566869722113,0.10709655471846137,-0.6599808148431114,-0.43743720373601425,-0.5168968266151767,-0.5259396164998279,undefined,1495339261347
903d185fccf839df,0.009620871162392424,-0.24526219163852653,2.1248109652112555,2.0064161420612026,-0.6213601541980661,-1.7582086635823408,1.9208621464636073,-0.3237146643242168,-0.6832357887230445,-1.6459259851036938,-0.051952759498454536,-0.1674850562328071,-0.147225935828877,-0.5067699704090658,-0.9739166953229149,0.015307923188158802,-0.7739014579291866,-0.5722028820815147,-0.972943650099689,0.06374993193146103,-0.6684583037248086,-0.4438287212617272,-0.53860679593504,-0.512051676229123,undefined,1495339262866
903d185fccf839df,-0.1054184051165637,-0.17658146608631653,2.2485853167845296,2.229371532923618,-0.6582960917130636,-1.7408721345938178,1.901004489510638,-0.46300659140605255,-0.701526881832328,-1.4645551931437455,0.06015898542285977,-0.15048844256678123,-0.20380041221033868,-0.45121992175193243,-0.9718114424835551,0.17695655080183134,-0.7727886495598081,-0.5512408390574772,-0.9713763641329919,0.2727838297937001,-0.6220411715495463,-0.4778433795654076,-0.5351261271239002,-0.5116061031306349,undefined,1495339264352
903d185fccf839df,-0.4020255614834223,-0.07385372450310439,2.497409787417183,2.412650119412552,-0.7224274177892281,-1.6622393482744051,1.9488695873958946,-0.05976988513771758,-0.6539826366518269,-1.0786155044376902,0.05782959130634728,-0.06501712558456063,-0.6868594028520499,-0.49565996715302635,-0.9718114572080228,0.22140994812722262,-0.7666930981444283,-0.5941338659975665,-0.9816756694009053,0.3222744343869643,-0.6378581337516375,-0.476780388901123,-0.5249314362163936,-0.5025539562111545,undefined,1495339265901
903d185fccf839df,-0.2689681123276614,-0.04861207958388472,2.207752116572874,2.271532855876506,-0.5738608094054944,-1.656395287541151,2.0183253947631634,0.4754678115436327,-0.6289018807433413,-0.8411570119993297,-0.015460606334641525,-0.05745926948665125,-0.7608414104278075,-0.44288743226067745,-1.011811496747341,0.0920910460362846,-0.7029458823804912,-0.5409244725944758,-0.9814587683187819,0.4596901603380175,-0.5948103216568611,-0.4501292362754741,-0.5101229214123323,-0.4864681607435126,undefined,1495339267354
903d185fccf839df,-0.022257469201979616,-0.1225759401191872,2.44700655210109,2.432531465900636,-0.4477890225874495,-1.6064424255545913,1.9273682928029283,0.04791949230892009,-0.6448276622638462,-0.15838784800359748,-0.15563632009820086,-0.007392404096799641,-0.852230949197861,-0.4484424597902462,-1.0086536138071844,0.14058564845274713,-0.7444540117107054,-0.5038767499888732,-0.9638128118628058,0.5459522512838583,-0.5551177245820522,-0.4063810880727371,-0.5400921415775113,-0.47566180615123876,undefined,1495339268859
903d185fccf839df,-0.054135844071761384,-0.22589069670052075,2.2690014086164583,2.403635913364479,-0.37364971357892957,-1.6544363981594297,1.8858383909378345,-0.34100673438782547,-0.4937990521143355,0.3989490625982865,-0.24722778848136967,-0.05003541406909746,-0.7173225824420678,-0.39104074176531056,-0.9823377803026923,0.12644135997219397,-0.7470053014971602,-0.5216026584615634,-0.9369240676576183,0.5418870653073999,-0.550072411627866,-0.41742740200420014,-0.5233610029333261,-0.5317507328289097,undefined,1495339270354
903d185fccf839df,-0.07908408343964493,-0.3526861116626945,1.7075511320614583,1.7346941179201147,-0.52097175024639,-1.6657867805667903,1.81672708625302,-0.9296764720982243,-0.3887538009502615,0.07488949581096098,-0.1814583214174972,0.04862267633970758,-0.8348234180035651,-0.2660531144794456,-0.9518114116705453,0.10825580987112648,-0.689283189859951,-0.46773463856721426,-0.8950131702494054,0.4722552935049759,-0.51589165375265,-0.3935969098947004,-0.530854941356774,-0.48234579411574957,undefined,1495339271827
903d185fccf839df,-0.24401987295977787,-0.07033160528638371,0.9451275769437877,0.91343201945904,-0.8162638241491654,-1.379269393576038,1.7118609396320172,-1.099368027660121,-0.39144627663691967,-0.5461468460312375,0.05234150833872978,-0.006665629753394027,-0.9653799019607844,-0.24475902359360888,-0.894969253707309,-0.07561945987579863,-0.7161951114689582,-0.36694584375074724,-0.8778220060477507,-0.036247570386970185,-0.5419690909218762,-0.44052208440091845,-0.5823343353273547,-0.43625295650504664,undefined,1495339273386
903d185fccf839df,-0.4311318752513628,-0.4119745680169699,0.9361954255824035,1.0147166640657648,-0.9959138076267979,-1.1462779229690399,1.7564203845149282,-0.35302263651838484,-0.36170382473707247,-0.6978881205626819,0.14501966585733464,-0.05743721728911558,-1.0045468471479502,-0.3058640026495019,-0.8676007827397862,-0.36254574209225565,-0.6810803032146845,-0.36510295855801256,-0.8844130018507611,-0.3549645960785452,-0.5938775204516608,-0.4482414119517058,-0.5361866859509667,-0.44856352416238277,undefined,1495339274847
903d185fccf839df,-0.4643962289139506,-0.4771334666323826,0.8360276011041199,0.9883393480639237,-0.988302392090402,-1.0915734103169725,1.722785158409068,-0.3967424394500029,-0.3446694081090119,-0.3707629920969709,0.10463492422449822,0.06169673814400131,-1.017602495543672,-0.46881077750836087,-0.9718114645702565,-0.3665869754480484,-0.728278730031038,-0.42308739025364356,-0.9426054782485238,-0.4231797094998306,-0.6612196758270673,-0.4495835796775653,-0.5702275122274032,-0.5190375595780878,undefined,1495339276399
903d185fccf839df,-0.32163661765986,-0.5910143762679317,0.8443218687224514,0.9715990031773436,-0.7658536290312115,-1.071497697769615,1.6069369378585754,-0.9901207923796402,-0.1427222882983009,-0.24825707819711865,0.19501028650329585,0.01803320605219621,-0.8391753008021391,-0.5169541163173486,-0.9465482611665612,-0.13825829424337127,-0.7699507249187791,-0.5084428032439927,-0.9147161909932966,-0.18690596350090963,-0.6606275881224463,-0.395483686977129,-0.6098307575863623,-0.5293238766815108,undefined,1495339277841
903d185fccf839df,-0.14977083065946778,-0.2769611184490508,0.9865984067615463,1.0001053435882337,-0.6124938877580541,-0.9838111555384155,1.6754354899561854,-0.17060173649192054,-0.17907539412939977,-0.09242654867790609,0.14997390736526073,0.008047893202106318,-0.7695451760249554,-0.49380829778522406,-0.9212850798495673,-0.29788630517914744,-0.8115280248385455,-0.5143894380879036,-0.9218669321680402,-0.124727039375262,-0.6555842665589446,-0.38731815749331877,-0.6169700181679003,-0.49833396161241356,undefined,1495339279335
903d185fccf839df,0.1440642646055496,-0.28048320843777913,0.9145033121274198,1.2224909825537547,-0.01303318208596066,-0.9320694355375091,1.5408814705598874,-0.5970258240836046,-0.05270438377284427,0.5011277839378567,0.24376910464099713,-0.08453277459435063,-0.8130640040106952,-0.3938182037269968,-0.9381272129979529,-0.3746694280272732,-0.6943702373700871,-0.5125592170938407,-0.8964825032861852,-0.09151259315342597,-0.6357451455536561,-0.43626071776339037,-0.6250972604983003,-0.403719191294331,undefined,1495339280937
903d185fccf839df,0.1745564881554767,-0.275787088452808,0.8379415064702275,1.057749777148436,-0.1830866084522395,-0.9335624792076009,1.49838380049641,-0.8991560716933332,-0.12710208863120742,0.1683866152893174,0.20937897984770656,-0.130768935944941,-0.6085255124777184,-0.40955744839410835,-0.9360219233474241,-0.4130609470542538,-0.7201013294317639,-0.5184551876298094,-0.891262882580164,-0.06587418136419804,-0.6336575471354121,-0.45812864629504296,-0.6207106771140083,-0.39608558971983493,undefined,1495339282579
903d185fccf839df,0.21336486050551776,-0.2781351484452936,0.8417698254763416,1.182076378661585,-0.20382257380982566,-0.9208704545269215,1.495585687516047,-0.8733269377279836,-0.15489229397263016,0.15699539523585831,0.22029977642788048,-0.07260819872241564,-0.6389886920677362,-0.4049282328845853,-0.9360219233474241,-0.4130609470542538,-0.7220149550546342,-0.5139904621766846,-0.8916407103552705,-0.06602816579173636,-0.6311516274659424,-0.45919851685209295,-0.6259285402010929,-0.3955808274849048,undefined,1495339284590
903d185fccf839df,0.2632616152845627,-0.2781351484452936,0.8762224092988237,1.2094377320851295,-0.1954603010312676,-0.9196382867872323,1.4903523744333045,-0.8978853649413165,-0.16231355011701828,0.14627505663034682,0.2252098273360774,-0.06262417054336332,-0.6128773952762924,-0.4067798957770003,-0.9339166631458304,-0.4130609470542538,-0.7220149550546342,-0.5134331631773675,-0.8927392096690258,-0.0673832290448588,-0.6313601297266983,-0.4584459141026814,-0.625795041129139,-0.39362975898614466,undefined,1495339285709
903d185fccf839df,0.27989377486315176,-0.2781351484452936,0.8762224092988237,1.182076378661585,-0.19511058613564827,-0.923502494371048,1.4951728078484936,-0.8763359720916251,-0.15623554964338912,0.1413889779474858,0.21988082266236533,-0.021880114636994876,-0.5737104500891266,-0.4215932248178698,-0.9339166631458304,-0.4312464123611567,-0.7287575629185502,-0.5049280199570467,-0.8925432989889471,-0.0635182194667001,-0.625955687447123,-0.4639304251394178,-0.6314255947307569,-0.3958531378873463,undefined,1495339287577
903d185fccf839df,0.295139921143525,-0.26815577656526063,0.8417698254763416,1.0877386341695956,-0.1841460330006168,-0.9155458130542515,1.5039773982249547,-0.7906113457196745,-0.14538511798436826,0.13289789502790075,0.22211827399934808,-0.018495905776521986,-0.5606548016934046,-0.4215932248178698,-0.9318113882197693,-0.4312464123611567,-0.7287575629185502,-0.5044720481451546,-0.8898705171973541,-0.06542762672896414,-0.6249477264981954,-0.4634245746454542,-0.6320839200422002,-0.3997739495034882,undefined,1495339288637
903d185fccf839df,0.3575105885740533,-0.315117093326941,0.8149731172552395,0.9260241675669398,-0.2000682936886016,-0.9947376204645243,1.6075444146022637,-0.46187069270260456,-0.009679282264903178,-0.12988861786524755,0.18183216759442666,-0.07914484621953469,-0.2342635918003565,-0.40863161047251356,-0.9339166852325318,-0.34031908582664233,-0.6746971641386525,-0.5129455269792883,-0.8827197757962791,-0.0831820355132158,-0.623394682500514,-0.44767197110728985,-0.645611695947422,-0.3890880206290818,undefined,1495339289866
903d185fccf839df,0.31454410731854554,-0.2018229648655745,0.7358597766258363,1.0386286926713584,-0.194133446837494,-1.1053415451662245,1.6110946608009256,-0.7333724088597359,0.09164635230280672,-0.3848232333061739,0.029224415696511984,-0.41337735064412473,0.7362062722816399,-0.4067798828262258,-0.9065481848160739,-0.29182449754254053,-0.6662412108160969,-0.4857265334925178,-0.86212816146574,-0.15493878761770047,-0.616538942889693,-0.4743426674565455,-0.6321618379122433,-0.3540751622868272,undefined,1495339291367
903d185fccf839df,-0.09710235983267891,-0.13549027007785772,0.860910149822165,0.9737796934137929,-0.5978264802662826,-1.1989047554474521,1.6148920959549087,-1.057834386991585,-0.21242183042625964,-0.949322009170753,-0.06661791009832024,-0.3440914872930053,2.0548267602495547,-0.44659078394705665,-0.897074499184435,-0.24939170276268488,-0.7491714840046975,-0.5194874569841443,-0.8391996120148887,-0.12223248803585847,-0.6216813791102834,-0.4589166436836573,-0.6137140354702604,-0.37568800782231493,undefined,1495339292841
903d185fccf839df,-0.3826212717921726,-0.24350120510014703,1.5901571427404082,1.6801487780410012,-0.718559993764259,-1.4170310193174938,1.7684701350814183,-0.7888354113437646,-0.7019589674627228,-0.36240250011657027,0.08541908215294934,-0.2683147796681486,2.0156598150623886,-0.5225091049945937,-0.8886534510158267,0.0739055524646602,-0.769046180064498,-0.5480300349852597,-0.8614494705537857,-0.023266677860193347,-0.6222425588558556,-0.4531707461316065,-0.6351320937571605,-0.425125532629289,undefined,1495339294347
903d185fccf839df,-0.10819046621840493,-0.23058687514147652,2.422761887126098,2.392694992952106,-0.635832134482377,-1.4158104995021892,1.7913547031536965,-0.48447213634888636,-0.7058238297980949,-0.6697769627871668,0.11481542384194797,-0.19924252381290133,-0.29518995098039214,-0.5354707711430481,-0.9297061206559418,0.08804978441577029,-0.8229388576926591,-0.5502402328657261,-0.9304380256204281,-0.027870814273703148,-0.6477037102655069,-0.41868254942525557,-0.5774618252301112,-0.5380702815294903,undefined,1495339295895
903d185fccf839df,-0.10126029621109697,-0.02689249542540105,2.558658571186868,2.5750932102009063,-0.46099585416995364,-1.5109715674057536,1.8169742699707323,-0.43465108409775005,-0.7616023625960054,-0.5993284564779606,0.1428664343135534,0.06697312388857408,-0.38657948975044565,-0.5104732897185086,-0.921285057762866,0.1890802791339312,-0.7877356871558363,-0.4970181730437609,-0.9369730470648835,0.06117839528445341,-0.6086641339406643,-0.41701751490254535,-0.5587783079935417,-0.5477939246588104,undefined,1495339297391
903d185fccf839df,-0.1539289395649345,-0.08676799600579023,2.6435138820515434,2.6490914451796423,-0.5129489030314666,-1.6373793802708414,1.8318221523729779,-0.5873773248506146,-0.572955004531152,-0.8780213112532177,0.016266620078486584,-0.05674381166742373,-0.5737104500891266,-0.4475165830163278,-0.9697061601952601,0.23555409528416812,-0.7731246646606467,-0.4498947377561208,-0.9763091175015924,0.28693500214158607,-0.5600501312284144,-0.4337266394274489,-0.4942661377481569,-0.5917012789658712,undefined,1495339298860
903d185fccf839df,-0.2107555538025998,-0.2452622500945112,2.638409795559324,2.5470185764164905,-0.44655473131884754,-1.76587186235687,1.9432891109253407,-0.1398231451838875,-0.6267992609807362,-0.13957505933360642,-0.09461087984642563,-0.08037570686074574,-0.8870460115864528,-0.3354906607312409,-1.0223378198420106,0.1708947290328637,-0.7430239184531091,-0.34051213508065337,-1.0128604576069928,0.31676178920748044,-0.5127269100993933,-0.4189398173552967,-0.4881063972599873,-0.5883902991071441,undefined,1495339300353
903d185fccf839df,-0.22600170008297307,-0.28928837495361526,2.970175925827494,2.8304751256737317,-0.5059032041550519,-1.7787199448587365,1.928044120867432,-0.2999064108893841,-0.5111712952404472,0.2576901648483463,-0.2523840684855386,-0.027674746617554025,-0.6215811608734403,-0.28919898481466827,-1.0528641774308067,0.21534815462297655,-0.6646625648860448,-0.32533206843815504,-1.052651320958666,0.4869454082259899,-0.48438120027335274,-0.44962739172431054,-0.446320751868838,-0.5571646198737871,undefined,1495339301864
903d185fccf839df,-0.1885792720203283,-0.36442644085311454,2.299625673432826,2.3295602820537207,-0.5964893418398518,-1.7943607852213226,1.9495086050207986,-0.23121982644526598,-0.47203980039155136,0.28431193189661796,-0.26098825782120266,-0.07670788738779091,-0.5954698640819964,-0.30308647593394294,-1.0623378630624458,0.1708946442386991,-0.6469938975749634,-0.3024448100766472,-1.0526513210076025,0.429447612619923,-0.4904001729147352,-0.4446656980922881,-0.39683650208324867,-0.5221094225344985,undefined,1495339303349
903d185fccf839df,-0.08740023223975892,-0.4231279406652533,2.2262545571756447,2.3057657939525424,-0.5168883327052076,-1.825460787103231,1.9490825836685797,-0.3295082048833742,-0.34057760122576236,0.6919708898220961,-0.1352029324156197,-0.007102644314405426,-0.7695451760249554,-0.301234838943077,-1.0844431430336985,0.15877108549492847,-0.6538439925782392,-0.3053073011005183,-1.0550022491746642,0.4678205402067721,-0.48239149793114966,-0.44268605491006496,-0.43810976813492986,-0.5270098272798979,undefined,1495339304848
903d185fccf839df,-0.17194707793632955,-0.46598009398409923,1.9487197270927312,1.943110639357431,-0.6336412801349542,-1.734669371358971,1.901036038772027,-0.5345721368269474,-0.33814175167819016,0.09831762460691076,-0.06030427402870203,0.02692841939017702,-0.6520443404634582,-0.3234548584059303,-1.0707589369988724,0.015307838393994194,-0.7570153818474772,-0.3378586329366495,-1.0268610755411667,0.2617277489653615,-0.5256539047491859,-0.46064898266250454,-0.5089941389587059,-0.5332079431353449,undefined,1495339306361
903d185fccf839df,-0.20936954050438406,-0.5745779563205329,2.0361270812035164,1.8040197447620243,-0.5600882605628528,-1.7269479441450202,1.9850767382437207,0.012026981418616531,-0.3373921472333138,0.2447446903547796,0.02901032502099789,0.030275773702006414,-0.6476924576648841,-0.29197647267790355,-1.0539168038504867,0.053699470479860935,-0.7294218812402375,-0.39524776975924186,-1.02466407713387,0.266208693992005,-0.5544108403884185,-0.4318839333538016,-0.4656347655611814,-0.5041965007515299,undefined,1495339307863
903d185fccf839df,-0.3244086787617012,-0.6062767662190879,1.9512715162018917,1.93913102074015,-0.713982857439843,-1.7299293703583754,1.915697190463049,-0.47589200784935276,-0.24920779498932258,0.16919399880025035,-0.0038084525200982396,0.045325531633247686,-0.7913045900178254,-0.3540073544092641,-1.0412852205542236,0.021369660162961816,-0.755703512939456,-0.4004344484218962,-1.0076058519779658,0.23473426802651962,-0.5626253805410941,-0.413099986583266,-0.46616931506690773,-0.47607277212839477,undefined,1495339309400
903d185fccf839df,-0.23431781437767732,-0.7148746577835139,1.970411840547715,1.8847338143915466,-0.6929074601249574,-1.8498455928333328,2.0166396661262045,-0.07140532133913284,-0.17261084332917478,0.556402234689101,0.058173814437110886,0.014093019526650938,-0.7956564728163993,-0.35308155533999297,-1.0149694091364327,-0.08572254326528056,-0.7873282435461301,-0.4246199603424661,-0.9933883320808118,0.19574540480271277,-0.579121436805867,-0.4167970877727359,-0.46089913918212133,-0.47789012809230597,undefined,1495339310876
903d185fccf839df,-0.2814423010224226,-0.6250613338429493,1.8976786080335863,1.8571201251196139,-0.5978676185212558,-1.8772723849846757,1.9162652416289794,-0.721182215418072,-0.17861228430649687,0.7727988267795948,0.04048465418807465,-0.01622917272932889,-0.7434338792335116,-0.2993831890014365,-0.9844430625909872,-0.015001129127236246,-0.8113076946329234,-0.42613353336645277,-0.9732725011529202,0.25316620841040766,-0.564380312134104,-0.3967558589281755,-0.46743631289664433,-0.4688457200412066,undefined,1495339312351
903d185fccf839df,-0.2856002719062504,-0.6925680878549012,1.602917358970957,1.5165432572556112,-0.5516231209073298,-1.89337441597317,1.9074422447233168,-0.8097214641592855,-0.1881785275396881,0.8814665886284344,0.12556934101969303,-0.08674011455091599,-0.3038937165775401,-0.3123448162975673,-1.001285158928204,-0.0554133213615563,-0.786614683517869,-0.4303132754626916,-0.983557812970358,0.33625622085977075,-0.5579493281655872,-0.37266407016600295,-0.39440524418969836,-0.44609399836932695,undefined,1495339313856
903d185fccf839df,-0.05690793967901236,-0.6133209754245368,1.6118495103323414,1.5433838357745597,-0.3858073997403839,-1.872201631077833,1.9115263274073155,-0.6848848897085318,-0.2595422007460922,1.321523967897068,0.17092020579285275,-0.08037266186071805,-0.6172292780748664,-0.305864028551051,-1.0233904867539763,0.0334933319656186,-0.7456592847463691,-0.4308515762566198,-0.9989298066988661,0.49028687025510553,-0.5358897784443917,-0.3633262458830767,-0.35161692734669187,-0.44548412702917367,undefined,1495339315360
903d185fccf839df,0.002690701155084458,-0.47185027319330547,1.6986192348370235,1.874433716414171,-0.3280017868173453,-1.8223582397406544,1.9157313726704674,-0.5773912004175751,-0.22864900116356326,2.051024389562935,0.19525848413162636,-0.03802256905291572,-0.8087121212121212,-0.39289237875617655,-1.0244431094925393,0.0395552102640293,-0.8011083726902805,-0.4330934396638264,-1.0016445688174176,0.44965037409551095,-0.542298005902718,-0.3771658322033892,-0.42541072653107526,-0.4731570611584959,undefined,1495339316870
903d185fccf839df,0.1371341636090611,-0.3667745008456001,1.8013388484244672,1.8907584298337625,-0.30463269415681277,-1.7723704369170044,2.000400609835277,0.06996681899439544,-0.22709584049189588,2.012660012761862,0.26057209636636197,0.09326375425949965,-0.8043602384135473,-0.3262323333183911,-1.0118115041095748,0.05774070383565371,-0.7455930432881465,-0.4432578149968805,-0.98718915796828,0.4298941680494331,-0.5402612790813465,-0.3273111233532377,-0.41233192105090244,-0.4631598804407401,undefined,1495339318358
903d185fccf839df,-0.015327471721720323,-0.44895662981058665,1.7783704592094793,1.8215601315494312,-0.3460634775146405,-1.7928514376146858,2.0141229426402125,0.121544766867063,-0.2266895517841692,1.4335390468128684,0.2093426576063198,0.14678079395842722,-0.147225935828877,-0.38270821342173195,-1.0086536211694181,0.013287306510262416,-0.7568077784854507,-0.42960398885474665,-0.9997274424108771,0.3813120742414891,-0.5479418041904228,-0.33910375877738924,-0.45072873066657015,-0.47863639230051314,undefined,1495339319860
903d185fccf839df,0.0026907701659039268,-0.488873649682841,1.4638307479210246,1.499531880701094,-0.4062245119366751,-1.7972932976661566,1.9499793566011399,-0.31816617488145904,-0.37745834252204585,0.7968956103822193,0.11909955173038184,0.09834758014758306,-0.1994485294117647,-0.3984473674334217,-0.9876009381689101,0.05167885380196455,-0.7623052807888041,-0.4614206982055538,-0.9710195277753625,0.33042020956444723,-0.5607286175081444,-0.36295738968099284,-0.476042301281168,-0.49825807116796894,undefined,1495339321361
903d185fccf839df,0.21059297193072518,-0.6890459978661728,1.5391162778182126,1.5408508221517474,-0.41909191211602415,-1.8156756529628144,1.9366830566711624,-0.4630083216163921,-0.3721717794751633,0.7409630348596503,0.06238618191848744,-0.008643182496543585,-0.4866727941176471,-0.4780691178719852,-1.0054956940558588,0.0031842796502235537,-0.7567665369556892,-0.5183221972687273,-0.9651701939313968,0.2117751893528446,-0.6056193445554665,-0.36746264333468476,-0.5434837644670635,-0.49290472617650183,undefined,1495339322886
903d185fccf839df,0.07337751738572676,-0.6321055138204059,1.6367320590503864,1.6148183413390382,-0.4351993219264143,-1.7962497975524492,1.8916344762004271,-0.7427454634540269,-0.3760495297273102,0.8683433347842376,0.11788086196062661,-0.1445731093098946,-0.4692652629233512,-0.46973660895456837,-1.0044430418683605,-0.08572245847111595,-0.7618850288766787,-0.551373829407486,-0.9855309139128489,0.1831648783059856,-0.6326780530842555,-0.3589325869418374,-0.5463398027007784,-0.4975173171961181,undefined,1495339324359
903d185fccf839df,0.04149910801053526,-0.7125266270190207,1.7860268430847581,1.8516716718170982,-0.5229671760660078,-1.8400371656764676,1.9045257837781984,-0.7355533355476835,-0.35278508073766873,0.29598725718232594,0.19302069528771737,-0.0843064439274851,-0.2342635918003565,-0.5030666122472993,-1.0118114672984058,-0.03722794084881804,-0.784083534113372,-0.5949381477185155,-0.9827671731516646,0.20142743545340697,-0.6531264060393012,-0.3608805832616041,-0.5759299305848342,-0.5134258586478387,undefined,1495339325859
903d185fccf839df,-0.07769807014142918,-0.6602822045022402,2.049525689451017,2.0231137652064857,-0.499721504584065,-1.8418982282487069,1.8816175422371382,-0.8692483431250224,-0.40877349405404906,0.46970891654294555,0.13313583373756535,0.06845420119910291,-0.6955631684491979,-0.5113991276401034,-1.034969425224975,0.15068870357750752,-0.7943925086411183,-0.6147285976571353,-0.9935422622748882,0.27629467710555367,-0.6509449045668422,-0.3922092866265951,-0.6112760774740621,-0.5223696908494951,undefined,1495339327369
903d185fccf839df,-0.12759465239342546,-0.5422921314238566,1.7841129377186504,1.9478468817087187,-0.5045352101819078,-1.8107353366891044,1.9232947120486752,-0.5171107942017859,-0.4937397150192521,0.46063121990970324,0.08861653292191156,0.1902704689733917,0.7710213346702318,-0.470662466302325,-1.0328641355744463,0.13654438683223283,-0.7844811417719201,-0.5804167076780091,-0.9881197342063701,0.2576009654915204,-0.6358034699303041,-0.3816264866485802,-0.5517330824716432,-0.520614400061913,undefined,1495339328875
903d185fccf839df,-0.08324212333429219,-0.366187427391494,1.4363966642307686,1.2630545151366541,-0.45690215254615313,-1.7522225174442383,1.8909033981701862,-0.5878208081851983,-0.5707047690991786,0.6462560057688486,-0.12013446990151867,0.18912209976841776,0.7753732174688057,-0.4289999281906282,-1.041285242640925,0.3143578913396334,-0.7893033618559594,-0.5447432359598701,-1.0008119485800098,0.3440478369211289,-0.6046110137707348,-0.38199599949708135,-0.5424853070092677,-0.5228183441073643,undefined,1495339330346
903d185fccf839df,-0.14977083065946778,-0.3239223182987618,1.2347847395141973,1.0630818657617944,-0.5577842664827715,-1.7503707717980648,1.9597333175507163,-0.16152420754084587,-0.5679565829058675,0.5065874234849549,-0.16973590203735942,0.1101699887012345,-0.5650066844919787,-0.4373324694849814,-1.0581273463403753,0.2901106325284844,-0.7580053733796387,-0.5390942507145465,-0.9986569308299932,0.3461574232606925,-0.6028952479935251,-0.3970106573299898,-0.5408500820586394,-0.5194430410204379,undefined,1495339331862
903d185fccf839df,-0.14422677746660476,-0.41021358147859044,1.2628572152214048,1.3090046143875151,-0.5819042259159483,-1.7532403959858958,1.9383240702690654,-0.3208767706277199,-0.4212263972323762,0.2824039530319732,-0.13935782250382883,-0.03922966571861692,-0.6999150512477719,-0.38733740302970593,-1.0212851676545123,0.34466688712558535,-0.7220319734073269,-0.47958358068338725,-0.9645824622826525,0.36435838766292644,-0.5582993522089804,-0.4006381011325474,-0.4940477862910798,-0.530535573294866,undefined,1495339333371
903d185fccf839df,-0.02502956480923059,-0.579274076305504,1.5225282508554485,1.515446267596026,-0.3889445455212485,-1.8106654599574405,1.9447513094104552,-0.326249650051565,-0.42377782344263765,0.9646288714128393,-0.013804531032496608,-0.01909505524667956,-0.7869527072192514,-0.3715982360672416,-0.9897061983705038,0.3830585474761736,-0.6857497090033468,-0.43790647747321426,-0.9517782983660992,0.31106436805410265,-0.5470002055708292,-0.4103468298499313,-0.44817510179377107,-0.5195388566525213,undefined,1495339334898
903d185fccf839df,0.07614950947674853,-0.6162560504151438,1.3228304856419342,1.4097347014176578,-0.39288396903338463,-1.8451545052071257,1.8998105482629244,-0.6764810203934455,-0.33981797178093553,1.1762201365836693,0.0016404753036659806,0.04970405228869327,-0.8130640040106952,-0.37993072555849666,-1.0139167643111684,0.28808995932114495,-0.6813528940481158,-0.46850092905970464,-0.9748327897092686,0.22441731546053673,-0.5859457007297644,-0.40376056876741356,-0.451151390112783,-0.48803501700026075,undefined,1495339336362
903d185fccf839df,0.10802791885194005,-0.6414977245623558,1.3438849694908144,1.4783685277881822,-0.30056983627865147,-1.8488626529510683,1.9503317450276594,-0.3676275857761299,-0.34100589843320456,1.7985591435501078,-0.025953964717042713,0.07900918479280347,-0.9523242535650625,-0.4021507061690263,-1.0202325375537156,0.14462682527909684,-0.739585992362389,-0.48536555797847614,-0.9882736636296967,0.2209680617958454,-0.6034333024420461,-0.39160070257852664,-0.4481353268510347,-0.48176003250263283,undefined,1495339337879
903d185fccf839df,0.09971177005182606,-0.583383210520346,1.5818631292590262,1.702799679964304,-0.2618338992112527,-1.85962140905465,1.8853492385896609,-0.8448076967899867,-0.23492699806417755,1.4015893998746787,0.12542793381282769,-0.0358329242585204,-0.8696384803921569,-0.3975215424626014,-1.0107588592843104,0.02339038989974435,-0.7607704835208918,-0.4802232077124339,-0.9800664050280069,0.2384452990467069,-0.5990035814021446,-0.38181354705815057,-0.4183224598770692,-0.45311160697829866,undefined,1495339339355
903d185fccf839df,0.1745564881554767,-0.5998196304677449,1.91171484588719,1.9607809863970105,-0.16824434031982657,-1.8127477990544034,1.8903484970690954,-0.7033682264598289,-0.25271161820999655,1.8251424906751377,0.12462427717184199,-0.08584649788547986,-0.6868594028520499,-0.45121990880115787,-1.023390464667275,0.019349156543951574,-0.8474145409480127,-0.49960201537078996,-0.9749937172647573,0.21842731804142407,-0.6096135597784326,-0.39996655703215406,-0.4972040584643589,-0.48599939301472067,undefined,1495339340859
903d185fccf839df,0.25910350637909596,-0.5962975404790166,1.87279656758944,2.0184781565513195,-0.04946511075154789,-1.8127431406964727,1.8325664050848205,-1.0142783288440698,-0.372758052372899,1.9853871004998749,0.07596594274526942,-0.018220857024016424,-0.4779690285204991,-0.5188058051113127,-1.041285205829756,-0.15846431969872746,-0.8877846048519042,-0.5221472957038786,-1.0036526543342421,0.32884956963670475,-0.6126703311057602,-0.3787538886861252,-0.5320643590189614,-0.46604824267015765,undefined,1495339342354
903d185fccf839df,0.1357481158054356,-0.5358349664445213,1.8574843081127814,1.9073823027097012,-0.09797246125781812,-1.8147742369718902,1.8407766572596929,-0.9255514043396774,-0.5659106879588165,1.5719939287691196,-0.0657039954103226,-0.07402552279586125,-0.7173225824420678,-0.5512100158101597,-1.0412852205542236,-0.012980597243504468,-0.8644123181045786,-0.5267070162146407,-1.0047651472452828,0.45088224862730447,-0.5898629237034977,-0.3825711227726777,-0.49312552354358224,-0.49000767521532745,undefined,1495339343856
903d185fccf839df,-0.06799604606473839,-0.441325464063001,1.576759296903756,1.6106465418462175,-0.031681141558292665,-1.8113549133923506,1.8996027922180136,-0.5127027749646723,-0.6295216274361072,1.4521400021832338,-0.040184008998862195,0.031002807240657987,-0.7956564728163993,-0.5289899574949827,-1.0433904807558172,0.003184251385502018,-0.8900345058928302,-0.5241231757479313,-1.0046811862365759,0.5022052696287571,-0.5696704459577694,-0.3944159124317856,-0.5330874550546132,-0.487673935489311,undefined,1495339345354
903d185fccf839df,-0.30639054039030617,-0.35855629087190066,1.654596361773155,1.6311834763644517,-0.18148203544312597,-1.7502636275505974,1.8569157794477198,-0.7036038390350482,-0.5256696628166455,0.5978702289199251,-0.052471714643459955,-0.032503174631687025,-0.8174158868092692,-0.37900492648922546,-1.0033904338542652,0.08198796264680266,-0.7606579870588898,-0.4474565591077343,-0.9996574749260505,0.584155796643914,-0.5169046343329602,-0.3704945850665511,-0.4934276600852659,-0.48524084003115225,undefined,1495339346893
903d185fccf839df,-0.23154568426501662,-0.22941284514523375,1.412789882998829,1.3792884113577288,-0.3477194700366095,-1.611918466332865,1.8642056124568167,-0.38985409686229505,-0.5599249965887896,-0.018616009487575153,-0.15742329560138935,0.005634798655687989,-0.9392686051693405,-0.327158197141535,-1.0370746927888026,0.09613230765679891,-0.7118072840457339,-0.40524115675355943,-1.0026521099384489,0.5130611732510576,-0.5037132079609042,-0.40655413483849717,-0.5408654484087227,-0.4945973579265759,undefined,1495339348372
903d185fccf839df,-0.17610508332556707,-0.24702329508887536,1.5518764940487615,1.3813494047952242,-0.6302058566219231,-1.6143548519727173,1.8839186401707426,-0.3192445097646558,-0.44630497892833176,-0.8980386540748626,-0.29038803541692015,-0.0009147019098670013,-0.9827874331550802,-0.17717308843113044,-1.0444431182188478,0.10219407289632346,-0.6845660298940344,-0.31794786058394203,-0.9910234098026318,0.47511940283674436,-0.4660030159991256,-0.3926270410118157,-0.5637294923225263,-0.4997460494130079,undefined,1495339349854
903d185fccf839df,-0.12759461788801574,-0.3749926231353225,1.9110772162810867,1.8272493860233796,-0.5870470697399598,-1.6795898534883131,1.9922929430409664,0.2459198844698932,-0.40473815440700744,-0.3711660756495217,-0.15574584277220835,-0.001278340154746221,-0.9044535427807487,-0.13180719863305443,-1.0297062599965234,0.0819879909115242,-0.7056784911861242,-0.3147877197898471,-0.9829211021712653,0.43055630335759276,-0.46751713358773406,-0.40132086698974334,-0.6040375534139667,-0.48946357211151276,undefined,1495339351359
903d185fccf839df,-0.14422684647742423,-0.6908070720885293,2.461680927834696,2.4661625433117456,-0.5206837532819777,-1.840461088195373,2.0673107805437594,0.37074316333009033,-0.17131839962628245,-0.033703486366435643,0.14294260379859566,-0.03400102537125608,-0.8304715352049912,-0.16328559731185574,-1.057074708877345,0.06986431910886742,-0.6658820653440872,-0.32310287450606273,-0.9969846913238073,0.3423386096246767,-0.49592411799084696,-0.40813861990433675,-0.5562839934914272,-0.4802372243645351,undefined,1495339352853
903d185fccf839df,-0.11512042919325449,-0.6450198437790764,2.5280340522335507,2.526425224356035,-0.4200999138106756,-1.8286867825442645,2.0185725879085723,0.06553857445733707,-0.05754649657779084,0.4709604392278154,0.23016125302743942,0.062183411821760695,-0.8000083556149733,-0.2234648291015758,-1.071811567099669,0.03753459358613291,-0.712651024147197,-0.38592567645019094,-0.9965648826712066,0.25515261087507374,-0.5391063160553562,-0.4355042308278411,-0.6054218589348969,-0.4813228939518927,undefined,1495339354355
903d185fccf839df,-0.1206644823861175,-0.6033417496844656,1.5895190048604062,1.6291047843732955,-0.4465341602888655,-1.8234762761630505,1.9837171303767762,-0.17665979669879497,-0.03151188795687013,1.0157380024996785,0.24621571897812272,-0.012522835782664577,-0.691211285650624,-0.4401099314466676,-1.0454957409574108,0.06380244081045672,-0.6776111914985665,-0.46337757674990143,-1.0124686339651718,0.32019564344397705,-0.5826075537463697,-0.3991461861446961,-0.539688633381281,-0.4516390437351255,undefined,1495339355871
903d185fccf839df,0.3478084264757236,-0.6009936896919801,1.373233466821077,1.4164629322306008,-0.14818722893024916,-1.841520891706977,1.9445119800111537,-0.36387349403875524,-0.12974848675946912,1.1248784579170912,0.24944129111517258,0.06013512344557603,-0.7042669340463459,-0.5151024793264826,-0.9991799134510778,0.24565726346781466,-0.6918432696493731,-0.5363394201705877,-0.9801153804714162,0.33467018445207897,-0.601012308421278,-0.43465081374705294,-0.4993112171748669,-0.47301886708184854,undefined,1495339357360
903d185fccf839df,0.34919430175230043,-0.633279485360664,1.3464370127369243,1.3483313510477692,-0.0014514794166123246,-1.857492484880222,1.9187688050986746,-0.4733554713557738,-0.15649095959251771,1.1932412014979925,0.2920901025607614,-0.012890043807060436,-0.843527183600713,-0.5725041973514182,-0.9654956545165404,0.38507907935990543,-0.6801375556807392,-0.5578017672843322,-0.9712154374033066,0.3833908644171247,-0.5984558217938503,-0.43735957827452016,-0.4842787231468188,-0.48601996921743834,undefined,1495339358928
903d185fccf839df,0.3866167298149452,-0.6825888621148299,1.25392531799697,1.2244792273551899,-0.0629599450739687,-1.8782786146057435,1.8974463523303027,-0.6625246491082872,-0.24593431988953918,0.5858207275321514,0.17510997029028974,-0.0013975621736841122,-0.8565828319964349,-0.5873175393430623,-0.9928641033973618,0.26384267224527447,-0.6911988893556802,-0.5568264945227537,-0.9431372347312608,0.3852694731999438,-0.5931036535449826,-0.43827826702413447,-0.44582513695104514,-0.5174437866232013,undefined,1495339360347
903d185fccf839df,0.267419517157571,-0.6591082037339897,1.2449929124986363,1.2620416860400125,-0.31378695293803277,-1.8743026033686798,1.9285411846239537,-0.5610826603905532,-0.24735784871176297,0.9430910741060372,0.1664183133505292,0.004097249266840334,-0.8391753008021391,-0.6002792184422913,-0.9991798987266103,0.21534809809353347,-0.6748598572073238,-0.5478590457717302,-0.9515194143572661,0.33614843327634997,-0.6002697332439286,-0.42441926379548006,-0.446226455110119,-0.5255091996248678,undefined,1495339361858
903d185fccf839df,-0.12482266030240369,-0.6820017886607238,1.373871604701079,1.3772269985395722,-0.5182563254000188,-1.8783857601538496,1.9227398449920425,-0.7065197296366857,-0.18748307245036713,0.9658377861258073,0.14228399812702072,-0.10099199503976118,-0.8391753008021391,-0.5586166673798199,-1.023390464667275,0.16079164564338178,-0.6900911876674491,-0.5701130100534054,-0.9357975796934321,0.3429699470322707,-0.6035670380502423,-0.4439693529380637,-0.46654091535806047,-0.5536580820015646,undefined,1495339363358
903d185fccf839df,-0.2467918305453899,-0.6303444103700571,1.1818302233628435,1.2665439441534643,-0.43540503595320595,-1.8540219182816176,1.9446776780560386,-0.49765827376593286,-0.24928683678985664,1.3867508039897332,0.13185431976454984,-0.07368150251157295,-0.7390819964349377,-0.5095474647476883,-1.0370746633398673,-0.02510429731088279,-0.7417184960859585,-0.5589037002316483,-0.9725588238988017,0.2760944975436112,-0.6256461697712618,-0.4327564651010939,-0.4892051338129972,-0.5215646018162907,undefined,1495339364856
903d185fccf839df,-0.10264630950931272,-0.6467808595454483,1.2775315909550107,1.3467040579502279,-0.3699674251088318,-1.844548902418377,1.9092646964285798,-0.6907358476308253,-0.25668413332070456,1.5643113269355078,0.18322619457498948,-0.039118994997453735,-0.6955631684491979,-0.48825329615720436,-1.060232606541969,-0.1766498415350734,-0.7857445357756427,-0.5571494746060075,-0.9870212330085596,0.1920959756820833,-0.6507812931892158,-0.42021156317101455,-0.45046294646092766,-0.5206723547123253,undefined,1495339366357
903d185fccf839df,0.019322860733673487,-0.6544120545210262,1.1665177097492354,1.2021511349021554,-0.4079627926156241,-1.8262410829071622,1.8770048564866855,-0.8823226117291211,-0.2969664495448522,1.4977748602719911,0.14636022405462507,0.02983752770230901,-0.8739903631907309,-0.491956634892809,-1.059179983803406,-0.12209341734964324,-0.8113116070750497,-0.5902454365310814,-1.0203890248134804,0.17347925599911065,-0.6796641508819301,-0.4275531752726304,-0.4996669077208636,-0.5077642677131771,undefined,1495339367863
903d185fccf839df,-0.17056103013270404,-0.6197781696318644,1.2462691882586407,1.323330185552683,-0.4595867088064153,-1.7937062692108556,1.7934375169246002,-1.403550121754589,-0.21542895885988803,1.2213014806862519,0.18092860539830616,0.06120002834206686,-0.7086188168449198,-0.344749020521027,-1.0528641811119237,-0.03520726764147858,-0.719102133616776,-0.5231162319838502,-1.017499342533119,0.22189196721677842,-0.6313786771068768,-0.4326008117448642,-0.5075360274145387,-0.5034545041058889,undefined,1495339369365
903d185fccf839df,-0.1456127907648205,-0.571642881329926,1.1454634800373042,1.0771216040816032,-0.539650585332662,-1.7561100190176036,1.7669106705314115,-1.5315434922536824,-0.26198775263581936,0.7454556409878557,0.09847442465805178,0.029532260645335217,-0.7042669340463459,-0.33826817449602525,-1.0412852205542236,0.017328568130776725,-0.7119443932610557,-0.5234708766138542,-1.0216764390241044,0.3551193172315119,-0.602686085230436,-0.44960542037676976,-0.49876751934622676,-0.5042106994498559,undefined,1495339370888
903d185fccf839df,-0.10957644501121094,-0.5657726728927275,1.4006680587852318,1.4711676433871115,-0.5591934123764478,-1.7768961498503217,1.7198529254520596,-1.8576421100686815,-0.20219449818878796,0.5716357006530469,0.18241631384600782,0.04918041044952668,-0.8870460115864528,-0.3086415358404481,-1.0202325449159493,0.27798690419638455,-0.6559184435072553,-0.5030471349983148,-1.0033867749336907,0.4326350909080781,-0.5716868050211011,-0.44156720236825125,-0.45596347496646117,-0.49391842743371644,undefined,1495339372391
903d185fccf839df,0.15238027538402465,-0.6009936896919801,1.281359401687226,1.2093300751155047,-0.47345183908304983,-1.8206718705174785,1.8015478522806814,-1.3561324690143626,-0.1961764335500994,0.31610425512619916,0.17124681290278748,0.002942428502671014,-0.8348234180035651,-0.30771571086962785,-1.0223378198420106,0.3386052066802254,-0.6617847384270594,-0.5025974960249032,-1.0042823663833498,0.5125068282591672,-0.5548236845925304,-0.4539180762236964,-0.44602476859258766,-0.49503134899821943,undefined,1495339373861
903d185fccf839df,0.14822237351101633,-0.6062768246750725,1.706275618712302,1.596154679194073,-0.3966793849529421,-1.854119746167943,1.8508646147718928,-1.0690983438365615,-0.05481084520016983,0.6294854777874108,0.26963169884879173,0.1178565510335321,-0.7869527072192514,-0.29845736403061623,-1.0181272920765896,0.32446083340550763,-0.6484886612307599,-0.4861065112204946,-1.0131473257335144,0.550694973490988,-0.5433447075076142,-0.4368332876449306,-0.4224320795909378,-0.4987243381827745,undefined,1495339375352
903d185fccf839df,0.10664183654290482,-0.6045157212247236,1.7343480944195098,1.812438414614008,-0.44540272859732705,-1.8534838641165217,1.9390367564354094,-0.48832235759321596,-0.0975617443160367,1.1296680605314389,0.15597539098128707,0.017224222156192796,-0.6825075200534759,-0.4391840481973619,-1.036022051644655,0.39316151780676944,-0.6432867004272563,-0.5308044284872703,-1.0324165428511811,0.5495092918319305,-0.5738822439969332,-0.43258997844523733,-0.3285787514248906,-0.48563703559843124,undefined,1495339376852
903d185fccf839df,0.24662931768433474,-0.6602822337302325,1.9576518784541155,1.9996487161513532,-0.3698954328455461,-1.8550910392665432,1.964206615337422,-0.31310533304284927,-0.135533019251363,1.9697508975405906,0.13017417975760157,-0.1752728554739726,-0.691211285650624,-0.44659077747166936,-1.0444431182188478,0.36689369884716716,-0.6730947409101377,-0.5466367883174668,-1.0192625385743057,0.4770288088335513,-0.5944959000453955,-0.4204451059618661,-0.3299015789975529,-0.48586360396681166,undefined,1495339378360
903d185fccf839df,0.14267818229651438,-0.751269675351017,1.8798145594477673,1.874754925782106,-0.2668841832048982,-1.8332637379575454,1.9848216666868999,-0.13139157355631184,-0.21049875757085026,2.110386207884809,0.12063254994336584,-0.07470055581959242,-0.007965686274509793,-0.5400999866525712,-1.05286417374969,0.1931213711661163,-0.7414166842378777,-0.6073127200683159,-1.0399241211971235,0.4540389316131196,-0.6311680687551557,-0.43860852309918114,-0.344913739865478,-0.5158521595012626,undefined,1495339379857
903d185fccf839df,0.03872725394115242,-0.7119396120208993,1.9621178270663329,2.0821510922057764,-0.0670433706532447,-1.8242588998099725,1.9453377508690002,-0.3269137096408937,-0.25364642536200777,1.6465205639726974,0.2299521197918623,-0.25426462883455336,-0.22555982620320855,-0.5669491698218494,-1.046548393144909,0.16281237538016433,-0.7666279646305192,-0.5906000833259217,-1.040266965272636,0.46554156955375714,-0.6210876963602626,-0.4314763838863678,-0.3979578192632513,-0.5095225074398493,undefined,1495339381347
903d185fccf839df,0.031797118439254195,-0.6837628628830803,1.8721584297094378,1.890760558017402,0.03863188408485773,-1.8016489737287356,1.9986702080601333,0.05599561274423136,-0.24079859789559666,1.5325691827300312,0.235650379225887,-0.128487193263976,-0.3735238413547237,-0.5502841649377903,-1.0676010540587157,0.04763770524033638,-0.7608669709189664,-0.5806826924031827,-1.0320317183691878,0.4916265340396463,-0.6112270504139313,-0.43235561019040725,-0.40641682076861874,-0.5026732587772835,undefined,1495339382864
903d185fccf839df,0.3630545037452774,-0.6526510095266621,1.7554023241314407,1.8058426821752553,0.1281688809878162,-1.810215916360737,2.0050764123092,0.3165146168165412,0.021602946616996934,1.1065646758114305,0.17614127683281458,-0.08985337816195982,-0.20815229500891266,-0.48547583419551815,-1.022337805117543,0.09411171924362406,-0.7133687978035613,-0.4810274894555296,-0.9491404987998882,0.5242558427674124,-0.532508590041347,-0.3715483457581127,-0.37173930285623225,-0.47861555660116933,undefined,1495339384403
903d185fccf839df,0.3644405860543126,-0.6420847395604772,1.6635282589975897,1.693864059825094,0.04725129497425334,-1.809037321375847,1.9440885883314583,-0.11419272996024224,0.008143973357515922,0.8395686684696698,0.023819429749289467,-0.004553005566337782,-0.6085255124777184,-0.48825330910797893,-1.0002325509141086,0.14866800210544653,-0.7363980897436071,-0.49418101291426947,-0.9574177259263048,0.6076692178458768,-0.5198256673803411,-0.36399993549374104,-0.42686943459294274,-0.4624224152911276,undefined,1495339385861
903d185fccf839df,0.3505803150505162,-0.6045158089087007,1.4887132966390697,1.4453895828865873,-0.08122734543091813,-1.7884561638117533,1.9046546565872382,-0.36453266874623436,0.09936132937937546,0.39197450093978387,0.10568961660014513,-0.027728722192958837,-0.6563962232620321,-0.3438232149763686,-0.9886535535452393,0.32648153487756865,-0.5718294325431053,-0.41154876543390223,-0.9406603640785259,0.5703279892675713,-0.4746590523787172,-0.37357421654206785,-0.4601865230183824,-0.4902245148221343,undefined,1495339387360
903d185fccf839df,0.12327406513231332,-0.5751649128626697,1.5397541615612653,1.4462521864430142,-0.3884302588648552,-1.792939949246331,1.8789745991838704,-0.8167994759425699,-0.042314718636376265,0.2920258707901555,0.18998080015981483,-0.02021755998428191,-0.3604681929590018,-0.38733737712815686,-0.957074576898997,0.4962125161439406,-0.5385541229106464,-0.39509577716761474,-0.900785538427446,0.6447178814667872,-0.44584307022200564,-0.37484322987942326,-0.44884878814635787,-0.4704147541227457,undefined,1495339388849
903d185fccf839df,0.047043195708808,-0.5645986428964846,1.5104056642310029,1.435417749533356,-0.4406095951457571,-1.7668804198453913,1.8450737671182695,-0.9749679501003667,-0.1765028986632063,-0.2520751949947273,0.14863913690118852,-0.037305844297161474,-0.3735238413547237,-0.32530650834757086,-0.8560218000953848,0.7710152820137093,-0.5537525544680069,-0.32821989437602517,-0.8186429794203668,0.7249591837029438,-0.3689381747826236,-0.3264469026187599,-0.5407297524969016,-0.43123892225271176,undefined,1495339390364
903d185fccf839df,0.07753548826955456,-0.48417750046987756,1.2647711205875125,1.0951747164894519,-0.47478897396055625,-1.6991787535301075,1.9029294956945697,-0.467584488268844,-0.3170522099939332,-0.5234126661359348,0.022274214600059596,-0.011018077561269816,-0.5824142156862745,-0.44751659596710236,-0.8539165693427262,0.5810781057036519,-0.6005176363028939,-0.45616435722335147,-0.8963145776841734,0.5458598668173054,-0.48431369855134326,-0.3475666058167263,-0.6084633126434799,-0.416676762368368,undefined,1495339391869
903d185fccf839df,0.05258731791249048,-0.22295562170991381,1.0631597041448397,1.0303159195147213,-0.4561615794506258,-1.5738982913320183,1.8099343065252267,-0.7684949440958702,-0.4606483098767568,-0.5366139027644989,-0.08544940395952406,0.10760516554295024,-0.8696384803921569,-0.4502941097318867,-0.8518112870544312,0.5305629996681791,-0.6634332128231147,-0.45500542809852884,-0.8715878480704645,0.5376370990760332,-0.4803734898265913,-0.360892284207587,-0.6078064623167729,-0.4435592570994941,undefined,1495339393361
903d185fccf839df,-0.2634240591347984,-0.40316945995711845,0.5738050304978652,0.631792765489621,-0.6317487132682377,-1.526938498259805,1.7584242921354214,-1.0963339581572118,-0.30330409359232136,-0.5278033863027329,-0.1910925365837521,-0.04234768352416191,-0.9131573083778967,-0.46418161380193595,-0.7833901685334947,0.3143578913396334,-0.7940721739422951,-0.5128885323908048,-0.8668440105896964,0.530600006976166,-0.5083615822086708,-0.3564642866647172,-0.6422323433107158,-0.44598222654098835,undefined,1495339394859
903d185fccf839df,-0.35628708813689275,-0.3174652117754112,0.29308001928884,0.17792234512330332,-0.6084927503837705,-1.5759340460668445,1.823853864114718,-0.7366445360934821,-0.16349381877843389,-0.6845886119572071,-0.2284700954650366,-0.0547573193690943,-0.7695451760249554,-0.49195664784358356,-0.7423374547199769,0.5932017492415872,-0.75698803507329,-0.5653823011817604,-0.8316920334915516,0.8966056632104723,-0.44064708062068086,-0.3456708016704524,-0.660015713285827,-0.22624950314708475,undefined,1495339396380
903d185fccf839df,-0.47687031409248265,-0.28576628496488693,0.1680296460925113,0.11147684642845317,-0.6901714634203883,-1.622796010632539,1.8001908684558308,-1.038406217007285,-0.2673542409938485,-0.9960614628050115,-0.15825054475640507,-0.08648454227004336,-0.5475991532976827,-0.5845400126275033,-0.827600743200468,0.758891638475774,-0.760900327685182,-0.5976359822676778,-0.8773252337600895,0.9106336451677027,-0.45887773511614943,-0.3580656232861539,-0.6679231351880428,-0.2615361868315342,undefined,1495339399209
903d185fccf839df,-0.43390383283697487,-0.38027575811841496,0.1150751299411575,0.10311548457006281,-0.7227359808403349,-1.6058065399469128,1.8071151456894587,-0.9685980406829398,-0.27669481946652286,-0.9968801761038499,-0.16709620772832964,-0.094872346994055,-0.5954698640819964,-0.5826883497350883,-0.847600766651244,0.7285825296309358,-0.77772848042667,-0.5954511167598808,-0.8911929132908044,0.9187332270955052,-0.4616197749882659,-0.3521657029938813,-0.6706947034971523,-0.25509164246759014,undefined,1495339399414
903d185fccf839df,-0.4671682210049724,-0.5258557114764578,-0.20967326260563504,-0.15291628428745654,-0.8677848865764073,-1.7260907848621538,1.904907104756666,-0.6816804113818945,-0.1911512150366278,-1.0309916907244512,-0.06925556961997176,-0.17514833334898078,-0.7173225824420678,-0.6345350467058424,-0.82233758533425,0.653820051725428,-0.7600258383602161,-0.6786090005752813,-0.8789834773078047,0.820475744979575,-0.5195165455894497,-0.4277600066514455,-0.5817173178304476,-0.21787249239588616,undefined,1495339400856
903d185fccf839df,-0.5032046357694014,-0.5816221655259819,-0.2575236922647693,-0.11194959691142603,-0.9127025234668587,-1.7910998524482633,1.915284323889518,-0.7145276227055138,-0.2276166448925687,-1.0766256499610245,-0.021547989633636813,-0.13907284487329216,-0.7608414104278075,-0.7400801035397657,-0.7949691290911949,0.8457777881839387,-0.6748168909096829,-0.7304694759674141,-0.855138345558704,1.077537391159762,-0.47941325164816556,-0.4122422531845877,-0.5588864265922414,-0.05261647931172169,undefined,1495339402346
903d185fccf839df,-0.6847724813518942,-0.7213318519908415,-0.22115720307617964,-0.277869706009615,-1.0598497063274577,-1.871276924393126,1.9506604683655715,-0.6600726417191305,-0.297391615083644,-0.9245612539657095,0.008327645451951521,0.006619797266430515,-0.3343568961675579,-0.7937784634029349,-0.7002321697035325,2.0783485348741997,-0.17603819051139616,-0.7711649723040949,-0.8182791455912178,1.9748971970721187,-0.27508478290812133,-0.4074143267083961,-0.5052984348296884,0.1984936799166881,undefined,1495339403861
903d185fccf839df,-0.6376479602017391,-0.7189837627703636,-0.3723661466136083,-0.42079915462442213,-1.0695696912071173,-1.9699271923786625,1.9457164347113518,-0.7835527307653765,-0.2772013451165796,-0.6799313811273177,0.0759589628138054,0.07054160913413307,-0.41704266934046347,-0.8048884666589743,-0.6907584546229585,2.365274831223018,-0.01642212272169382,-0.774141456015179,-0.8048592627457112,2.207644699561946,-0.22050264463409924,-0.4065940938802454,-0.4262082894644994,0.13715029287247055,undefined,1495339405356
903d185fccf839df,-0.14422677746660476,-0.7148746577835139,-0.16628801914786995,-0.17161980924511383,-0.8278043843144339,-2.0147813510052845,1.9182928117192763,-0.9256850878512524,-0.24960431679235173,-0.546983170651214,0.08562229787299869,0.052919756590128555,-0.6302849264705882,-0.7660034423120619,-0.7339164065513686,2.5329853371351008,-0.04710719239501845,-0.7379550167062813,-0.8396544018713222,2.175970085041695,-0.2173921436898134,-0.4373852367417302,-0.5474420590752059,-0.036351131379462324,undefined,1495339406871
903d185fccf839df,0.6069931892853472,-0.706069425504695,0.09082995669226632,0.11625289131628762,-0.18514374671163428,-1.9681569699243564,1.943702001068112,-0.35469411087339653,0.6011022969007535,-0.3469679127353538,0.12364284341961923,-0.038659555063235894,-0.5650066844919787,-0.7511900873696433,-0.6402320993512044,2.985601324865055,0.18284097471093794,-0.7117809611575568,-0.6987736150590559,2.6552159031376514,-0.0693966996200982,-0.3511146762928165,-0.36282479869026857,0.1266412610151614,undefined,1495339408363
903d185fccf839df,0.6873819260764511,-0.6461938737753192,0.11443724619810476,0.07851289867526975,-0.10333130998300823,-1.9345600229422035,1.9563014077940708,-0.22823989243530404,0.5283487053265725,-0.4167019536916723,0.15823690542391966,0.015838399333398923,-0.7042669340463459,-0.7511901132711925,-0.6665479328556965,2.7815200296627736,0.2086812030851246,-0.6993493920046066,-0.7093667867936327,3.2903555830260487,0.08272281910994471,-0.3695016575641582,-0.28546073516643483,-0.08047505745261728,undefined,1495339409873
903d185fccf839df,0.7206463487498583,-0.5481622667910744,-0.17522042464620358,-0.1857607659508234,0.007538216302099293,-1.8557292509925407,1.96481145808756,-0.07842482905271307,0.27278786598722815,-0.46307728094389994,0.17811732521296014,-0.0208949645802865,-0.2864861853832442,-0.6891592380152192,-0.6486531696065141,2.9088183433405366,0.13088249743017477,-0.717721262039044,-0.7307980192612936,2.6490719245488794,-0.07323106671504487,-0.3565577691162818,-0.1623630749045999,-0.19124260697552645,undefined,1495339411356
903d185fccf839df,-0.5059766623658329,-0.6514769795304194,-0.5809958090515576,-0.6322833211401675,-0.6935760363319945,-1.8838501551940434,1.9150844452084974,-0.8208150899077457,-0.3711828661952321,-0.5955533624722323,0.14677547503713126,-0.12105365296076455,-0.4649133801247772,-0.7048983985022962,-0.7444427296460381,2.2399971624878723,0.007713895641312606,-0.7741287918608007,-0.8040056512498699,1.6415054455736608,-0.3539451826042699,-0.32187410159518337,-0.00566972995617418,0.052364406275181984,undefined,1495339412913
903d185fccf839df,-0.7554591940663072,-0.4918087831294326,-0.8011099202339502,-0.8636052537563744,-0.8809300082537946,-1.956408286547489,1.9369197269363903,-0.7963943118747459,-0.3209790389692662,-0.6052469139559664,0.11677407712843682,-0.13608035081504033,-0.8000083556149733,-0.7724842883370636,-0.7412848319814138,2.1106781756027697,0.25533573290237477,-0.8469703095896931,-0.8554112207852854,1.383843259482576,-0.45981442508870785,-0.26604632687251456,0.15624527085843798,0.28622058235611947,undefined,1495339414352
903d185fccf839df,-1.0132579435777151,-0.6773056979037451,-0.8885172743447355,-0.9152134732793352,-0.9927046781648832,-2.0251255018739167,1.9343293679058946,-0.9284021823367571,-0.28403658347563815,-0.7057370814210113,0.08727955984009116,0.01324109237416163,-0.7347301136363636,-0.986351912532001,-1.0339167951241783,0.7063557461740756,-0.42406839247078953,-0.9823749781899106,-1.022159217671661,0.5801983942256459,-0.7317659042043726,-0.37255537629231994,-0.05776490229690574,-0.022767294914828644,undefined,1495339415861
903d185fccf839df,-0.8413922255881423,-1.0025123064499153,-0.849598741910036,-0.8988135566338034,-1.0233251978382971,-2.12003967079187,1.9412405081687047,-0.9618877435972578,-0.2912135700366513,-0.6860865726520655,0.09125158849793348,-0.015225189766791871,-0.8087121212121212,-1.0307919287938523,-1.1739169519173769,0.8781075278390339,-0.47304684860849433,-1.052550326685988,-1.1395657045982643,0.311310739169475,-0.8472926701618961,-0.44699289230686495,-0.5573342157219433,-0.41771631007058313,undefined,1495339417400
903d185fccf839df,-0.6445781302090471,-1.0001642537644277,-0.7258243903367623,-0.7765779080666302,-0.7132937162243923,-2.096251150839735,1.9325437371154488,-0.9147000883611393,-0.2849895341965239,-0.8259296440559222,0.09913085955229758,0.04424431934479172,-0.6563962232620321,-1.0196819384885873,-1.1739169519173769,0.41134705377547615,-0.5954354528428509,-1.0507644366132567,-1.1371657983880423,0.13562987602861606,-0.8858734780446252,-0.4405342701194876,-0.5840467993007833,-0.48439644956336253,undefined,1495339418860
903d185fccf839df,-0.345198947245757,-0.852823357709994,-0.4368051115094055,-0.49386033861663525,-0.8332660857689039,-2.035828356202746,1.9608930404515097,-0.6878317487749632,-0.29922012386004576,-0.8646234240857679,0.0955445493179294,0.06950196153836648,-0.5737104500891266,-0.9446893970841597,-1.0191799221773863,1.1832191623035078,-0.35951831897720854,-1.0049582558196437,-1.0249019674374455,0.8483161207360661,-0.6672228845295222,-0.4300903125877371,-0.556435705588002,-0.43975685264047565,undefined,1495339420355
903d185fccf839df,-0.14422670845578528,-0.7442254807595641,-0.08908883802152379,-0.21972221923595803,-0.5688619553814279,-2.003139813022947,1.9462082021976836,-0.6922811095659211,-0.3081102984179313,-0.8804634433909515,0.1463040422086564,0.06951941378780423,-0.6825075200534759,-0.8993235267122456,-0.9423377260389063,1.3489090515376945,-0.4504182168620216,-0.9542377096139681,-0.9663596511809599,1.2300281813230887,-0.542011388891516,-0.43643222813620636,-0.6006028289532404,-0.49636016525038135,undefined,1495339421864
903d185fccf839df,0.11634386061959562,-0.7483345419044253,-0.024649873125726543,-0.037529238037622245,-0.5066437762463177,-2.0000628879984883,1.92108829751498,-0.8512085883507448,-0.33162074686520243,-0.7378608858499413,0.16891778641061336,-0.09619433686590478,-0.4605614973262032,-0.9002493581584531,-0.9054955620775109,0.8296127417018814,-0.6829136997235014,-0.9281206501597004,-0.9048576839603423,1.6318506131303527,-0.4196064886549442,-0.45758657291788596,-0.6517271552181986,-0.6700927678087207,undefined,1495339423358
903d185fccf839df,0.2244531049128827,-0.7277890023561806,0.017459094572034258,-0.006772212417181678,-0.28482243439883076,-2.013488623152845,1.9419268863489554,-0.6642095580268479,-0.3440023278776986,-0.7981776098677316,0.252754143316653,-0.0670175519541491,-0.0775958110516934,-0.8937685250842259,-0.9065482216272429,0.8114274459833077,-0.7312580916654989,-0.9122122955977985,-0.8606658266345268,1.203065500923425,-0.5049623363758323,-0.4694935484407357,-0.6442610657383986,-0.6162938803346095,undefined,1495339424908
903d185fccf839df,0.22445303590206322,-0.7923607106055178,-0.14523378943593895,-0.18400966377752048,-0.5208483259109778,-2.019111406335724,1.9335115100276794,-0.7881879213868134,-0.4056948386773735,-0.7950581867269068,0.23086788019311383,-0.10417940862516507,-0.4126907865418895,-0.8993235267122456,-0.898127121922998,1.051879728328838,-0.694355792930543,-0.9094701306588245,-0.8434956524862444,1.2214204469395744,-0.49651326146161545,-0.4755561905814255,-0.6315431671309807,-0.5840854226481226,undefined,1495339426361
903d185fccf839df,-0.336882798445643,-0.8111452197733946,-0.461049268210499,-0.46361287937461304,-0.9567767358628491,-1.9833645718884625,1.953845170311504,-0.7385611772982797,-0.36905591695709034,-0.7641832867529498,0.18968233847754765,-0.050812281572043816,-0.5737104500891266,-0.9085818800266444,-0.9833903883167877,1.3549708167772192,-0.4571018400641782,-0.9271643747840843,-0.9349509677183256,1.3633479151581842,-0.5058549021176909,-0.47443915228002403,-0.5738473745665457,-0.4071452155141487,undefined,1495339427861
903d185fccf839df,-0.6806144759626567,-0.7964698302063637,-0.5924797495221021,-0.5984860285632077,-1.3341075299646112,-1.9483910442363532,1.945453456460031,-0.8570375049506382,-0.29650685182623193,-0.607715829459301,0.18084995015349586,0.06933305604459081,-0.678155637254902,-0.9354310437697608,-0.9939167408603924,1.1003743024805788,-0.5968536886583532,-0.9605453203262674,-0.9587121370395612,0.757988834901718,-0.6627113461597437,-0.4603841556603467,-0.5768267819265811,-0.41376709687529395,undefined,1495339429353
903d185fccf839df,-1.0229600539179302,-0.7935347990577453,-0.7302900848120303,-0.772476585461366,-1.5951996625488263,-1.9951225703620747,1.945887375602815,-0.9273918066492338,-0.25062213890826657,-0.6191576553696139,0.14285668509564156,0.05819704316166189,-0.9175091911764707,-0.9391343792676718,-1.0286536262146098,0.3204197272409618,-0.7481150012869276,-0.9944898984204783,-1.0376081762586418,0.10954490347880344,-0.8496915807841403,-0.4504332912290316,-0.5822323346086533,-0.3506168075961466,undefined,1495339430858
903d185fccf839df,-1.0839447425556525,-0.935005530516969,-0.8106797012014377,-0.8447777591660152,-1.6178796263411244,-2.005089385865487,1.9530010102085649,-0.8982769470744559,-0.2684566958693687,-0.6317813680698405,0.1395516654023978,-0.021871000798103734,-0.8174158868092692,-0.9483927261066835,-1.0560220677331973,0.15068861878334291,-0.6923178026623756,-1.0390674890763738,-1.1094094493282938,-0.12309481040446733,-0.9447147224833807,-0.43600109113011914,-0.5167822518548848,-0.26464433930952713,undefined,1495339432361
903d185fccf839df,-1.1393853262423972,-0.9849018491992755,-0.8661867688728002,-0.9065064712712246,-1.5846362526565707,-2.0037454154624124,1.9349000598742676,-1.024288393837207,-0.2761934278539632,-0.6715158353855498,0.0946974644780222,0.03476952451324976,-0.7738970588235294,-1.0724544571924681,-1.209706471053508,-0.8070794750960355,-1.0468775800426178,-1.0959753208728313,-1.1959669972097344,-0.559856314458175,-1.087363351587286,-0.4415837329466817,-0.5246812737352925,-0.35340725605809364,undefined,1495339433857
903d185fccf839df,-1.1282972198566712,-1.0753022465939461,-0.8336480904164257,-0.8734353205837629,-1.5147140824726146,-1.9446223357300205,1.9365594580034147,-0.9704366737815996,-0.26786159016459926,-0.6470383126978171,0.09632851962517512,0.019577420251738597,-0.8217677696078431,-1.116894486405094,-1.277074977879232,-1.0414699922020412,-1.2614976367953767,-1.1309395029655422,-1.2313148857892928,-1.055578463958282,-1.2240519312322218,-0.451146803092249,-0.6247682414126412,-0.47655225675675295,undefined,1495339435366
903d185fccf839df,-1.1282972198566712,-1.0753022465939461,-0.8336480904164257,-0.8734353205837629,-1.51494036784347,-1.9446386403886895,1.9363069947758615,-0.9721518757014175,-0.2678349670484317,-0.6470203101982962,0.09636273343502526,0.012361629743655555,-0.7826008244206774,-1.116894486405094,-1.2781276079800288,-1.0414699922020412,-1.2639920959123345,-1.1308191770412084,-1.2322874424705659,-1.0559018313261161,-1.2245515057549534,-0.4510201702489491,-0.624774743275726,-0.47632534054388254,undefined,1495339437126
903d185fccf839df,-0.8968327230113627,-1.0254059132976436,-0.7768652552589579,-0.8058495314914605,-1.3490217899061916,-1.9811191845394835,1.9369013335012104,-0.961590672652386,-0.30884673214495534,-0.6304587156204751,0.09706154459094894,0.000681195934773651,-0.5954698640819964,-1.1057844734359736,-1.2802328718627394,-1.0293463415979254,-1.2639920959123345,-1.1139482152175162,-1.239885979070403,-1.0573184883879485,-1.223889709409545,-0.45039691867198967,-0.6359610743082909,-0.4864386037159348,undefined,1495339438358
903d185fccf839df,-0.5808213804694835,-0.9637692508109209,-0.7819693417511775,-0.8167150914442782,-0.942068186517167,-1.9972235449511244,1.9333695069257735,-0.9246470808601039,-0.3113521556206934,-0.6459092386948486,0.09359388457348654,0.02705192219376688,-0.5475991532976827,-1.1270786614526194,-1.2728644390704602,-0.8616358710167441,-1.206347990451017,-1.1322377566630208,-1.2236673722718348,-0.9673453710529546,-1.2091649176999544,-0.4517718952516025,-0.6323995107192716,-0.4585283434058148,undefined,1495339439907
903d185fccf839df,-0.47687031409248265,-0.9567250708334643,-0.7628292715423035,-0.7901895399668482,-0.7626753450233809,-1.9971094122244661,1.9356758461346737,-0.8705823141169865,-0.29494844545401055,-0.6456690685419044,0.09028434676230573,-0.0038201752274730516,-0.5780623328877006,-1.1205978186653114,-1.2391801911792735,-0.7767703521188366,-1.147065576096279,-1.1300845558957577,-1.2089250917424417,-0.9077071917317884,-1.1905758328275993,-0.451608815688179,-0.6342664669332585,-0.4391258033340047,undefined,1495339441769
903d185fccf839df,-0.38262134080299204,-0.8757169426367281,-0.8055756147092182,-0.8451893982377303,-0.7875770168633336,-1.976831056642095,1.9386685677139115,-0.8325570218750684,-0.33948553520095176,-0.6529191308651681,0.08768598076568734,-0.06284471504397228,-0.32565313057041,-1.1030069758596575,-1.2307591282861976,-0.6191629295962353,-1.0746772194131415,-1.1160570856005045,-1.199395435206066,-0.7447916376850067,-1.146151193550615,-0.45158900268123425,-0.6109877046027308,-0.4309449083760286,undefined,1495339442866
903d185fccf839df,-0.3784632318975253,-0.9273742916994024,-0.7730369362528438,-0.8105076990124369,-0.7121211447814909,-1.889267967591789,1.9183480611612533,-0.8832286626793683,-0.38281457812691844,-0.6117756104625756,0.08296131371351999,-0.12667375551203844,-0.21250417780748662,-1.0270886030090223,-1.131811644814231,-0.3241541736020124,-0.8605051852887123,-1.0515877190753875,-1.1323869778438547,-0.346849615799533,-1.008746364407912,-0.43784376342444953,-0.6084590027962096,-0.39117974352708634,undefined,1495339444354
903d185fccf839df,-0.4505359924155639,-0.957899100829707,-0.7743132120128481,-0.8164360259065536,-1.067337692271072,-1.818119025469084,1.9283781347141646,-0.8036794553710774,-0.36885090741970566,-0.6112094358020395,0.07486569351907589,-0.008373395383211689,-0.33000501336898397,-1.018756087616218,-1.0591799690789385,-0.36456634463779125,-0.8314820186441311,-1.0275795294891978,-1.083731155062495,-0.2909378599263482,-0.9671189547670476,-0.43878483457980366,-0.6336040094705075,-0.44077256277650123,undefined,1495339445851
903d185fccf839df,-0.737441090200322,-0.9596601458240711,-0.8119554686875432,-0.8560351113753429,-1.179544360493525,-1.808809056960867,1.9202415112749043,-0.8761963601138053,-0.278604136894485,-0.6224070339214406,0.07475659783930841,-0.09960729391255108,-0.6607481060606061,-1.0354211086887453,-1.0623378814680302,-0.332236604982696,-0.8219598008734588,-1.043177569390121,-1.0765664207981822,-0.29766697930745595,-0.9702410657186642,-0.4369835895425027,-0.6176881600985776,-0.44577744101445604,undefined,1495339447382
903d185fccf839df,-0.9411851830596765,-0.8639766426743003,-0.837475901148641,-0.8920968093636215,-1.358546345783923,-1.8246735055024779,1.93287772686918,-0.8371343187957551,-0.2592388440419815,-0.6498396220075684,0.07602776570980564,0.010831456898308226,-0.8130640040106952,-1.025236940116607,-1.0276009813893454,-0.07561945987579863,-0.8169219387346015,-1.0374715873582574,-1.0500834915810227,-0.1828407712375525,-0.9342419049466352,-0.44253322327294814,-0.6239636645384226,-0.4629952052249065,undefined,1495339448892
903d185fccf839df,-0.92039501809185,-0.860454552685572,-0.7883491957295025,-0.8342619151656753,-1.241772827132144,-1.8219040395183932,1.9157787311307706,-0.9238808397371299,-0.25765274843342867,-0.6359888806262175,0.07419090717013326,0.030875366710370167,-0.8783422459893049,-0.9983877537096353,-1.0549694339512836,-0.021062979160925407,-0.7388085543235935,-1.0035396754337713,-1.040427891672,-0.17484897677201036,-0.9136637488393878,-0.42035683361452103,-0.6039421854248972,-0.45983481921911334,undefined,1495339450369
903d185fccf839df,-0.8621823905559689,-0.897436556023204,-0.6333129497337574,-0.6971567871675067,-1.168137523352091,-1.8032747822488682,1.9140036132690486,-0.9114491730718705,-0.26682271137591984,-0.6108124112664556,0.08121355427699922,0.05267759642292086,-0.7956564728163993,-1.057641124913905,-1.1444432501971957,-0.40901972076464144,-0.9172032355618612,-1.0384848590331868,-1.0733758741330923,-0.5515873410953595,-1.0225127249175214,-0.4209221918679344,-0.6155504469527675,-0.4568367567174209,undefined,1495339451859
903d185fccf839df,-0.8760425580435361,-0.9103508859818746,-0.6454347739473548,-0.7264258754856849,-1.1537992624846753,-1.7298851129019177,1.906747974513871,-0.862747739190663,-0.341332758438978,-0.570583246049455,0.06810973848591001,-0.0008970493438721263,-0.9218610739750446,-1.0641219644635196,-1.188653817501935,-0.324154258396177,-0.988607856880739,-1.0663751429109076,-1.1219967120954362,-0.4974926039791928,-1.0410463581797758,-0.4285130562906616,-0.6188447078841378,-0.4678428292019654,undefined,1495339453407
903d185fccf839df,-0.927325050077519,-0.886283212602913,-0.6741456416715139,-0.7220043676800098,-1.157913541516119,-1.757833654790278,1.913843195781527,-0.8445847518475679,-0.30612094843044135,-0.6353685896740155,0.053351102614760816,0.02773757354394471,-0.9088054255793226,-1.030791932031546,-1.096022133040334,-0.3261747973460891,-0.9791512536148201,-1.0142676818239533,-1.0712628358352947,-0.3276631495828926,-0.9668206585246342,-0.4243542229571806,-0.6389806108932057,-0.478690335863089,undefined,1495339454860
903d185fccf839df,-0.7610033162699897,-0.7189837919983559,-0.7685712417775759,-0.7939909460312641,-1.256944232866563,-1.8191299149770461,1.9351156922355468,-0.7763372703006413,-0.31848162729418045,-0.5989500087570115,0.0470487376386247,0.01060412466808475,-0.9349167223707665,-1.0400502691574767,-1.0844431651203998,-0.4352876598493102,-1.0310685874439214,-1.0292514267861295,-1.0858721768295727,-0.472054374821314,-1.009621990395206,-0.4305934571449528,-0.6300938036959187,-0.4687340872032365,undefined,1495339456373
903d185fccf839df,-0.7318969679966395,-0.824646608572175,-0.772399052509791,-0.7640306902361294,-1.289231034880058,-1.8497896902114208,1.9454850161966382,-0.7597193562473114,-0.3010457872582479,-0.6102625656576844,0.05928538983502833,0.028197535391015292,-0.9392686051693405,-1.0520861038597236,-1.1812853883907728,-0.6656369153348015,-1.1476678334314014,-1.0702825684511654,-1.142441393587194,-0.6302580044672959,-1.0780732062496314,-0.45361878046728166,-0.6664901805204536,-0.5044723079271842,undefined,1495339457846
903d185fccf839df,-0.5891374602587781,-0.791773739449385,-0.8349243661764301,-0.9213922862822854,-1.090542228022699,-1.764101638993793,1.9078630153725435,-0.8870209507405179,-0.24511415805262715,-0.653173066952358,0.07007295922848589,-0.0031585882341841724,-0.9262129567736186,-1.0456052772608837,-1.1686538087756266,-0.7444406336622825,-1.1517742384338778,-1.0734427073240373,-1.145617945706854,-0.756941015975096,-1.105369889414866,-0.4531869662390001,-0.6560051267980038,-0.49036873606476855,undefined,1495339459351
903d185fccf839df,-0.7097207552251874,-0.9520290093044778,-0.7781415310189622,-0.8750107791319828,-1.0271000475211207,-1.7019808302014823,1.8934990194264132,-0.9109856736275385,-0.27968876449022567,-0.7046508605930325,0.07865598657320962,-0.059831320191442376,-0.8739903631907309,-1.0511602788889034,-1.0791799925297145,-0.6110805194140928,-1.0410232893202036,-1.0622523959014523,-1.0878172908221755,-0.6707097193892334,-1.0637803281300764,-0.44648905536794264,-0.6595958330202721,-0.4432527849435084,undefined,1495339460885
903d185fccf839df,-0.605769757859006,-0.9027196325503118,-0.7022181173787215,-0.7651909459621464,-0.5364620210612084,-1.707030620727945,1.868013574681068,-0.9255080417379185,-0.39069714457152593,-0.6422640844500701,0.059147836604441915,-0.1146408692751203,-0.3038937165775401,-1.0104235948872695,-1.0033904191297975,0.17493590585921343,-0.750822628672741,-1.0465720284635631,-1.0179261482168105,0.12917792558267255,-0.8650146308077937,-0.4218297521808803,-0.4457999206339763,0.19906396360950288,undefined,1495339462373
903d185fccf839df,-0.20521136258809786,-0.8299297143272751,-0.4833797736824343,-0.5560860388430402,-0.4631249991323951,-1.6924891790654197,1.868229216470043,-0.8115782084695615,-0.3145910034935076,-0.5638844974208503,-0.057763044762944145,-0.029708943738584126,-0.4866727941176471,-0.9641319027822286,-0.9318113808575355,0.6235108368878841,-0.5063929452459225,-1.0018297811391756,-0.9664576081297863,0.35225520627080414,-0.7822220126879884,-0.39550021753499975,-0.43765462236558184,0.19020025498003806,undefined,1495339463850
903d185fccf839df,0.21059304094154466,-0.5857312412848393,0.2356590462513699,0.12028552146794072,-0.006532614157720957,-1.623350370955368,1.858306952812641,-0.5873808588517008,-0.14042111428201265,-0.43727415549532556,-0.11189852985724627,-0.058988982762758636,-0.852230949197861,-0.8734001749891748,-0.7791796113191385,0.7689946512034521,-0.4197062841954442,-0.9292162493882059,-0.8548864622206133,0.5075023324256016,-0.6775920421270989,-0.371285127120306,-0.4992918374895633,-0.0031510651064091248,undefined,1495339465343
903d185fccf839df,-0.0943302297200182,-0.6714354894665465,0.2356590462513699,0.07188797825495521,-0.3194440782150821,-1.5560656389679233,1.8511933297296304,-0.6348148904944414,-0.07676578515871348,-0.4584854729084046,-0.09964006852135505,0.006107451384659157,-0.8696384803921569,-0.8289601425388554,-0.7707585557882964,0.6315933389303716,-0.5892664141747367,-0.8984001452602333,-0.796819929330073,0.5840172069327623,-0.6268898088143202,-0.40170247137381004,-0.5569948410652329,-0.15062151492507142,undefined,1495339466908
903d185fccf839df,0.22999729612738465,-0.6039287646825869,0.11252257842114886,-0.019749458995167824,-0.30336752989095217,-1.5439931916645935,1.8529816044650842,-0.5749554050181706,-0.12738410314438176,-0.4646078410005338,-0.08438593037986793,0.021399008451972634,-0.9349167223707665,-0.8169243207873831,-0.8086533130393198,1.100374359010022,-0.4363749117022489,-0.8212522245683544,-0.7335337752074443,0.8277592000770416,-0.527981244246536,-0.412555378763545,-0.5598487247684262,-0.19861601530216522,undefined,1495339468362
903d185fccf839df,0.2313833094256004,-0.6039287646825869,0.11252257842114886,-0.010717011365728604,-0.3196909312850524,-1.54395592387335,1.8513590141567318,-0.5883086886751133,-0.12731264734890466,-0.4536698040599258,-0.08439527067670449,0.018455648496711365,-0.8826941287878788,-0.810443468286994,-0.8065480675621937,1.1205803562006567,-0.4274618157267312,-0.8176931100777068,-0.7313087892018515,0.8347654921492981,-0.5245357411099422,-0.41415776786261516,-0.5569595275348708,-0.205139813515641,undefined,1495339470781
903d185fccf839df,0.2577174585754705,-0.6168431530972421,-0.09100299752458084,-0.24547908010989966,-0.5222574498369327,-1.5181409649798885,1.8346939291809325,-0.7057069965524664,-0.3371045832082906,-0.6136124046744685,-0.07447091722830122,0.008142990455570204,-0.7521376448306596,-0.7845201165639233,-0.8097059799512855,1.0882506589426437,-0.4587826619071491,-0.8033426598653001,-0.7221569605751578,0.9280954715339443,-0.4967904849498916,-0.4232397983750472,-0.5890989885017585,-0.20739598220951896,undefined,1495339471348
903d185fccf839df,-0.2953023649937607,-0.5916013912660532,-0.2670939815061557,-0.4323654200778171,-0.7918558648048086,-1.4670770540049918,1.8295263606610204,-0.7196700192523174,-0.36246506827533365,-0.765013514633743,-0.05448043245034346,-0.048129015620146216,-0.3517644273618538,-0.7502642688742104,-0.8033901698975694,0.7063558309682403,-0.6028523003220834,-0.8134943680652494,-0.7533137598555467,0.5416560880602888,-0.5968346804039626,-0.41426351033095177,-0.5946481330920577,-0.3250718751459032,undefined,1495339472868
903d185fccf839df,-0.33826891526008795,-0.33155351327433985,-0.09865912726291018,-0.2703309016817891,-0.8241426724737765,-1.5256644076436041,1.8161432735504166,-0.8390236186859393,-0.39282269967414407,-0.7755375206223452,-0.12671679509060688,-0.08134159519247533,-0.2516711229946524,-0.6595325410811566,-0.8265481204619048,1.0559209334199091,-0.3376472800453656,-0.6817754732057205,-0.7194841778048349,0.9103564645068669,-0.4538656269854007,-0.468400036916677,-0.5233091979132987,-0.22516159713159714,undefined,1495339474359
903d185fccf839df,-0.44221991262626936,-0.2194335317211855,0.26436940570163026,0.07812532954386156,-0.8598957587743776,-1.680018432852494,1.8714980511763764,-0.743425181098826,-0.4042391314094092,-0.948319576134094,-0.12558560859344664,-0.0114136559052162,-0.2734305369875223,-0.6308317014948505,-0.8644428777129282,1.5388462561124734,-0.3109672781964764,-0.66826730484568,-0.7262430967691497,1.1631835389028273,-0.39729982950646225,-0.4873049856572914,-0.5685272916975858,-0.11269699435799525,undefined,1495339475854
903d185fccf839df,-0.3368829019618722,-0.5998196012397526,0.014269167582871745,-0.07914170477522721,-0.8463700652782989,-1.9037302133219394,1.924438676555361,-0.719709745491015,-0.3082722760312812,-0.9064234230594966,-0.07452354220498485,0.009589971751395148,-0.4300983177361854,-0.7160084276598846,-0.7823375310704641,1.356991461719837,-0.3423373758479245,-0.6852332609075832,-0.7685248240038189,1.3763750171432623,-0.3721227629058295,-0.45778389628270416,-0.6322391205251088,-0.12377367067678824,undefined,1495339477364
903d185fccf839df,-0.42697383535671557,-0.5869053151230705,-0.615448647010989,-0.6639449960873234,-1.1201650319005527,-1.9256180731898067,1.967596434097105,-0.5988117519688958,-0.4348592088279237,-0.7144718465057286,0.06534675371707381,-0.00437844945634948,-0.4649133801247772,-0.7058242364238909,-0.8160217900050015,1.3145587093370636,-0.3038070792129886,-0.7635527758032862,-0.8621281598263676,1.1817232663989556,-0.4710869596584791,-0.41999629839218106,-0.5383209973633526,-0.04026717188390933,undefined,1495339478851
903d185fccf839df,-0.4838003805835614,-0.5957105254808952,-0.7156157090784243,-0.8028591673996683,-1.1709043776939179,-1.8944481938618118,1.9411668862419842,-0.7716004172961797,-0.39082470052151463,-0.8122567246851197,0.05069314521826239,-0.023840271562460692,-0.5911179812834225,-0.7252667518350407,-0.8244428602603112,1.2761672468395262,-0.27506479460996586,-0.7834065541765434,-0.8667810392612209,1.1500794611683844,-0.48932895088723616,-0.41514294071848756,-0.5016590844816599,-0.022034035737096187,undefined,1495339481267
903d185fccf839df,-0.573891279472995,-0.6638043237189608,-0.8604447986375279,-0.9020711922535833,-1.2360231262706254,-1.8620787567008532,1.9248463123288142,-0.8845851540537597,-0.3379205381839998,-0.6970433049299181,0.04959821331358384,-0.09576832961890612,-0.6955631684491979,-0.7021209009259799,-0.9054955547152771,0.9306432364200423,-0.2983037056104757,-0.8079213791406542,-0.947111424361348,0.7694606842442452,-0.6051464476891059,-0.38218607706353275,-0.38559284152485385,-0.10655935782134153,undefined,1495339481851
903d185fccf839df,-0.7762494625503631,-0.9866628941936396,-0.8840510715955686,-0.9194207110625696,-1.23611569722989,-1.7900982771518323,1.9169726692359181,-0.8780452377431904,-0.30290921436721535,-0.675401539201029,0.07184848425655403,-0.2180607398251705,-0.6825075200534759,-0.9122852025737809,-0.8591797382522948,1.6520002247802403,0.008516315444148171,-0.9178866119921885,-0.9157867029350869,1.109550751219055,-0.5585928114089356,-0.37549571565375817,-0.36744194418685083,0.3842161897273434,undefined,1495339483402
903d185fccf839df,-0.7083347936850863,-0.8815871510739266,-0.8834131878525159,-0.9375213336654681,-1.2721362092068538,-1.7324309747479727,1.9099090150375218,-0.8537187126802547,-0.3472629331418395,-0.6686355165037774,0.07077595073407714,-0.1384712759688991,-0.4126907865418895,-0.9835744117179912,-1.0107588666465441,0.47398584574596647,-0.5540445979221607,-1.0283774806693826,-0.9853000192823765,0.6218665855570262,-0.7259917283738888,-0.411706325278133,-0.5485705554344064,0.23488747374628624,undefined,1495339484911
903d185fccf839df,-0.5946815824624605,-0.9267873059292735,-0.877032825600292,-0.9218480488431928,-1.0807296718196802,-1.7689231658065605,1.9158602607995137,-0.8251959095700546,-0.37290504845182904,-0.6531090554562561,0.07003367262332048,-0.09778294782343258,-0.5519510360962567,-1.073380295114063,-1.1254958421227488,0.22343045174623288,-0.7691074548414413,-1.1151198100026904,-1.08671179603718,0.2776497374642797,-0.8717520213157365,-0.45801138002481206,-0.5705963406464837,0.18346455604282977,undefined,1495339486353
903d185fccf839df,0.7996491757589756,-0.7101785962545275,-0.7098742471170508,-0.8452828635471957,0.11203062100811345,-1.6939938699060604,1.7814719132600547,-0.9846344860093151,-0.232988360067997,-1.5209705679589878,0.07143770325317043,0.03103330173490298,-0.6476924576648841,-1.0326435981616546,-0.8507586569536344,0.575016241537602,-0.4483858815945251,-1.016262560787625,-0.8942505198213071,0.4382401272718074,-0.7506528029757035,-0.23361313969746694,-0.3307258798912748,0.6788883128153355,undefined,1495339487869
903d185fccf839df,1.478796381992889,-0.809971204391148,-0.5561132603335125,-0.7639534980415766,1.1140632249673228,-1.7448341720604463,1.7391583378192077,-0.884619188289316,-0.040338001566034114,-1.8268739656223916,-0.05689755308079247,0.007241209851392801,-0.7651932932263815,-0.9150626969124035,-0.6865479415820049,0.6558406401386029,-0.08167047007230042,-0.868901294430368,-0.8007381428765937,0.5050385859467779,-0.6328575827744835,-0.08430151018397977,-0.41828254511875174,0.6136703486834856,undefined,1495339489349
903d185fccf839df,-0.2135273733665729,-0.6373886488034984,-0.5912039820359967,-0.7217032605776247,1.9450138281591827,-1.7887822570992975,1.7044001840630882,-0.8674645139983912,-0.128815615991988,-1.4651848603436772,-0.06839213265129135,-0.02798517720154125,-0.7782489416221035,-0.8400701587456694,-0.6760216111251016,0.9569111119090877,-0.045941557833099576,-0.829719371665804,-0.7883188033319263,0.6510004494301531,-0.5837159001330015,-0.11408224698847834,-0.438377570932685,0.5341123013024639,undefined,1495339490856
903d185fccf839df,-0.05690787066819289,-0.7142876720133848,-0.6160860224801429,-0.7680581115400075,2.1665883133817734,-1.828602929850877,1.7035244631760205,-0.8799397761124182,-0.16468481283427794,-1.1824060476987919,-0.0574819880173252,-0.004773732269929162,-0.7738970588235294,-0.8113693191593634,-0.89917978147273,-0.004898172929001225,-0.4614949742412992,-0.8148432871724669,-0.8772062885563068,0.1287929688756151,-0.731739246672412,-0.0881626684350048,-0.3087056170554241,0.13269669793002942,undefined,1495339492360
903d185fccf839df,-0.11650644249147024,-0.7765112910422443,-0.7239102308337052,-0.8605940618632097,1.7948940781202747,-1.821219241940708,1.7606990742265187,-0.8515543367834545,-0.250599010043889,-0.8848197738333106,0.04589778292297408,0.05250859102279641,-0.843527183600713,-0.6873075815981914,-0.7286532486851507,0.9528699633474595,-0.07436516452900861,-0.7539140360854989,-0.8049362292557906,0.7451773402180137,-0.5493033587060111,-0.15408585537755773,-0.3881034261454925,0.08304090616471117,undefined,1495339493885
903d185fccf839df,0.8911263294844932,-0.7747503045038647,-0.5318685953585202,-0.7358381182306739,2.4721146599248893,-1.7569555316726464,1.6818285563178532,-0.7545719037525895,-0.28993385264367094,-1.1279885566232781,-0.019025336449192687,0.05288807725574285,-0.3778757241532977,-0.7197117534447147,-0.5612846246055463,1.1771574253287047,-0.10622920239557164,-0.7018002431289804,-0.7603105692580122,0.7827957441664672,-0.501469111862065,-0.18253481973344468,-0.39396819560558966,-0.024690135191766664,undefined,1495339495360
903d185fccf839df,0.6180814336927121,-0.6432587695567199,-0.4814656141793772,-0.5766228617322506,2.3018863745744,-1.813947356230026,1.714632751958939,-0.7161640712853019,-0.3025183444933738,-1.0689413673240766,-0.030188575341231743,0.15216407064749934,-0.21250417780748662,-0.8372926385054977,-0.7949691474967794,0.8760869252934983,-0.5491334575442637,-0.895854301414695,-0.9231893289588355,0.45151358619644627,-0.7000398365819351,-0.4210704843905449,-0.4767760220860922,-0.36506790692232627,undefined,1495339496907
903d185fccf839df,0.4087934256621335,-0.639736708795984,-0.40299066556692564,-0.540239495266883,2.243566474794916,-1.871078935830889,1.726700935242676,-0.7254226359075593,-0.1356866091339683,-1.1447935992876412,-0.04820088689876815,0.05055259772435097,-0.847879066399287,-0.8335893321468294,-0.8707586877666442,1.2074665624382643,-0.4301073556642454,-0.8612827624888456,-0.9119664439884411,0.9825443762205659,-0.5758428610465747,-0.4901106312573976,-0.4026181330952654,-0.45410619691399967,undefined,1495339498367
903d185fccf839df,-0.32995276645997396,-0.7453994669138183,-0.6798876119067863,-0.7194576633216784,1.2570035542522797,-1.8885039741745995,1.8081486605457153,-0.9138978743641374,-0.40094821645994055,-0.7600439526900457,0.05730822533979354,0.0014904333292506077,-0.9349167223707665,-0.8474768038399423,-0.8444428873922042,1.243837549581513,-0.45986665358266465,-0.8992677590312627,-0.9240079555928413,0.9231525739112637,-0.6054535917897952,-0.4698268421139101,-0.3953392623942951,-0.39454952401891435,undefined,1495339499856
903d185fccf839df,-0.8746565447453204,-0.9303093959180018,-0.8578927553914182,-0.915792642608448,0.9509217803531606,-1.8827810345167229,1.8345545396459024,-0.9164706144595028,-0.3292044087560996,-0.7628992898912832,0.0697421303443973,-0.035742960312782866,-0.8174158868092692,-0.8789551766171945,-0.8507586643158682,0.9508493325372024,-0.40529402024794137,-0.9561945894096023,-0.9348740027619797,0.49136477158692704,-0.7280116413761891,-0.4372924305143418,-0.41013235223068084,-0.23404582296119755,undefined,1495339501353
903d185fccf839df,-0.9481152495507552,-0.788838664458778,-0.8151459039506046,-0.909367375808052,0.9001001515441546,-1.9300552739106995,1.8463492107991593,-0.9264024821017112,-0.3291420656546196,-0.676200444154593,0.07376826998600587,0.023322855544830687,-0.9262129567736186,-0.9308018638748677,-1.040232583091193,0.435594439777872,-0.5449655804254175,-1.0067124803877814,-1.0558698539802887,0.06553615807860128,-0.874381215247484,-0.44776188829126523,-0.4280984629473615,-0.4345010093099967,undefined,1495339502858
903d185fccf839df,-0.9314830899721662,-0.853410343480123,-0.7609146037653476,-0.8304187701775534,0.8739127687927106,-2.015918019317754,1.8560926425834239,-0.9249622228927948,-0.27946541215949167,-0.6616498691487189,0.0795336672773701,0.012342937623965357,-0.9349167223707665,-1.0030169109406728,-1.0676010319720144,-0.0230836806329864,-0.6876416061924292,-1.0297327307270778,-1.0612224133956216,0.004358133081972308,-0.8974513842785964,-0.4536460289759278,-0.43325670822766643,-0.38885785367111764,undefined,1495339504381
903d185fccf839df,0.09555386817881774,-0.8434310738980633,-0.5203846548879756,-0.5310344487180536,0.3600804905877693,-2.0016188195885314,1.8494418701476247,-1.0660620409134884,-0.4208280922771324,-0.751274448392106,0.05360443897471134,0.006291046319872039,-0.8957497771836007,-0.9669094068339321,-1.0339167877619444,-0.11199039048960438,-0.6794317950300276,-0.9911207737184423,-1.0299116843309992,-0.028178782886457966,-0.8802285637993209,-0.4293988996255511,-0.4681149577968213,-0.39484450981118946,undefined,1495339505861
903d185fccf839df,0.4822517164026516,-0.6115599450441689,-0.3149449194391888,-0.34359798589440366,-0.342319475606506,-1.9290839808410931,1.8785774904806851,-0.9903598042110718,-0.5602637644169308,-0.8438544134743067,0.052191264759086496,0.043104456251019566,-0.9392686051693405,-0.9743160648789796,-0.979179882638068,-0.1766497850056303,-0.6291971991825589,-1.0136850513046132,-1.0091241592286255,0.11681297523553534,-0.8435552798072564,-0.40409949811160634,-0.5234699996500637,-0.2958958384482159,undefined,1495339507391
903d185fccf839df,-0.43944788602983786,-0.625648290385086,0.07105200274033965,0.07153534121669096,-0.8338112231007417,-1.8219762436314135,1.9043417038208739,-0.8268787358015939,-0.12717234467763838,-0.5466265202215782,0.0432992493679969,-0.06916161564398644,-0.9001016599821747,-0.8206276433345195,-0.8212849368278687,0.853860085307195,-0.2950767958909737,-0.9001163731241497,-0.8930540630815945,0.4836809355431715,-0.6800287990485159,-0.36613763965938384,-0.4980897608224999,-0.37730327687737514,undefined,1495339508860
903d185fccf839df,-0.21352751138821185,-0.583383210520346,-0.011889148621278793,-0.09014675708049559,-0.6658355120454078,-1.821223899182382,1.9359782635815357,-0.5471292156716253,-0.22534711949581954,-0.5630868870314972,0.03270906580167531,-0.0030107186783570263,-0.5780623328877006,-0.7576709528208069,-0.8549692288924582,1.163013165112873,-0.4599205987091558,-0.8439811602680874,-0.8454967394732978,0.7339364685937783,-0.5917871630658582,-0.3980375743039331,-0.5752236580260729,-0.4289130095548406,undefined,1495339510368
903d185fccf839df,-0.34519891274034725,-0.4800684685530087,0.24969553824192312,0.2602794635671955,-0.6511475379388041,-1.855507971871976,1.911626258367651,-0.7276075694903391,-0.20122310397453272,-0.4295192968603988,-0.016275527825421868,-0.0014170459845072585,-0.6955631684491979,-0.7502642818249848,-0.891811378129386,0.9589318133811486,-0.5937241940944005,-0.7868580081706685,-0.8261225701680128,0.890153697511732,-0.5273544592159141,-0.43884063106921434,-0.6738391160302072,-0.524244828048855,undefined,1495339511857
903d185fccf839df,-0.31609256446699696,-0.6115599304301726,0.2988222436610617,0.2630377570972405,-0.8522534898198231,-1.9117358076430018,1.962431482286634,-0.5128070340961374,-0.3602959674550593,-0.5181424476522971,-0.012792292491722207,0.01934920781859041,-0.8348234180035651,-0.7317475816715744,-0.9233903474133947,1.0741064269915335,-0.6087854888355134,-0.7328443314188492,-0.8769613985729531,1.1012047902869673,-0.47957674800513544,-0.4323783270867921,-0.6907597921754892,-0.5119915962775905,undefined,1495339513349
903d185fccf839df,-0.46301021561573485,-0.6649783537152036,0.9872365446415485,0.9961212973410216,-1.0197149178197014,-1.9057985771706951,1.9623552216525146,-0.5562682557812321,-0.28444656972032273,-0.49236670635064483,-0.04243126412717504,0.11632109556123707,-0.6346368092691622,-0.684530067833407,-0.9402324805617803,0.9629730467369414,-0.6886451814755375,-0.6870761474401909,-0.8972521497972297,0.9762926029537359,-0.49514770915676504,-0.43294245608668586,-0.6900763254028645,-0.501267361949368,undefined,1495339514867
903d185fccf839df,-0.30777658819393167,-0.7530307203453811,1.0637975878878925,1.0815195398475645,-0.9484144642205872,-1.9331112354736866,2.011456339212186,-0.2602360314637329,-0.28265119693634844,-0.1377877592841005,0.0483889861421406,0.0639237273204423,-0.6085255124777184,-0.7039725735314759,-0.9760219628867424,0.5871399274726196,-0.7061019331108094,-0.7170373034131924,-0.9216850130115627,0.7251901498571119,-0.5768029069403764,-0.4518114954847706,-0.6455245115158273,-0.462981518348347,undefined,1495339516374
903d185fccf839df,-0.0014672352233335954,-0.626822349609321,1.163327274486174,1.0779989416484417,-0.8746042988716509,-1.8857973988920482,1.979788220762438,-0.3944145968429357,-0.15563301947811406,-0.17212284234743658,0.029424470627716668,0.06800860937379513,-0.9175091911764707,-0.6576808846641288,-0.9897062057327376,0.546727763503021,-0.7278615343256398,-0.6771207595031774,-0.952582930815582,0.5774882657404414,-0.5951619546929231,-0.454846008600992,-0.6524967103791245,-0.4388259285685504,undefined,1495339517863
903d185fccf839df,0.03595512382849172,-0.5117673222935522,0.8602722660791122,0.7391160233477353,-0.7228799899593115,-1.8222278015049966,1.9568536843293067,-0.42997448602722843,-0.28886042173966625,0.16882588187507375,-0.03138621450300974,0.008441254792752376,-0.9784355503565063,-0.5845400126275033,-0.9518114190327791,0.5184392996008008,-0.7045537428585115,-0.6144119519404821,-0.934216303028937,0.6150604734909683,-0.5532201482882888,-0.43689690159711525,-0.5910398952677406,-0.47882758763972527,undefined,1495339519434
903d185fccf839df,-0.17056113364893324,-0.4389773163865384,0.31604815436687855,0.27399757529255353,-0.805422711419732,-1.739523504400343,1.9275891978651574,-0.5324360158333811,-0.3689800458178132,-0.08838433124445286,-0.02968841682200684,-0.055097566583651135,-0.9349167223707665,-0.5771333222055195,-0.9286535200040802,0.5992635144811117,-0.679866574593557,-0.5875032746871036,-0.9312986326425632,0.5110901694606972,-0.5644716342654502,-0.43847471616774164,-0.5734937866657231,-0.45188518190966254,undefined,1495339520860
903d185fccf839df,-0.35628708813689275,-0.3227483467585037,-0.038047973099328176,-0.03563103435179291,-0.8736785984473948,-1.7200464058658107,1.9309158966278652,-0.4972519612731258,-0.40035814172586165,-0.34255504752047916,-0.0747643204306427,-0.10785489175342294,-0.5867660984848485,-0.5854658634998727,-0.9076008370035721,0.49217139584703395,-0.6603590704679327,-0.6167678075366019,-0.9307528810883292,0.6453030186781487,-0.5361350020557345,-0.4557905974550891,-0.7346093928197057,-0.3345321185232683,undefined,1495339522367
903d185fccf839df,-0.6321039415142858,-0.33331461672468865,-0.3442931626325018,-0.39135514745979183,-1.239355695119873,-1.7151480150273053,1.926837058361728,-0.6079828073034355,-0.37310797899739523,-0.5957459977914885,-0.04124197786882901,-0.15290232451984748,-0.3735238413547237,-0.609537519953592,-0.9012850563987912,0.6497787901049137,-0.5638496553730449,-0.6781340308735901,-0.9309417957833345,0.9729973366513665,-0.4792955133773735,-0.46497594474997195,-0.8959489262205629,-0.24887945631414923,undefined,1495339523869
903d185fccf839df,-0.5433989869122485,-0.38144978811465774,-0.33344710590501,-0.3811727392868385,-1.1552598315561617,-1.8580468427834371,1.9381688903905132,-0.7219538942277385,-0.366848908106401,-0.6261579038687719,0.042760669261785685,-0.08038673058968981,-0.5127840909090909,-0.5854658570244854,-0.9002324262979944,0.7225206795972468,-0.526846100427784,-0.6483248645577828,-0.9543601216468807,1.0755971840045102,-0.4475075978757094,-0.4706683747315138,-0.8503842141304783,-0.2985353252631218,undefined,1495339525357
903d185fccf839df,-0.5336968593193285,-0.3884940265480991,-0.3506735248847257,-0.4342479081484636,-1.0400394545035423,-1.8937494209729488,1.9530167743640419,-0.6339053478763331,-0.3943143444455291,-0.6240946409697228,0.03988434976643612,-0.0545671874523414,-0.4866727941176471,-0.5910208521771179,-0.9054955988886799,0.7790976639311302,-0.5094098612327667,-0.6456460296922993,-0.9602024583618826,1.1555459097460723,-0.4305355654856599,-0.4701616270701695,-0.8438743749453237,-0.298479178629882,undefined,1495339527387
903d185fccf839df,-0.3576729979188793,-0.5082451884628353,-0.2568863167956154,-0.2963271377655607,-0.7341222542856969,-1.9229091673941274,1.9008361627098116,-0.8879380866817808,-0.4323756451868957,-0.9800220665350607,0.14012475352000608,-0.15088952779517598,-0.6259330436720143,-0.5743558472930588,-0.8876008061905623,0.7710153102784308,-0.440959399832154,-0.6558040703763829,-0.9466636298599306,1.2402989555017803,-0.4128415134477471,-0.4305941941986281,-0.8269436657058239,-0.3239208920211166,undefined,1495339528362
903d185fccf839df,-0.09571624301823396,-0.7354202411737472,0.5048998628529011,0.5424801318792957,-0.5401648648651999,-1.9629441307753022,1.9632388303786903,-0.48935037733080966,-0.32927718284559215,-0.828303468101409,0.26862555979698804,-0.11454780469836558,-0.36482007575757575,-0.5539874971980078,-0.9044429614256493,0.597243039126823,-0.4816971647173544,-0.6573619742829447,-0.9421506851378137,1.182985940662189,-0.4223906567877574,-0.4344404295016464,-0.8750499762876919,-0.36589350460023434,undefined,1495339529877
903d185fccf839df,-0.08601421894154317,-0.6743705936851458,1.430654439858547,1.4885533782328229,-0.5013157850403546,-1.9509928051562173,1.9070793276552465,-0.8470002543835605,-0.27449594375665354,-0.6729942602820354,0.36797010492556814,-0.11608826098719115,-0.41704266934046347,-0.5595424923506401,-0.9128640095942576,0.5830987506462698,-0.45453871500207094,-0.6623460000379656,-0.9207964178956495,1.2417772046626085,-0.40522426345804335,-0.4348568028297208,-0.8773507387357585,-0.40424333139011126,undefined,1495339531361
903d185fccf839df,-0.2717402079349124,-0.6538250833648934,1.9653080081924448,1.980351081807879,-0.7548170764390205,-1.9093180572442594,1.8949848431943073,-0.9692582774616259,-0.15385370896535586,-0.4253092521148954,0.5585658608380542,-0.17945406338094447,-0.6041736296791445,-0.4947341227560443,-0.9265482377157852,0.11633822005326895,-0.694054601148233,-0.6059701355879223,-0.9199078228164385,0.5312159376724558,-0.5504478071220086,-0.41914539107340676,-0.6467920555465811,-0.561836557448609,undefined,1495339532848
903d185fccf839df,-0.22877362316317537,-0.6814148028905948,1.7483843322731136,1.834865164674326,-0.9207253699455905,-1.8881406133984333,1.9094251050121664,-0.8622249866459619,-0.1826347940042091,-0.6439667202024,0.566006475535247,-0.20870164631062862,-0.0601882798573975,-0.42622240147506923,-0.9002324189357607,0.5608719106599666,-0.4431163529958354,-0.5187401687609555,-0.9067188337021959,1.0201011781752256,-0.40831874985023386,-0.4258781510237121,-0.5034191641621926,-0.5818574718351434,undefined,1495339534415
903d185fccf839df,-0.17749123464542174,-0.67613163867951,1.610573742846236,1.6806546415961992,-0.7534593676227744,-1.8891934300988895,1.8949769522126338,-0.8903581055059248,-0.25925019437694224,-0.4866116906754512,0.47212066921851126,-0.41165288935533556,0.570834725935829,-0.46325577588034117,-0.880232380760517,0.6396758197743179,-0.3686543241067476,-0.5309184197238769,-0.8674037533249761,1.1626137900132558,-0.37447344796909143,-0.4142326318539263,-0.5023202718252788,-0.40016123127892544,undefined,1495339535854
903d185fccf839df,-0.04859182538430811,-0.7195708069964774,1.539116531955162,1.713258190297693,-0.6609189509295587,-1.8923239273684929,1.962278947924373,-0.402758181761264,-0.22665790590899523,-0.5925829950474112,0.38599868102731194,-0.33242031358630436,1.1800983177361855,-0.502140787276479,-0.9128640169564913,0.6154284196395613,-0.47770053983198385,-0.5582767357901036,-0.9181726128014633,1.032327539632412,-0.42951643795942207,-0.41261409327044374,-0.5333776213093289,-0.34397420257013606,undefined,1495339537367
903d185fccf839df,0.16208243748235437,-0.6420847687884695,1.2245768206667076,1.287349175608551,-0.47927354042199327,-1.8856017432457912,1.866632915816153,-0.9391557490783827,-0.10277066847540041,-0.7429946805498514,0.3614599451804395,-0.4261678455183057,0.46203765597147956,-0.5549132897918916,-0.910758749392664,0.522480448162429,-0.5303513821683413,-0.5705119830080448,-0.9139395427899604,1.0605836877398498,-0.42599149063061753,-0.41656680816201547,-0.5675599823876255,-0.37682692008180885,undefined,1495339538867
903d185fccf839df,0.2923678945470935,-0.5129413230618026,1.8083573485566933,1.9595864460894805,-0.1774706191155603,-1.877249092412193,1.8442138203381353,-1.001422035208311,-0.03829078255754624,-0.3167885229313782,0.4645991637318232,-0.3512978269980254,0.6404648507130125,-0.5252866317101527,-0.8949692389828414,0.7245412114809785,-0.5345957583386338,-0.5400821905981561,-0.9088808487463369,1.045216041419199,-0.414850937688503,-0.41661314795874826,-0.5591673039668439,-0.36623350423025114,undefined,1495339540359
903d185fccf839df,0.3242460623844169,-0.4982659334947717,1.5352879588120987,1.5415589270300083,0.3397867993380074,-1.876932315621245,1.8565028992564057,-0.7121736162226088,-0.20772263334460275,-0.43926786191973677,0.45699807061683273,-0.2955359076387808,0.7057430926916222,-0.4660332378420274,-0.89917978147273,1.13068346785486,-0.30765112344892503,-0.5109063182459116,-0.9187813367607754,1.405755243044703,-0.32608518312758406,-0.37845064248131927,-0.5116387781064746,-0.34964030433782034,undefined,1495339541866
903d185fccf839df,0.34226430427204113,-0.2493713550813609,0.8309235146119003,0.6157196970562161,0.23515040468000906,-1.770178624139914,1.7851904412161061,-1.0488224536976845,-0.5976871045507138,-0.5854187575980428,0.3211374839446171,-0.23276900576703877,-0.2516711229946524,-0.5845399996767288,-0.9065481995405416,0.5568308186277814,-0.6424417880334627,-0.5834311896934109,-0.9158846574799083,0.8124993370722599,-0.4811051441287585,-0.3696739407000355,-0.6281768448343138,-0.4468961287787295,undefined,1495339543364
903d185fccf839df,0.6056071069763119,-0.3339016024948177,0.5495606196598223,0.38984221645679035,0.11117690319062777,-1.7372338637654676,1.827446168313406,-0.7921562791134731,-0.5613737674856342,-0.5341057074299528,0.32183423433131053,-0.00829014231913123,-0.7782489416221035,-0.56231999316465,-0.880232380760517,0.21534801329936887,-0.6637395810694477,-0.5931775895533739,-0.9066138840898601,0.5614276908017127,-0.5332512648908184,-0.38111111105136214,-0.5904192808864848,-0.4956879879321169,undefined,1495339544853
903d185fccf839df,0.29929796103817224,-0.4501306598068294,0.8143352335121867,0.7235552498379613,-0.18685116453996764,-1.7116052441290337,1.8892834271900796,-0.506870046749001,-0.40036005489689186,-0.911302245135457,0.22803995108253117,0.09877947143668271,-0.20815229500891266,-0.5845399867259542,-0.9076008517280397,0.32244030152177583,-0.6761031023113636,-0.5935828977272604,-0.9106580402994489,0.5773342861189477,-0.5343205088006956,-0.40389083057254827,-0.5599465452713608,-0.4894173767019073,undefined,1495339546394
