UUID,iqrAccX,iqrAccY,iqrAccZ,iqrAccXYZ,meanAccX,meanAccY,meanAccZ,meanAccXYZ, covarianceAccXY, covarianceAccXZ, covarianceAccYZ,pressureDerivative, pressureIQR, iqrGyroX, iqrGyroY, iqrGyroZ, iqrGyroMagnitude, meanGyroX, meanGyroY, meanGyroZ, meanGyroMagnitude, covarianceGyroXY, covarianceGyroXZ, covarianceGyroYZ, class, timestamp 
903d185fccf839df,-0.5891374947641878,-0.08353938611487978,-0.48816491830312747,-0.5894723281140263,-0.6521001956218637,-1.9139982995395854,1.8006569798397183,-1.5418063562206372,-0.3707400046943069,-0.8792346608592483,0.011189372937421838,-0.5264451831318079,-0.2364395331996435,-0.6984175589526816,-1.0297062452720558,0.7528297036479202,-0.7409384760469006,-0.7986707614764714,-1.0580808465292888,1.460098548761724,-0.46541801055766807,-0.44475718403232484,-0.6816301827675715,-0.5353121629444026,undefined,1496161482596
903d185fccf839df,-0.4131135643529191,-0.825233594342304,-0.4903980196777109,-0.5636019154738401,-0.025245238188460518,-1.9314884201510842,1.8688926684386662,-1.0149814690331154,-0.30323263655811444,-0.733178860972567,0.03795015492924673,-1.0186320168661678,1.8307047961229947,-0.8752518508323645,-1.1086537310610647,0.5063155995334225,-0.765766550130234,-0.9179674523302068,-1.0597847750322675,0.04364861501953329,-0.8269319475248783,-0.4617946357693717,-0.5437804470996556,-0.5195634324580365,undefined,1496161484100
903d185fccf839df,0.5259112733180867,-0.44426048059762324,-0.5031582359082598,-0.4494466399427516,0.6039625850438549,-1.8392251921205045,1.8382357442956838,-0.8734315666518636,0.019200297639117743,-0.5128772145531074,0.09454679769339962,-0.6958685707832921,2.63580311385918,-0.8446993289274816,-1.0676010466964818,0.7124177375313725,-0.5433448455034907,-0.8763464468945434,-1.0701760881433966,0.12881621048546527,-0.8181912889336832,-0.3943621837305511,-0.4259686930935114,-0.42179387827238746,undefined,1496161485617
903d185fccf839df,0.7760869496893079,-0.7495086011286605,-0.7111500146031563,-0.7140661553824854,0.34903364030541606,-1.7762113521167957,1.875071964034928,-0.6852785220109022,-0.15492537504591647,-0.5916316414906531,0.11624580908061825,-0.5515637715398803,1.2323209113190732,-0.9122852058114745,-1.0981273858796936,0.575016298067045,-0.6728010441806116,-0.9311808195488364,-1.0942068797353206,0.3786698682342159,-0.7850721584800212,-0.4043535589538583,-0.5135031277897049,-0.40073122474789574,undefined,1496161487166
903d185fccf839df,0.7747010054019116,-0.7677061245264081,-0.5471808548351788,-0.6017001097356174,-0.18753002815048753,-1.564704786392938,1.7847065662827308,-0.9629917458500077,-0.5362906788266711,-0.5107610195166088,0.05865529212483459,-0.1151898986200367,0.02684937611408201,-0.8798810274895639,-1.0233904573050412,0.9266021726525788,-0.4544850165574556,-0.9011712803478665,-1.0232575706552898,0.6907281084923653,-0.683846307338249,-0.3864892891482421,-0.5385374420509663,-0.32463568426909156,undefined,1496161488600
903d185fccf839df,-0.7014046754358929,-0.14253450851129906,-0.3889541735763724,-0.2807295534171942,-0.950841887693398,-1.3604794212980154,1.8547435492164868,-0.2641296894512531,-0.37278066301870616,-0.6407737518597383,0.02035416593646026,-0.0878453102317974,-0.11676275623885918,-0.8224792965138537,-0.9918114806587988,0.8821487046653836,-0.5137369502753288,-0.839472104209221,-1.0099427883278072,0.43645390807121903,-0.7056931635286222,-0.4001340472917465,-0.5872515004952797,-0.34043176806427805,undefined,1496161490100
903d185fccf839df,-0.5239948352426377,-0.2787220465314456,0.5291440195539947,0.4549517687897348,-1.0754839642895297,-1.1371193570082831,1.7235714486942628,-0.5180662439940277,-0.42789806881077014,-0.5113235579146803,0.06733523218308027,-0.04750483495621974,0.3662962344028521,-0.7428575784522266,-0.8981271440096994,0.8376953214723531,-0.5132699711410383,-0.7560735690822096,-0.9797795367791441,0.4441377320258205,-0.6516743288536075,-0.4007974071216261,-0.6423966996677374,-0.3789632046087828,undefined,1496161491601
903d185fccf839df,-0.6016117179643587,-0.06739664720774613,0.7569145146116661,0.8140408059706574,-1.1128621894678818,-1.283432845470257,1.8029521474273538,-0.28666133706721003,-0.4006882163904041,-0.5173914315954335,-0.1260478814722325,-0.16738847283946062,0.17046150846702318,-0.6854559057550018,-0.9433903561397031,0.2941518093548341,-0.6326076954833622,-0.6976838283655823,-0.9617487544464849,0.29167772486028315,-0.6420239466813612,-0.4481374108160282,-0.7406069529572605,-0.4325420366261588,undefined,1496161493634
903d185fccf839df,-0.7027906887341087,-0.19360481334785976,0.8749463876757687,0.9782863902374201,-1.2485305325490592,-1.4151233741952234,1.8346939155631492,-0.4822395561680569,-0.39171743522722274,-0.6365535187221153,-0.12829129092788405,-0.05924750785951032,-0.7826008244206774,-0.5576908294582251,-0.961285104664418,0.10825588053293032,-0.6605157858302841,-0.6198772828102246,-0.9275133586433917,0.03339959622607652,-0.6594350784165688,-0.48109873540123177,-0.6472663391962679,-0.4100945080154485,undefined,1496161495213
903d185fccf839df,-0.8053557763183036,-0.4154967164616829,1.2666852800905695,1.2235620529495719,-1.2723727799046516,-1.557884772999009,1.8676900978560602,-0.686214392585031,-0.41615733733246635,-0.70879136863288,-0.05427626744203506,-0.015707449443294715,-0.8043602384135473,-0.5762075166608611,-1.0139167716734023,-0.1422994993344425,-0.8602007742414605,-0.6176734182111723,-0.9871611697215752,-0.3555497364535493,-0.7584782721208373,-0.48249167050724356,-0.5542140009166511,-0.508486338467826,undefined,1496161496683
903d185fccf839df,-0.8164439172094393,-0.3632523816288794,1.2826354233102808,1.1982865659238089,-1.2162231583852905,-1.5841562626396384,1.8507383690165717,-0.8215220953030732,-0.5028868894185821,-0.755939105419805,0.019192894203358107,-0.031205072684209953,-0.7129706996434938,-0.5613941617184425,-1.0191799221773863,-0.16654681467503454,-0.8568447483635626,-0.634462051805815,-0.9942419419801001,-0.34293840998306074,-0.7697971087716458,-0.4767567515012319,-0.5459718967683195,-0.5193065334520366,undefined,1496161498133
903d185fccf839df,-0.8427782043809483,-0.21943359017717015,1.678202888868145,1.6428750641909429,-1.2798504831580104,-1.5503846218495065,1.9123836517166386,-0.3742840931322935,-0.5059743950550667,-0.699630098385291,0.17233197632576341,0.04989649521544022,-0.6172292780748664,-0.569726664160472,-1.0423378432927866,-0.1907940734861835,-0.8783488146953611,-0.6686282822975548,-1.0123356949377724,-0.21987403508024822,-0.778350737261662,-0.48240325543832957,-0.5689943089388275,-0.5205770342825785,undefined,1496161499652
903d185fccf839df,-0.7083347419269717,-0.2710909684678369,1.4606408209318622,1.6126235068264312,-1.2697499261015663,-1.603612397664678,1.9066506770233245,-0.5215878090080953,-0.45498088862090963,-0.694317129103328,0.15887022648664217,-0.013644389585973641,-0.7303782308377896,-0.6095375070028174,-1.052864166387456,-0.24130923605109933,-0.8969392828727681,-0.6984564464810143,-1.0249719355645635,-0.28254570906977,-0.8061771053470975,-0.4815860101930144,-0.5719956970064417,-0.49634741074018685,undefined,1496161501143
903d185fccf839df,-0.6667542912223845,-0.3550341131991953,1.4363964100938194,1.5521010538695836,-1.2822264754869366,-1.6118369408649929,1.8528211759785838,-0.9010120815706782,-0.43949198133301404,-0.6486847363913465,0.21241980913995456,0.07109766551373042,-0.9001016599821747,-0.6336092282104094,-1.028653615171259,-0.39487545348262937,-0.9628522596846355,-0.7106346968459758,-1.0335290356521145,-0.35972271753885954,-0.8304676847880971,-0.4701075421251204,-0.580730566138342,-0.5081208761663009,undefined,1496161502650
903d185fccf839df,-0.6736843749661682,-0.4096266249364537,1.2660471422105672,1.286515953423705,-1.2308494183376708,-1.6524122878969272,1.8457943316960257,-1.0009272210012927,-0.4727772931281871,-0.5236033188057366,0.12330067000352452,-0.043251498288129235,-0.8174158868092692,-0.6317575523672199,-1.0033904264920313,-0.5322768081527922,-0.9534176711457436,-0.7016482494743133,-1.0164638141808156,-0.40610283374222045,-0.8319412487079542,-0.4537552096837965,-0.5361400851989128,-0.4810971229315121,undefined,1496161504133
903d185fccf839df,-0.7069487286287559,-0.43134612141096035,1.1008024690934337,1.1302650850191223,-1.1948906208830263,-1.7066136842944393,1.82537914855235,-1.2479796430122743,-0.4957825850907007,-0.7161326542460615,0.1371926135630902,-0.010529497829312737,-0.7521376448306596,-0.671568388734178,-1.032864150298914,-0.5140913569782501,-0.9861559894205687,-0.7145674540391362,-1.037223352186492,-0.37980228846224456,-0.8390225599456054,-0.457857224755695,-0.5682978017661323,-0.49120268374155185,undefined,1496161505662
903d185fccf839df,-0.7152648429234602,-0.4389773163865384,1.412789882998829,1.3494369877150738,-1.1388952882721417,-1.7143863562362704,1.8440560326540776,-1.1000655099308065,-0.5815763861401462,-0.7832297867072544,0.12296678975276999,-0.06553368110058339,-0.8261196524064172,-0.6817525670193971,-1.0181272883954726,-0.5302562338719781,-0.9960699863329472,-0.7310837715373412,-1.0230758005632654,-0.4254124817740249,-0.8497086573497955,-0.4678570642443886,-0.5704727517204634,-0.49351556211673653,undefined,1496161507066
903d185fccf839df,-0.6307179627214798,-0.32216127330439764,1.1186667718162022,1.0614182679475657,-1.148172990093646,-1.7016570644022089,1.8486318969659523,-1.0492160897940883,-0.5753673583974197,-0.8527409351454388,0.10691098041532524,0.06142121980174646,-0.8348234180035651,-0.6706425637633577,-1.0286536298957267,-0.4716585621983944,-0.9725162794041419,-0.7464601588580255,-1.0236775265005227,-0.3779852704591156,-0.8510862704625005,-0.4626048303002318,-0.5580529914004888,-0.4804276759628293,undefined,1496161508539
903d185fccf839df,-0.5129066425933874,-0.3168781383213051,1.1626893907431213,1.1952290524174847,-1.0593457105894628,-1.6754554525225192,1.8172346477491996,-1.1608778830892044,-0.6021390490240304,-0.7151971482735368,0.010012907270214443,0.033923875361281074,-0.9436204879679144,-0.6271283692346331,-1.0370746854265687,-0.2736390322356377,-0.9438598334173076,-0.7030098312243994,-1.0423730049856095,-0.2118822377068471,-0.7997063714616361,-0.46139874609276776,-0.5159048864445602,-0.5005259602286752,undefined,1496161510054
903d185fccf839df,-0.33272475855099576,-0.3879070115499777,0.9253491147179622,0.9742542386683947,-0.9376864844800559,-1.6690873128297916,1.8206428719905632,-1.1151497222789588,-0.5222093817542695,-0.7044378816620074,0.01026320386089059,0.07544587055331307,-0.8826941287878788,-0.6336092023088603,-1.0833905313384862,-0.24130932084526394,-0.9195209072878283,-0.6820034576998169,-1.0621599863222473,-0.11231588659714885,-0.7754121864313558,-0.4948267600611514,-0.5698830003720062,-0.5234361005940354,undefined,1496161511541
903d185fccf839df,-0.2592659502293317,-0.452478719799315,1.0248788013162435,1.0461930448101293,-0.8686385954075524,-1.666385394717336,1.8638795068758676,-0.8193914288727998,-0.4882260443762168,-0.7025886253740942,-0.07565599671036247,-0.04032879284511698,-0.8174158868092692,-0.6382383789660598,-1.0539168075316037,-0.06551634822159516,-0.8740097030423507,-0.7140798187767536,-1.051167996312646,-0.014828330913386964,-0.7637806379423067,-0.4883104293825162,-0.5691210833850288,-0.5303889256703026,undefined,1496161513030
903d185fccf839df,-0.4976605825765384,-0.5287907280110801,1.0625215662648375,1.10146516501315,-0.9449584654084617,-1.7167808135900229,1.8433591300223635,-1.064071815879697,-0.36852689713770515,-0.6815587227325834,-0.06561711101582757,0.054001609359873734,-0.852230949197861,-0.5956499899819936,-1.047601015883472,0.1688740416931635,-0.8630896969928673,-0.6813954953393272,-1.0688069566428564,0.10264640868283058,-0.7236125314177917,-0.47195103375297365,-0.6121239485268729,-0.5411744248188849,undefined,1496161514549
903d185fccf839df,-0.4172716387529761,-0.4160837314598043,1.3202784423958243,1.264900532110114,-0.9128465164896428,-1.7949244602979557,1.8945798670786893,-0.8193877809433441,-0.45155700045421265,-0.5314523840834793,-0.104722370963306,-0.04720276435872811,-0.8043602384135473,-0.5521358278302054,-1.0023378037534683,0.10623530625211623,-0.8390626456302447,-0.6317262178560754,-1.05353291808311,0.15353827081549598,-0.6862027261625897,-0.4546978811956219,-0.6574125659615772,-0.5422012208929379,undefined,1496161516043
903d185fccf839df,-0.5378549682247953,-0.45717486901227844,1.4689350885501937,1.4263757352965893,-0.8724545877925074,-1.8282023011362336,1.886374874510744,-0.9020366463634889,-0.5177851473903956,-0.6231993055168454,-0.07328152501168199,0.05987508642040613,-0.9044535427807487,-0.590095014255523,-1.000232536189641,-0.027124885724057638,-0.8927447885318517,-0.6615607167660187,-1.029491876100476,0.08547714175443727,-0.7121038764186564,-0.44559030781622305,-0.6711402743086999,-0.5433747928072951,undefined,1496161517537
903d185fccf839df,-0.38955133828325134,-0.40082134150864823,1.1008022149564842,1.1420527920904973,-0.7991072846418212,-1.7987187922541328,1.9310000466723756,-0.5521671547367067,-0.6932402625335276,-0.6086682980260542,0.022289551302535158,-0.005086114629816941,-0.7738970588235294,-0.6224991861020465,-0.9697061528330263,-0.18473230824665893,-0.9148625156074323,-0.6808508633125513,-1.009474000133366,0.09556312255246853,-0.714787262841856,-0.4471045423014075,-0.6566609093475946,-0.5449281326534458,undefined,1496161519039
903d185fccf839df,-0.5018186224711857,-0.43780340330226497,1.0414673365529066,1.160545999892441,-0.9441253283334878,-1.7115959288103058,1.8788720258498093,-0.7923669525197976,-0.7284034943888141,-0.6471437589054125,0.04168457176988221,0.19529424837513487,-0.6128773952762924,-0.6734200775281421,-0.9739166879606812,-0.2594947861521668,-0.9596975383322149,-0.6824657628872465,-1.0097048953021395,0.05164675605888565,-0.7271371879376827,-0.46346031436958074,-0.6321892900892124,-0.5582866172362736,undefined,1496161520540
903d185fccf839df,-0.5946815134516411,-0.4630450482214846,0.44939279518153874,0.4705890406919668,-1.080246239351646,-1.6405285120467463,1.874840530854909,-0.7569319162899558,-0.6206809171140188,-0.6765186057063679,0.004960443776061477,0.18136666437455398,0.21833221925133692,-0.7011950856682406,-0.9918114659343312,-0.2594947578874453,-1.0075995573736432,-0.7172526229113371,-0.9936752019690469,-0.09879605325887184,-0.771348745939557,-0.4654637679863192,-0.5906739141414086,-0.5232270915444043,undefined,1496161522042
903d185fccf839df,-0.6667543084750894,-0.40258238650301237,0.08126017572477877,0.08034498289924671,-1.209527163145563,-1.549650915146821,1.8391172481315672,-0.8809425712586395,-0.4513890648071684,-0.6878979059168779,-0.0073496982599874985,0.16592895604435667,-0.6041736296791445,-0.7715584439400816,-1.024443087405838,-0.24130932084526394,-1.027975065682467,-0.7737361481513458,-1.0141478707348968,-0.08635410896132764,-0.8004762519769008,-0.46740455508955153,-0.5715378497837027,-0.5384078448410469,undefined,1496161523544
903d185fccf839df,-0.6043836065391514,-0.5528584013900416,-0.03613381359627113,-0.05584911926071026,-1.1298747238872997,-1.5021553986391867,1.8648814572816688,-0.6318066367840014,-0.34831842632826887,-0.7718173395285531,-0.04641423619471828,0.07835055334151741,-0.8826941287878788,-0.8243309723570432,-1.017074654613559,-0.049351527857310215,-0.9640176194143834,-0.806553461180258,-1.0044292998950077,0.12234102248182674,-0.7614954653281998,-0.472863547274117,-0.6083820668585254,-0.5174048262352744,undefined,1496161525048
903d185fccf839df,-0.6307178937106603,-0.5088321596189682,0.09465827569838041,0.08770503248538257,-1.036357170638644,-1.5179429815132923,1.7980580926092051,-1.0677884857118274,-0.47169024619130456,-0.667708627204795,0.05257078194023342,-0.022855995355822074,-0.8391753008021391,-0.7919268069859071,-1.0339167877619444,-0.0897637483563518,-0.9799876586739567,-0.8130257301666824,-1.0100547354728326,0.10090638640713348,-0.7713241390371296,-0.47608302311080386,-0.6033053067849302,-0.5207803778722212,undefined,1496161526550
903d185fccf839df,-0.5184507820497747,-0.35268605320670976,0.6765246440853092,0.6918382300311933,-0.9768441276960967,-1.6268372437402467,1.9014015783109088,-0.5185215182039603,-0.5363379179684452,-0.4829626505745006,-0.059334675144183724,0.06211010036129234,-0.8130640040106952,-0.7854459609609054,-1.0412852131919899,-0.010959952300886545,-0.9011419162874372,-0.8161732032573962,-1.0148895314644122,0.10338553817025677,-0.7713108585383688,-0.4606106292413298,-0.631421240500111,-0.4899407270817918,undefined,1496161528033
903d185fccf839df,-0.6542802232965573,-0.3691225316100933,1.1282368069206392,1.1323520375049034,-1.0776748161463037,-1.6665041866209966,1.949910981187324,-0.2982102933008037,-0.4998131967679242,-0.5425490422861142,-0.04505818303306669,0.009647860676640953,-0.8391753008021391,-0.7900751246673303,-1.059179983803406,-0.13825829424337127,-0.903819759860404,-0.8071044278338576,-1.0248879741582477,0.07913298523266231,-0.7780575217210867,-0.465176266016984,-0.6567424034543144,-0.49187504715848734,undefined,1496161529646
903d185fccf839df,-0.6875445424537354,-0.31159500333821266,1.484247093889903,1.5530405317676967,-1.1551364001689128,-1.6066357527453663,1.9446697781704296,-0.22059866727242156,-0.5406478979394154,-0.15048361563901275,-0.06524613112863208,0.016956813911665366,-0.7956564728163993,-0.7456351116431728,-1.0370746707021012,-0.19685589525515113,-0.9494345602709215,-0.7881435937107595,-1.0034637390030623,0.12762268984878244,-0.7536585929718158,-0.4746242453937335,-0.6663836752322594,-0.5137683291540885,undefined,1496161531122
903d185fccf839df,-0.6362619814089331,-0.3016157483701491,1.484247093889903,1.5223970125534745,-1.131181009087622,-1.598418196367978,1.9449669464855825,-0.18784874096082213,-0.6289605538071223,-0.15698033675881795,-0.040401643685351686,0.08386936758555504,-0.8783422459893049,-0.7048984114530708,-1.0623378888302641,-0.2736390181032769,-0.9646995086471258,-0.7619758710558825,-1.0159530467054332,-0.05126105196425067,-0.7906199526343056,-0.48768296920374915,-0.6201552935943577,-0.49975527791955904,undefined,1496161532551
903d185fccf839df,-0.6764564015625997,-0.43486832831165806,1.1907618664503288,1.1902434158396156,-1.0610942689013496,-1.5654571322119217,1.8879580093869672,-0.5065171896880402,-0.7016059136687922,-0.21012822622734195,0.054410618469214383,0.008178055822918516,-0.8087121212121212,-0.7391542785689454,-1.0549694339512836,-0.3241542089329143,-0.9896106489697394,-0.7537177118970668,-1.0213126039776603,-0.11233128918898645,-0.7955720764068335,-0.4977750704812853,-0.6614577450962474,-0.5116967494907982,undefined,1496161534040
903d185fccf839df,-0.6321039070088761,-0.2963326133870566,1.2437171450125308,1.3119821099250728,-0.972071559066892,-1.5613110862609776,1.8659149768517729,-0.6227364627127191,-0.7689749316023927,-0.28606054698777,0.11542748094963036,-0.04324270069307297,-0.8609347147950089,-0.7650776108658544,-1.037074678064335,-0.3665869895804092,-1.0369047593968508,-0.7687964501396104,-1.0133222462195286,-0.1414343506247496,-0.8047076553878109,-0.4905680368408125,-0.6786058492342117,-0.5174592581304291,undefined,1496161535160
903d185fccf839df,-0.5392410505338304,-0.39553826498154043,0.988512312127654,1.0181755413597164,-0.8977676824606825,-1.5872355167687662,1.9383135342948619,-0.1940026351602147,-0.7588764719920222,-0.36553758302784756,0.12050934594699983,0.04509474309658568,-0.843527183600713,-0.7521159576681745,-1.0254957175066348,-0.441349410956474,-1.017615290037033,-0.7649080225555918,-1.0072909958004854,-0.09636310123426275,-0.7936381397183673,-0.49740062843545396,-0.6774850149173833,-0.5357598409240142,undefined,1496161536580
903d185fccf839df,-0.5780493883784618,-0.416083789915789,1.183105990848949,1.191473054997257,-0.9306202011081518,-1.5812190926822207,1.9200574187473178,-0.3353639454983114,-0.736417835136693,-0.1561950200412265,0.11845164504620939,0.018872480515060564,-0.9131573083778967,-0.7604484342086549,-1.0181272847143557,-0.42316397391429267,-1.0218558321975828,-0.7346492174435464,-0.9968097729909987,-0.18370308682115732,-0.7958319064738273,-0.4907172513692985,-0.6598442081219521,-0.5297621425273527,undefined,1496161538089
903d185fccf839df,-0.4879584549836184,-0.45717489824027074,0.9176929849796329,0.9801363981429574,-1.0338371708711793,-1.5455188435502631,1.9374062421484475,-0.1914494461819799,-0.6713839122676808,-0.40401621663069276,0.16064530718192135,0.05630265473865931,-0.8783422459893049,-0.748412599506408,-1.008653591720483,-0.3766899881757265,-0.9614897510562529,-0.6808698595413505,-1.000581054059645,-0.1604976293855182,-0.7691476835375745,-0.4805151912368391,-0.6604575331433017,-0.5224381803164276,undefined,1496161539604
903d185fccf839df,-0.3091626014921474,-0.5064840996264827,1.0389152933067969,0.9985457038928297,-1.02438461960595,-1.515136246440496,1.878196152741869,-0.5162608310606259,-0.5970190173960194,-0.38516523617484694,0.1337200433001935,-0.033317452829502714,-0.9131573083778967,-0.7206375654647604,-0.9833903809545539,-0.38477239835786897,-0.9407119232260809,-0.6757275089929383,-0.988714462286733,-0.11146898063270748,-0.7535997512306439,-0.47417404679413955,-0.678904410542787,-0.49933368717420545,undefined,1496161541079
903d185fccf839df,-0.4186576520511919,-0.5282037130129587,0.8877063497693682,0.9441599636829981,-1.0679651209007077,-1.51367115520849,1.840621493617729,-0.7752818363598906,-0.5181033952945194,-0.3759889202002635,0.16684305422959236,0.002812381493278552,-0.5650066844919787,-0.666939225027753,-0.9928640813106604,-0.3867930150357654,-0.9469978182966348,-0.6528085858742867,-0.981178897608726,-0.17110715890381356,-0.7541235563423605,-0.4795506498158562,-0.649916914776655,-0.5247051955227947,undefined,1496161542571
903d185fccf839df,0.012392863253414193,-0.4612839447711358,1.007015006867374,0.9241455714989425,-0.802748422095622,-1.5287879164557618,1.7788946891053332,-1.1006717808449913,-0.5160413827777868,-0.42688060597393096,0.16036283030131285,-0.019144931817275234,-0.7347301136363636,-0.6280542006808406,-1.0076009689819199,-0.3019274820054971,-0.9239334381511048,-0.6082879923592779,-0.9772886706695377,-0.03115068972336927,-0.7052562272325084,-0.4850674376575686,-0.6139822258633542,-0.5242176911892058,undefined,1496161544124
903d185fccf839df,-0.25510794484009414,-0.3356626767171742,0.8583581065760552,0.975916512231808,-0.8249346697553767,-1.5976495446435965,1.8380548033421669,-0.8427899774036565,-0.49183492451546046,-0.17824447214630143,0.050000599393313125,0.02515477498971425,-0.7826008244206774,-0.6262025377884256,-1.0423378506550205,-0.2554535245316525,-0.9228576303553454,-0.5925949595655536,-0.975014706290463,-0.039589036885572644,-0.7007399604881464,-0.48051720800688064,-0.6058344535849046,-0.5115729794117008,undefined,1496161545605
903d185fccf839df,-0.27035419463669663,-0.3462288882273745,0.923435463488804,0.975916512231808,-0.8857128521793288,-1.591390879848732,1.8730128148288705,-0.6356143834166563,-0.4896660425161051,-0.30582655058714964,0.09394463680412057,0.017363104810537412,-0.9479723707664884,-0.6086116690812227,-0.9833904251279566,-0.21908259391784676,-0.9362038301500446,-0.6182623815302365,-0.9452712633271131,-0.046810905726685184,-0.70251418267398,-0.4803798005554956,-0.5974152419650923,-0.5153752776985444,undefined,1496161547198
903d185fccf839df,-0.42835981414952157,-0.4096266249364537,1.095060244721212,1.144650598794962,-1.0408623080760493,-1.6070736484299166,1.8428357870865975,-0.9127464692345082,-0.5300715244973627,-0.24514859821620355,0.031062148534054524,0.0019487869903239106,-0.9088054255793226,-0.6095375329043665,-0.996022001061986,-0.25747414120954887,-0.9238364280977347,-0.6271411695625398,-0.948412831887872,0.05093842628943691,-0.691414619973488,-0.49112626164635226,-0.5672361882874897,-0.5327214652206698,undefined,1496161548618
903d185fccf839df,-0.5309249362391262,-0.44426050982561555,1.1563092826278467,1.1644552625828004,-1.0114555044341593,-1.6447793713175105,1.8659991274200443,-0.8004323789034996,-0.6174804567635271,-0.159856894779244,-0.12407161230574194,0.03496139282838363,-0.8696384803921569,-0.5891691633831537,-0.9697061896441953,-0.10592856872063676,-0.9021835887649705,-0.5970026904191216,-0.9436619981100602,0.07260403809000038,-0.6711140716328523,-0.4925529932353407,-0.5379994550098952,-0.5316327333103357,undefined,1496161550132
903d185fccf839df,-0.5032046012639917,-0.4389773163865384,1.1097343663178685,1.165895349343963,-0.9017688357811195,-1.60513805027519,1.8127008477224817,-1.0435909855476218,-0.612010193360034,-0.1500949163575874,-0.044095320233827735,0.00035248116035603295,-0.7042669340463459,-0.6512000321637397,-0.9497061588311855,-0.10794918539853314,-0.8980949764367193,-0.6426378824255281,-0.9090767615184506,0.08658582697256036,-0.6784051300825082,-0.4912323804796606,-0.5464880092088416,-0.5073959643359665,undefined,1496161552330
903d185fccf839df,-0.4838004495943809,-0.42782408987821674,1.104630279825649,1.272870927325261,-0.85136892027862,-1.6295018924595575,1.850299182934208,-0.8293018150848357,-0.6182983915079835,-0.14754532487226782,-0.04438137389567371,0.10933144835342909,-0.6215811608734403,-0.6558292088209391,-0.9518114263950128,-0.10188733536484398,-0.9082575373304512,-0.6464819793484383,-0.9101472734908262,0.07954873862867756,-0.684371165065865,-0.4914361868682513,-0.5296159533845238,-0.5163634401717193,undefined,1496161553960
903d185fccf839df,-0.4533081225282246,-0.4319331948650664,1.22776674765587,1.285905153783456,-0.8530352038230145,-1.6325531952451113,1.8410396391773407,-0.9151777573700747,-0.5504479044818728,-0.19026277192074276,0.04234557740886696,0.07761412506352469,-0.7608414104278075,-0.6761975653913774,-0.9444430009649676,-0.11805218399385047,-0.9392498344986677,-0.6722253947824667,-0.9131628988808013,-0.0034180836050402533,-0.7121308711114112,-0.4825906104901389,-0.5595534472867202,-0.5029954113091104,undefined,1496161555178
903d185fccf839df,-0.3659891467189933,-0.4254760298857312,1.0631597041448397,1.0787588364920206,-0.7737427649553565,-1.6392777097065259,1.8826063609097305,-0.6393146727282939,-0.5949987138270295,0.009807519924911414,0.12730122157593973,0.03311472733437939,-0.8261196524064172,-0.6058341812179873,-0.9118113500445256,0.013287306510262416,-0.8934207291745709,-0.679191631897438,-0.9068867593714952,0.07876341799169065,-0.6943583500102672,-0.49749858669243385,-0.5487008686141206,-0.501048214519523,undefined,1496161556692
903d185fccf839df,-0.2592660537455609,-0.43604229985191617,1.3056040666622184,1.0787588364920206,-0.8330809432602215,-1.6500597587377632,1.8852519374327887,-0.6463009898159289,-0.49049161785809114,-0.17629216390644842,0.09105048172310544,0.08357647363969391,-0.9523242535650625,-0.5151024793264826,-0.9318114176687043,0.017328624660219796,-0.7986471235362229,-0.5852234136565894,-0.9000928555269938,0.16143767139086834,-0.6307171847627105,-0.4760268614263824,-0.4668747061664709,-0.5222685945876195,undefined,1496161558230
903d185fccf839df,1.0006212420218987,-0.31746515331942654,1.3687672640719102,1.270109387475668,0.07767638294303507,-1.600179102077429,1.8668643360330892,0.016400504331453476,0.3872517496594567,-0.5934646955759968,-0.07577221884963561,-0.08333110236944555,-0.8043602384135473,-0.4910308228727633,-0.8065481117355965,0.10421457651533371,-0.7206618542916612,-0.46862125123571563,-0.7081143570961721,0.3543801875286887,-0.47469375464705016,-0.06465095002786049,0.025225141193023302,0.0023179615953816597,undefined,1496161559692
903d185fccf839df,0.7816309338713514,-0.29985464491980024,1.4402247290999335,1.3509772506836806,0.17758135911989958,-1.630126131173939,1.8463202878058471,-0.080843279556172,0.48153907508322386,-0.8205244651694948,-0.09168882383755711,-0.05817182374383629,-0.6259330436720143,-0.3725240351365128,-0.7391795717798202,0.14664744195699322,-0.6309039165800885,-0.3861473259797268,-0.6826529614717893,0.4834653581819736,-0.40434498542660136,-0.026292745778596673,0.01850063700851348,-0.019369916136006422,undefined,1496161561216
903d185fccf839df,0.7954912048751479,-0.24056613010954012,1.584415172505136,1.4970234961489628,0.15576539767182093,-1.632597453030466,1.8256815677014353,-0.20374788117616602,0.5340232258279203,-1.0837387059129557,-0.0860950634934051,-0.037116648881073966,-0.6433405748663101,-0.38270826522483015,-0.7118111155367651,0.08400866411886367,-0.5803707002936105,-0.34774435516567526,-0.6593955623073432,0.4810324024552293,-0.38585025957360536,0.0018154406308066636,0.06038843663579828,-0.04642758646610305,undefined,1496161562694
903d185fccf839df,0.1302041316233921,-0.25641550583082523,1.6335418779242745,1.6150803549367048,-0.5251580254901478,-1.7221217598432264,1.9975104657801872,0.112929647392803,-0.39514903682861713,0.21597628626333973,0.036670771450691135,0.020103551521672782,-0.7695451760249554,-0.19198641747199993,-0.6265478712296768,0.20120375308353722,-0.5422639558731804,-0.30364806866112176,-0.6438346548136231,0.49304318866480046,-0.3578707501461027,0.0005317850868252461,0.05571447870472594,-0.06437361731004518,undefined,1496161564187
903d185fccf839df,-0.03334561009311537,-0.33918476670590253,1.1811918313458918,1.196241258323767,-0.7977084319671421,-1.666478562995831,1.81064170742036,-1.1114460345964807,-0.5441713979870149,-0.07052444054951065,-0.07347273043075837,0.04711987103531161,-0.7826008244206774,-0.15402726989900595,-0.5939162718448714,0.31435791960435494,-0.4182189565771669,-0.2682405802452333,-0.6218016981275994,0.49627686215467126,-0.3341731479141889,-0.015794074452875936,0.12206417402612905,-0.07171280068429033,undefined,1496161565703
903d185fccf839df,-0.1539289395649345,-0.413148714925182,1.0574177339095674,1.154094012605108,-0.8363723702575588,-1.5839932157956285,1.7817033202520287,-1.1986453766714664,-0.5324991096348085,0.03361869826618219,0.02151367894073973,0.10594707991734036,-0.39528325534759357,-0.2604981646545241,-0.6370741869621126,0.2496983272352782,-0.49573310735643844,-0.3088600804715787,-0.6551484992123883,0.49595349381755066,-0.36802548410575614,0.0035137661807307322,0.10875282448546303,-0.02929400168896416,undefined,1496161567202
903d185fccf839df,-0.2731261867277184,-0.4260629864278679,0.869204163303547,0.9835937626265518,-0.9014088339141297,-1.533434750323113,1.7936689396294012,-1.05702343347831,-0.547895989603695,-0.14901980436824255,0.12748339506356535,0.02177030832901907,-0.43880208333333337,-0.5400999607510222,-0.8181270502065952,0.07188496405148534,-0.7500406283365939,-0.5247817987510905,-0.8464972851781422,0.16176103823367277,-0.5927567227294024,-0.3666686159107591,-0.4233650439223016,-0.5151284005052325,undefined,1496161568695
903d185fccf839df,-0.3881653594904453,-0.36149133663451527,0.8609104039591143,0.8943713542892264,-1.0205480605121384,-1.584233126987931,1.907097736803253,-0.4316581310539747,-0.5186959725636443,-0.11742883179293216,0.0985375222773109,-0.0117446976860244,-0.6955631684491979,-0.5650975069294344,-0.8960218838081058,0.06178192305908571,-0.7918078072010245,-0.5668008796464096,-0.8853155916527966,0.06585951798831616,-0.6380769173252049,-0.44018261822475646,-0.42406815010613347,-0.5463836654134743,undefined,1496161570191
903d185fccf839df,-0.6487361355982846,-0.35914321818604505,1.1862959178381114,1.1066385063260002,-1.1272621625250097,-1.5874288429864405,1.948564522861459,-0.20672578306730816,-0.47866585473745327,-0.14695187359658352,0.11606685697708827,-0.026821474663317142,-0.6346368092691622,-0.5826883497350883,-0.8718113399541425,-0.031166090815128878,-0.7898556582208166,-0.5856603858623163,-0.8849377633944423,-0.06450372183306118,-0.6682045838656472,-0.4402112086613686,-0.4564896640951736,-0.5308192794119876,undefined,1496161571732
903d185fccf839df,-0.6376480637179683,-0.32509634829500456,1.4095999560096666,1.220580025348303,-1.0923010771289523,-1.6187454644331811,2.001702388214065,0.09381985589754498,-0.48914847836243347,-0.320592716454419,0.08869199575439166,0.03285024961313558,-0.7651932932263815,-0.6354608522505009,-0.89917978147273,-0.06349575980842032,-0.8574287240996776,-0.5865469979494677,-0.8857214067815168,-0.09579336377419169,-0.6776579883531392,-0.4466008999704986,-0.447887726391244,-0.5298297048015735,undefined,1496161573196
903d185fccf839df,-0.6002256701607332,-0.333314558268704,1.2928438504316695,1.4386486126081661,-1.0512714321886434,-1.618789722117058,1.8876634850168224,-0.6270461954138093,-0.5334291997578395,-0.33449484689549025,0.11460811647661051,-0.15844016024044272,-0.6128773952762924,-0.6882334065690117,-0.8991797520237949,-0.15846429143400592,-0.888072278156295,-0.6010621057826733,-0.9270585651962433,-0.13003950660828065,-0.7051474026957166,-0.44882409965771247,-0.5108222016241263,-0.5548543673568952,undefined,1496161574687
903d185fccf839df,-0.5059766278604232,-0.38144984657064246,0.9968068338829349,0.9511620236279582,-1.0265549037876156,-1.548372160701943,1.8928179008530899,-0.47077753771717484,-0.4454287689946385,-0.4075423577456958,0.11989713884024773,-0.11792007312439441,-0.1646334670231729,-0.6308316626425269,-0.9033903239626186,-0.19483532097433703,-0.8653606142397445,-0.5514814894500017,-0.9242598408883919,-0.15005748210747885,-0.6832521755504032,-0.4506117462210976,-0.4868778474585915,-0.5720985946130003,undefined,1496161576194
903d185fccf839df,-0.6182438430375381,-0.336836706713417,1.0452954014220712,1.0078827522568068,-1.0434954497487388,-1.609777893445333,1.8714743908016167,-0.7164889686387476,-0.4091164953536984,-0.2979407545625593,0.07743022138249174,-0.1416536162096302,-0.24296735739750447,-0.5697266576850848,-0.9202324129376015,-0.21302080041360066,-0.7965177992191155,-0.5314060581421591,-0.9281010894479813,-0.12012290390411393,-0.6727431718982856,-0.4491852696642521,-0.4396617685181117,-0.5612659526899897,undefined,1496161577686
903d185fccf839df,-0.571119321887383,-0.3802758165743997,1.1110103879409234,1.0229485349067913,-1.000892093571651,-1.6581375573462611,1.8388358691124145,-1.0065826491003727,-0.397446131547376,-0.20998629047583406,0.04251061239214272,-0.026696513368893494,-0.6433405748663101,-0.6280542006808406,-0.9233903179644596,-0.16250555305452022,-0.816465033575429,-0.526808342233829,-0.9309837756637478,-0.026808322870677935,-0.6606049631846629,-0.44460901112594997,-0.45068738719387563,-0.5653460370809182,undefined,1496161579195
903d185fccf839df,-0.745757100978797,-0.41784477645416845,1.179915809722837,1.1338351165881397,-1.0097583598396183,-1.7487240005693903,1.8499862431309255,-1.0805218823966605,-0.4320398349364053,-0.14817836813657081,-0.049193662245165005,-0.005223920326651385,-0.6520443404634582,-0.6484225443005044,-0.92654820826685,-0.2008971286109439,-0.9019428640373645,-0.5494042861661668,-0.9325090806795459,-0.030426955315811896,-0.6743191696182183,-0.444752923668838,-0.48811118219802857,-0.5485710230376313,undefined,1496161580701
903d185fccf839df,-0.6348760026161271,-0.45365272056756545,0.9795804149032192,1.0115390637748445,-0.9755481304453998,-1.7371546706658665,1.9146242489815126,-0.6490328383036561,-0.5225206555439706,-0.1013818733602576,-0.0004955209416733022,0.06360897190205111,-0.8087121212121212,-0.6595325475565438,-0.9370745534482209,-0.19887654019776904,-0.9375100204008687,-0.5795744285496823,-0.9351958555974104,-0.037079083829381514,-0.6901959807966545,-0.4641062126872497,-0.5099655005769083,-0.5394584829101015,undefined,1496161582188
903d185fccf839df,-0.5960675957606762,-0.34798993322173866,0.7071491630386265,0.6100027672341171,-0.9649435755404109,-1.675096749720117,1.962562973507338,-0.2106628361501633,-0.5963378632731148,-0.23540709888782158,-0.03494882753172798,-0.059881642479855925,-0.7042669340463459,-0.6549033968008934,-0.9391798357365159,-0.17058801976610577,-0.9013836778985211,-0.5925949601745869,-0.9063340095566411,-0.03834175448471614,-0.6865872623544838,-0.4624575378686967,-0.5165127854895616,-0.544688574172087,undefined,1496161583697
903d185fccf839df,-0.6459641780126726,-0.521746606489608,0.6644025657347624,0.7100816543135794,-1.0496977221521773,-1.6805331935227452,1.8345492810864972,-1.1038610821377295,-0.4886041706750391,-0.35599722441519005,0.02801043563017862,-0.05723432939654582,-0.8565828319964349,-0.7021209235898354,-0.9223377246748317,-0.16856743135293092,-0.9686920800217749,-0.6549427917913806,-0.9083560878449473,-0.0326289348051182,-0.7151744978038603,-0.48625586543382077,-0.5020311829238455,-0.5186560961033472,undefined,1496161585247
903d185fccf839df,-0.5170647687515589,-0.41960582144853265,0.8908965308954802,1.0131296904467215,-0.9036819650855803,-1.7338075531274277,1.8254343770438914,-1.1746096059175823,-0.6558143925378397,0.040105762737255655,-0.00043473881666295465,-0.06113957025865143,-0.8043602384135473,-0.6947142461186261,-0.9044429467011816,-0.2716184296901021,-0.9778374441155004,-0.6881337498315953,-0.906438962190805,-0.08178077346394089,-0.7352746432422873,-0.48400978842428966,-0.5637553134917915,-0.5175985758451034,undefined,1496161586686
903d185fccf839df,-0.32995273195456426,-0.47830737971665604,0.8768602930418764,0.9893944034747444,-0.9130316660041501,-1.7219167863209073,1.8442427555088883,-1.0590757373742201,-0.5992652975230708,-0.01931217148770477,0.026755445406843062,0.05204294707217951,-0.865286597593583,-0.6900850694614267,-0.878127098472222,-0.31000992045236114,-0.9499717021255935,-0.696379241613693,-0.910679029649359,-0.18316413760917605,-0.7530860225055108,-0.47343551031701653,-0.5890415266043341,-0.5206622694179702,undefined,1496161588182
903d185fccf839df,-0.24540592076340334,-0.564011686354348,1.0503994879142908,1.087839317618287,-0.8864534261690891,-1.753559501557146,1.857515378303757,-1.0216618772115704,-0.5591345235425986,0.062260354982710556,0.011217615971061544,-0.03782829798422485,-0.7695451760249554,-0.7169342396799303,-0.8812849961368462,-0.2150413040326109,-0.9772151183498275,-0.7171259639824226,-0.9079992510468894,-0.1079735300431246,-0.7457357730459999,-0.4610575775579764,-0.6264370521788436,-0.5236085334772583,undefined,1496161589241
903d185fccf839df,-0.2204575778792906,-0.5381829972090145,1.0446575176790185,0.9787132155091307,-0.8522534830380567,-1.7626924486368292,1.8838634048703098,-0.8556910223988144,-0.5631919354293012,0.03416099754836479,0.014261597009791715,0.006422321801468605,-0.7260263480392157,-0.711379225101136,-0.8876008209150299,-0.255453496266931,-0.9749683683262321,-0.7178669185643141,-0.9114346853524985,-0.09754878248945077,-0.7458164243140281,-0.46083546161135286,-0.6290874924769404,-0.5212493225148566,undefined,1496161590636
903d185fccf839df,-0.4893443992710147,-0.48241654315949045,0.6746107387192015,0.6508322492855414,-1.0518268623173688,-1.7182039800523201,1.9398230509106908,-0.5049975117913929,-0.479610165152287,-0.2639471613221292,0.03059930230864917,-0.03631712456009291,-0.8217677696078431,-0.7113792315765234,-0.9076008590902735,-0.3322365625856137,-0.9774596090225327,-0.7471251191068515,-0.9284509294412798,-0.16277659589214194,-0.7740612453048941,-0.4611291316706054,-0.6360429637152324,-0.5291490440858551,undefined,1496161592095
903d185fccf839df,-0.6764564360680094,-0.5957105547088876,0.1055048406997711,0.13672780655894448,-1.232289417859561,-1.6813251343693607,1.8612312932166937,-1.0280964552139806,-0.4192474478851536,-0.560567780222905,0.05399629559708928,-0.06696726517583289,-0.8130640040106952,-0.7465609366139929,-0.9644430170535099,-0.2453505118039744,-1.0208699501726521,-0.798554955187105,-0.9498961557019716,-0.17980727857508128,-0.8063317405390946,-0.4628398131291948,-0.6549999746031813,-0.5311751519791251,undefined,1496161593665
903d185fccf839df,-0.6820005237662822,-0.7665320360741806,-0.1599081651695449,-0.21843094376922273,-1.2521922391423497,-1.6109634752427298,1.874693266051032,-0.8735856935916658,-0.32401129517547267,-0.6288872509496608,0.07708139348903664,-0.013371453822566465,-0.8565828319964349,-0.7252667291711853,-0.9370745608104547,-0.21100018373570428,-0.987476904313986,-0.8342600906491776,-0.9068307852331543,0.021034649702235446,-0.7639870057944868,-0.4497748021788114,-0.6884293218542126,-0.4563725605258366,undefined,1496161595177
903d185fccf839df,-0.587751481465972,-0.79588278598025,-0.4393571547555153,-0.5207954359424576,-1.1274164489788465,-1.583219906354802,1.8589275738598,-0.9151133192784606,-0.2740224776344651,-0.5444684534850768,0.04356778307324154,0.04560028760413368,-0.9697317847593583,-0.7623001230026191,-0.9949693635989554,-0.25949472962272374,-1.0029065554877126,-0.8592562187126638,-0.9549058730053687,0.03517042554324745,-0.7949312241812407,-0.46182735180113,-0.6308036351467997,-0.44490424276429424,undefined,1496161596679
903d185fccf839df,-0.5960675957606762,-0.7354202411737472,-0.48529393318549136,-0.5580323952154789,-0.9305996324367841,-1.6446256395186007,1.8652364907007177,-0.9136228516470396,-0.32389515842015304,-0.5873267202635983,0.01934806608624481,-0.06853179470263993,-0.8043602384135473,-0.792852644907502,-0.994969378323423,-0.26757716806958776,-0.990149312969019,-0.876893467756677,-0.9643305776783301,0.008146151859904338,-0.8116121858373198,-0.46519974238894124,-0.6308046721876636,-0.4453186672215808,undefined,1496161598197
903d185fccf839df,-0.6764563670571899,-0.8639765842183157,-0.50060619266215,-0.5823187820201488,-0.9893926789412519,-1.6994699059239327,1.870659149632843,-1.0000372312210697,-0.33110100300323264,-0.6380152533440083,0.031039960886621698,-0.000341527960727458,-0.5737104500891266,-0.8724743435429673,-1.0328641650233814,-0.12007280067174685,-1.0104075436943705,-0.9158030735001799,-1.0066402926152858,0.09978230023957468,-0.8178766652260596,-0.46509843478654833,-0.6419490321578508,-0.4636842874779548,undefined,1496161599662
903d185fccf839df,-0.8497082363666174,-0.9684654877078613,-0.6135339792340331,-0.6566241980931035,-1.04491487495179,-1.7023628237860071,1.8861934034064476,-0.9495250313836947,-0.2629713309043056,-0.7153412385123177,0.06721532213160024,-0.04767326615486586,-0.7869527072192514,-0.8789551701418072,-1.0791799998919482,-0.23322685413367839,-1.0310596553520783,-0.9328766894551085,-1.0453046695565062,0.14489974476446568,-0.8278585450655953,-0.4599218111380963,-0.6388178138256728,-0.4365190774114743,undefined,1496161601157
903d185fccf839df,-1.0506803716403599,-1.0371463009440482,-0.8119559769614421,-0.8619156132702255,-1.0775205354159572,-1.6696416721088478,1.8760081583551589,-1.0008578342461505,-0.2744776744609252,-0.6687791611746521,0.08162585477003706,0.010219356825220122,-0.9523242535650625,-0.9224693776213064,-1.1686538014133927,-0.3706281664067589,-0.9673388684775406,-0.9837998899193641,-1.1654678990998977,-0.25904767807432005,-0.9760164020846803,-0.45690481607701516,-0.6062256045775469,-0.5024562997037715,undefined,1496161602657
903d185fccf839df,-0.9009908664222391,-1.043603407467399,-0.8087655416983808,-0.8575465841295241,-0.9656841514626746,-1.6760843484785743,1.8853518642030374,-0.9256701191091352,-0.30528186515881695,-0.660823412351734,0.0913130189548353,0.028021021250582364,-0.9697317847593583,-0.9437635462117904,-1.180232758289976,-0.39285487920181533,-1.00498390676065,-1.007947403557763,-1.169379116129161,-0.29646590064341943,-0.9951090307401654,-0.46375528026947116,-0.6292287250128711,-0.5074959445804338,undefined,1496161604156
903d185fccf839df,-0.7817935847540455,-1.0025122991429172,-0.7558105172731281,-0.8261096514562506,-1.083547950843709,-1.6614474086228734,1.883355848087978,-0.926721632401125,-0.32040342931961935,-0.6363910297719901,0.09257813417202379,-0.010178350808933406,-0.9523242535650625,-0.9585768882034345,-1.2065485807511174,-0.47772042636444434,-1.089436304638928,-1.029998713492272,-1.181553567048462,-0.38195806861690595,-1.0310014143304636,-0.4682220505917573,-0.637244675184916,-0.5129514470473711,undefined,1496161605661
903d185fccf839df,-0.57527739628744,-0.9620082642725414,-0.5395252333707483,-0.6177078289365148,-0.8226512472094087,-1.6436683260303993,1.9031688010008696,-0.710610916096351,-0.313686021805331,-0.4867806279165252,0.08821828190316129,0.00916753929074244,-0.9392686051693405,-0.9483927196312962,-1.1823380111293358,-0.38679298677104385,-1.0107749347967045,-0.9953321794755648,-1.165369943221557,-0.33901180393065505,-1.0042409447511997,-0.4615860930939742,-0.5887869120147459,-0.4919214220688432,undefined,1496161607161
903d185fccf839df,-0.4740983565068706,-0.896849482569098,-0.5388868413537967,-0.6342702610618229,-0.9875926866547429,-1.611669236532863,1.9125808827863247,-0.614538524998166,-0.29004124924202146,-0.4809490078174445,0.061585008284146224,0.01897850039522357,-0.7869527072192514,-0.9520960551292071,-1.1676011565881284,-0.3120305795273398,-1.0167219453178613,-0.982818282625085,-1.1557423311065766,-0.37319635279448654,-1.0048975736366992,-0.4590436020436903,-0.5864081383050832,-0.5014612796016756,undefined,1496161608657
903d185fccf839df,-0.4034114712654088,-0.8481272377250229,-0.42851109802802345,-0.5177815210924922,-0.834716372694277,-1.6243263226592515,1.8857621208760185,-0.7469398149595698,-0.27794459959209167,-0.4408394309096988,-0.014532498461377762,-0.10310658638905724,-0.6563962232620321,-0.8734001814645621,-1.117074779229673,-0.18271169156876255,-0.9949375199376186,-0.8786856901197589,-1.0635733419235898,0.23658208791505794,-0.7984200628463467,-0.4301288624487467,-0.49069086758058855,-0.3572966794031858,undefined,1496161610188
903d185fccf839df,-0.6099277632482436,-0.7043084462733136,-0.6180001819832,-0.6717089882336295,-1.1295250227832723,-1.5621146725820112,1.863853209888753,-0.8298539221605362,-0.3275856152476633,-0.6110354985235884,-0.011331379619987588,0.05112927535696804,-0.5432472704991087,-0.9178401815379451,-1.0960221183158663,-0.126134650705436,-0.92333170468968,-0.8919278757312155,-1.0607746174811632,0.19910227163148483,-0.8117698689510119,-0.42266399180720543,-0.4729505645198469,-0.3313559236104894,undefined,1496161611686
903d185fccf839df,-0.7956537177362031,-0.6056897512209665,-0.49358845494077225,-0.6436985312371394,-1.2579008041175122,-1.5576495209365944,1.86713257533168,-0.7941234394750172,-0.32118442389600943,-0.677972393096609,-0.039273040848866625,-0.10732561563685675,-0.5519510360962567,-0.826182628774071,-1.0844431577581661,-0.017021816466936474,-0.82152980500877,-0.8509790622011056,-1.0741735099796785,0.2584324810340522,-0.7866051326475647,-0.41766618728240107,-0.4236188584745723,-0.30347348224218357,undefined,1496161613168
903d185fccf839df,-0.9578174289017899,-0.8369738943047318,-0.7755894877728524,-0.8462438867112418,-1.5708122780234384,-1.5241504026095527,1.8533155680307702,-0.9216478362687324,-0.30493345746098505,-0.6981527413893225,0.05949377050020298,-0.008364801020472908,-0.6085255124777184,-0.9437635462117904,-1.071811570780786,-0.11199033396016131,-0.8570583946134616,-0.9153471019706575,-1.0768882732788232,0.17352545309901204,-0.8283230341408142,-0.4198319506738337,-0.421275236802683,-0.2967995795351444,undefined,1496161614669
903d185fccf839df,-1.065926535173438,-0.97609656577147,-0.7232718388167536,-0.797735989436409,-1.667621257333188,-1.5807043300979335,1.8724158541564713,-0.9153613644644114,-0.3193783367989435,-0.6741932862497363,0.058566237216780385,0.06826689146330735,-0.7869527072192514,-0.9400602042384921,-1.0865484400464611,-0.13017581339942494,-0.8525767753447295,-0.9387473292240408,-1.0753349813987763,0.023236626997184977,-0.8720328719992129,-0.41276657621030466,-0.37921335456137356,-0.2680088592287088,undefined,1496161616166
903d185fccf839df,-1.0742426494681423,-1.0776503942704088,-0.7806930659911732,-0.8197979389403809,-1.729479439806664,-1.5824349547774554,1.872052952801228,-0.9576295670926668,-0.2835155916624265,-0.642720146843586,0.09112458022089354,-0.04872096332548934,-0.6259330436720143,-1.0289402659014373,-1.2054959506503207,-0.38073127806096235,-1.0475534431271827,-1.031752939743556,-1.1535033520848195,-0.5088720550159131,-1.0522652249389273,-0.46289979279901394,-0.5475629346099428,-0.4487910091730857,undefined,1496161617662
903d185fccf839df,-1.1255251760075349,-1.0653229623978901,-0.8068513821953237,-0.857540818900587,-1.7336040035548907,-1.6188665861391716,1.8824827627657439,-0.953631915338272,-0.2885204325309678,-0.6618083240904455,0.09047622955559004,0.016415308950435713,-0.5519510360962567,-1.0437535981800004,-1.1991801479588384,-0.6676575461450587,-1.1030626934456313,-1.0457360793666273,-1.1862554241472179,-0.6281638122113903,-1.0913678452076458,-0.455000962767921,-0.5448613633307101,-0.4587947852455473,undefined,1496161619171
903d185fccf839df,-1.1379993129441814,-1.0477125124542486,-0.8272682364381008,-0.8704659653338364,-1.723441735495044,-1.6390075191768017,1.881083713608215,-0.9947424605828892,-0.28719814158174617,-0.6726558367938135,0.0913734104863749,0.019109494487968247,-0.5998217468805704,-1.0993036403617464,-1.2297065055476346,-0.790914626467029,-1.2110916264705398,-1.1189385750789143,-1.2094008749860456,-0.7427436442117914,-1.147858828984537,-0.4686123213814316,-0.6591688173224194,-0.49338390076629846,undefined,1496161620665
903d185fccf839df,-1.1075070031307301,-1.0618008139531772,-0.8700150878789144,-0.9006762339370596,-1.681506946862737,-1.648368731767789,1.8833742603785497,-0.9925004875617336,-0.28525046124908954,-0.6831808623671201,0.09230859821090907,-0.019050698374422463,-0.7738970588235294,-1.1159686517211929,-1.2739170765334908,-0.9121510901111031,-1.286962735419976,-1.1482284395979254,-1.249415635826993,-0.8450509170762254,-1.1946631366541325,-0.4744977018224971,-0.6726470461144559,-0.5216847783730746,undefined,1496161622190
903d185fccf839df,-1.1435433316316348,-1.0823463973434104,-0.8712913636389186,-0.9133146313224333,-1.6474201462690938,-1.6483896953642627,1.886196038971281,-0.9721093559490209,-0.285581064967725,-0.6849214745773451,0.09358914852480309,0.04424662199150316,-0.5998217468805704,-1.1233753194793212,-1.2949697374472975,-0.9707487052552437,-1.3144499602039292,-1.1605080172942652,-1.2688737668750323,-0.886364946033602,-1.2130260081141573,-0.47570229749190934,-0.6757094704981396,-0.53288276633756,undefined,1496161623670
903d185fccf839df,-1.1407713050352033,-1.074715260823817,-0.8987254473291746,-0.9248237222930594,-1.6232384712773273,-1.6541056488769403,1.8916949585375253,-0.942664183064126,-0.281776793177552,-0.6657264898153967,0.09262782440412924,0.02153275932025506,-0.8043602384135473,-1.1298561525535484,-1.297075001330008,-0.9889341846945073,-1.3134685886160475,-1.1666573056659162,-1.2759895234509742,-0.852349780204303,-1.211394992058606,-0.47516949966897715,-0.6718761931503405,-0.5311652331467253,undefined,1496161625158
903d185fccf839df,-0.9966258185045358,-1.0799983958069095,-0.8968117961000164,-0.9429694809844071,-1.4879301304392378,-1.6586127253958094,1.8940039270261284,-0.9167418686022282,-0.2779466691588067,-0.6490747093072763,0.08903549919056308,0.005028936776471236,-0.8391753008021391,-1.1270786582149257,-1.297075005011125,-0.9788311154373861,-1.305268992322829,-1.170089761133526,-1.2703081131475704,-0.7905558191264606,-1.1965849806449056,-0.47610264276346886,-0.6706169014227497,-0.5291765504965924,undefined,1496161626661
903d185fccf839df,-0.938413156463245,-1.0618009308651466,-0.8400284526686497,-0.9040837146329433,-1.4785084332403364,-1.6697138793821804,1.8884287478732862,-0.9682456576160992,-0.2772481936807397,-0.6464342043304847,0.08870844379608171,-0.10176165152075706,-0.9349167223707665,-1.128930319488494,-1.2823381467888006,-0.8939656248042002,-1.2934621843889067,-1.165587038167827,-1.2647386516407988,-0.7959144787341099,-1.1932615846822792,-0.47701982573926655,-0.6721164323309027,-0.5252403446088979,undefined,1496161628156
903d185fccf839df,-1.014643956875931,-1.0424293774711562,-0.8961734040830648,-0.9491363871753448,-1.339857238716185,-1.6848446163121118,1.8852677230624617,-0.9987380249799969,-0.28719199640424725,-0.6478383873361439,0.08711125560353097,0.01108084348520821,-0.9740836675579323,-1.1326336598429456,-1.284443414352628,-0.8858831580926146,-1.274260530688845,-1.1715083406335318,-1.2683210188524772,-0.8385219772839847,-1.2070235047759943,-0.476754528085027,-0.6670476737321788,-0.5208097869765992,undefined,1496161629662
903d185fccf839df,-1.0576104726368483,-1.0453644524617631,-0.8904309255738937,-0.945685429282401,-1.3788194567292869,-1.6942384396121346,1.8857384605012593,-1.0133165234105803,-0.2973008581668972,-0.6423221214033212,0.08686052794288819,0.10250899730229841,-0.9131573083778967,-1.131707828396738,-1.2770749815603488,-0.8474916249332732,-1.2305819901883415,-1.1580191706283702,-1.2705040238276493,-0.8082948285229042,-1.1966019595725372,-0.47720260966825945,-0.6350296757971676,-0.5120763542106992,undefined,1496161631195
903d185fccf839df,-1.0298901721671236,-1.0336241524993353,-0.8693772041358616,-0.9265987540316332,-1.3526834994382475,-1.6682418003523352,1.8952241694510437,-0.8674134021537464,-0.3158913476245397,-0.3931289278902266,0.061116939700974406,0.218185981335257,0.3401849376114082,-1.1178203210889952,-1.2644433835396183,-0.7020078671471484,-1.174723012292183,-1.1169057003910117,-1.2544813268099513,-0.7361223143796015,-1.1580489277846038,-0.4559080384056874,-0.5705718073645152,-0.48148944774340596,undefined,1496161632666
903d185fccf839df,-0.8233739837005181,-0.9878369826458671,-0.7896249632156079,-0.8088955659001882,-1.1775283628077073,-1.6866194971026034,1.9349605385450397,-0.533326591164117,-0.40913497332352744,-0.22087956210596127,0.05563080702922448,0.1776352757285254,0.4054631795900179,-1.0113494295711707,-1.2370749254560045,-0.59289505410719,-1.0096865152407992,-0.9408435340518742,-1.1842473393522068,-0.6773464482457489,-1.0339941073989203,-0.34990239671781337,-0.5352162169607122,-0.4717215493324112,undefined,1496161634156
903d185fccf839df,-0.5101346850077754,-0.41960582144853265,1.424911961349376,1.4193275000915095,-1.2262928529452113,-1.6065542267193658,1.8447371433709874,-0.856101029870449,-0.5169121953868441,-0.21456354473759337,-0.06602483074338097,0.15122264034772132,-0.7086188168449198,-0.6252766901537499,-1.094969502939537,-0.6575544980864786,-0.6791803084631836,-0.779353470627189,-1.1320161464453136,-0.6897575935118934,-0.9424336369292903,-0.34119010223925944,-0.5377784448301556,-0.47551278124867613,undefined,1496161635679
903d185fccf839df,-0.5725053524383037,-0.27578702999682336,1.9206472513855237,1.9070901646201466,-1.2505979548750679,-1.6198751456780904,1.8066049585799022,-1.105782478588331,-0.5222941788980977,-0.5261053539933621,-0.11472469249389544,0.010139005678484017,-0.8000083556149733,-0.5132507970079058,-0.9518114337572466,-0.3544633319101132,-0.7433767395399873,-0.6063057837012205,-1.043464507678117,-0.43492871955205137,-0.7863349493474385,-0.36505267222300075,-0.5878731285810997,-0.501955853812157,undefined,1496161637159
903d185fccf839df,-0.5877515504767915,-0.3879070115499777,1.690963105098694,1.582916142735457,-1.1747717972437213,-1.6015836289844458,1.8014610504347492,-1.1118467569706003,-0.5628272914667435,-0.4828673733483574,-0.20125794426062446,0.02988389903530633,-0.9392686051693405,-0.5725041325975455,-0.9433903745452876,-0.3827517816799726,-0.8297134578231236,-0.525605082630608,-0.9871541739200137,-0.2981597268288883,-0.704333968368367,-0.4039180261271132,-0.6629348998041598,-0.5383625281093828,undefined,1496161638675
903d185fccf839df,-0.6057696543427769,-0.2546544900644534,1.5659129860393148,1.5071066434543678,-1.14491241848298,-1.6250716782340533,1.8116725950919568,-1.1140733142408241,-0.519260085015051,-0.32636323698401587,-0.10915562254001683,0.013117507296500467,-0.8783422459893049,-0.6549033708993444,-1.0044430639550619,-0.396896056028165,-0.9564273749659332,-0.6382174864320552,-1.015302344480612,-0.33420748889756435,-0.7738123608397934,-0.43773948851560024,-0.6918773359406661,-0.5402688865349652,undefined,1496161640175
903d185fccf839df,-0.5808214149748933,-0.3961252799796618,1.2953958936777792,1.1640995608969953,-1.106762769449634,-1.6379803216505266,1.8537836782849082,-0.8915309845814977,-0.49734236902585205,-0.2400355468303748,-0.08194069880403393,-0.007485856629260571,-0.9305648395721926,-0.6474967063789095,-1.000232536189641,-0.25747411294482736,-0.9626298402577811,-0.640788661437733,-0.9831450020584274,-0.1657176998474327,-0.7327661026917689,-0.43921194854601525,-0.6666738424034483,-0.5277609762629099,undefined,1496161641663
903d185fccf839df,-0.6224018139213658,-0.3462288882273745,1.5454963859334871,1.4032300378557998,-1.1553318310213232,-1.695952757046207,1.851293257547401,-1.0218468191158496,-0.49753274214953025,-0.05920745279694556,-0.10108232308484072,-0.12129492602966319,-0.9523242535650625,-0.5993533416683728,-0.9486535360926224,-0.11401097890277923,-0.8722427124663841,-0.5876489308801739,-0.9444666313914635,0.19519106351295776,-0.6388745908233331,-0.4059315088953387,-0.5885245779868221,-0.5187449159480625,undefined,1496161643186
903d185fccf839df,-0.54617101350868,-0.42019289490263867,1.68713478609258,1.5147018277265647,-0.998217810517174,-1.7288066751716842,1.880150119760837,-0.8409208186387297,-0.5079064435091504,-0.20201806050391077,-0.06339620422714347,-0.04913710250826099,-0.43880208333333337,-0.5910208521771179,-0.9433903708641708,0.19918333425869159,-0.7025734105943606,-0.623607385202212,-0.9544860640102125,0.32934232025446825,-0.6283727628765404,-0.42914904676558324,-0.5690850670856442,-0.5041184478634483,undefined,1496161644692
903d185fccf839df,-0.5198367953479904,-0.47830737971665604,1.2737032719488968,1.2424373807283078,-0.9279870717786773,-1.7135222075591,1.9182796752722198,-0.5666741310803253,-0.48592133854369535,-0.4216057068136598,-0.057474074490182506,-0.020339659108326323,-0.5693585672905526,-0.5771333286809067,-0.9612851193888856,0.28404878249479526,-0.6730499826331823,-0.6236580491336611,-0.9530027404897319,0.32219744110967286,-0.6266230718395752,-0.4189610746900722,-0.6028077227886405,-0.5012387805605153,undefined,1496161646187
903d185fccf839df,-0.5725053696910085,-0.42665005988197396,0.9610779743004486,0.9698231513009573,-1.0012520896731392,-1.7081486525018375,1.9084520793018998,-0.6217267114962375,-0.5628417214178164,-0.521650289853564,-0.006063210545708512,0.01475751354122692,-0.7129706996434938,-0.5660233319002547,-0.9370745460859871,0.2113069495319053,-0.6807429509368979,-0.6234553944930513,-0.9548149141458847,0.30151732692327515,-0.6305799028603466,-0.4356288396503464,-0.5766901383436459,-0.4993572637589304,undefined,1496161647685
903d185fccf839df,-0.45192210923000886,-0.4243019998894884,0.7505341523594422,0.8340885524406642,-1.0643856970349832,-1.708786864071088,1.8403979587520367,-1.0938968267875646,-0.5791877273293622,-0.3434411495410129,-0.042951607180425184,0.0893943476309441,-0.8696384803921569,-0.5734299899453021,-0.9212850651250997,0.23151294672253997,-0.6892113676246916,-0.6301113178273736,-0.9618117249919766,0.37590721832821483,-0.6243844736937669,-0.4406728569909729,-0.558689257247138,-0.4907733881443767,undefined,1496161649166
903d185fccf839df,-0.591909555866029,-0.31511706409894863,0.8270954497427356,0.7678428642745603,-1.1182107508436032,-1.697196570455116,1.8644186097770232,-0.9021457086566139,-0.5874951459464544,-0.4160349461698945,-0.0018188030117686689,0.010700154494048687,-0.9131573083778967,-0.5947241909127224,-0.9360219086229565,0.17089475729758524,-0.7014991846797182,-0.5959704181414269,-0.9466216478874825,0.24097064031698878,-0.6375580849412613,-0.44250593852665987,-0.5320531702107192,-0.4938741852297505,undefined,1496161650662
903d185fccf839df,-0.6764564360680094,-0.34975097821610285,1.2813596558241753,1.2489661035787083,-1.1912289143617547,-1.679175248611255,1.7881095330122099,-1.3877509283261542,-0.508012686573286,-0.3123156074978271,0.006592768237071959,0.008556628509770013,-0.9088054255793226,-0.6113891957967815,-0.9307587581189725,-0.14027888265654612,-0.7592835724105006,-0.6465009743813176,-0.9578515289836428,0.08236665247602142,-0.6897969959873326,-0.4998179065149165,-0.5871664916055274,-0.49985947127864183,undefined,1496161652169
903d185fccf839df,-0.6501221488965003,-0.29691956992919327,1.3674909883119057,1.418431579587419,-1.1148781846350435,-1.6497429833675061,1.8246612106354918,-1.0301204734224911,-0.4814818554947023,-0.5868657380247951,-0.07105694644471602,0.024450987277435814,-0.9044535427807487,-0.6697167387925375,-0.9339166557835966,-0.23524742841449248,-0.8861333272104485,-0.6854549107859289,-0.9640716936694969,-0.15079660894282992,-0.7554873008079608,-0.49081198292244627,-0.5945128413729526,-0.4972416939516024,undefined,1496161653662
903d185fccf839df,-0.5073626756640487,-0.1924308125796093,1.5627225507762534,1.5779643548457107,-0.976895555981237,-1.677982680215633,1.8590012167369563,-0.808383365191015,-0.4888304455962636,-0.6892263276314206,-0.05357711364134553,0.006802583622976916,-0.9784355503565063,-0.6326833579118782,-0.9433903561397031,-0.182711663304041,-0.8999811544826141,-0.6738592917265142,-0.9593558432793089,-0.0846602871511095,-0.73533921980096,-0.5099413689870431,-0.5401890334401198,-0.5394709704277594,undefined,1496161655165
903d185fccf839df,-0.46855416529236865,-0.30455076490477134,1.5703789346515322,1.5457077132671415,-1.0195297724922847,-1.7217164753587917,1.9045152666593874,-0.5960639658390933,-0.4631869596878262,-0.5967426169553062,-0.15402067490307003,0.004630371671243296,-0.9871393159536542,-0.5910208521771179,-0.9749693401481794,-0.16048496464134537,-0.8950788454996121,-0.6465579716107908,-0.9635679236472828,-0.07462049848538735,-0.7203195314797417,-0.5148163962962651,-0.5227874106294161,-0.560630363504594,undefined,1496161656667
903d185fccf839df,-0.45469413582644036,-0.3984732522881703,1.5518762399118122,1.5543978277544268,-0.9330682040791505,-1.7564570744591856,1.8234225716328325,-1.2074529097713613,-0.45203101957754926,-0.4296402329649666,-0.07473983621897728,-0.02873777843865555,-0.9523242535650625,-0.5669491698218494,-0.9665482846173372,-0.24130927844818165,-0.9135112913331438,-0.6380718266290789,-0.9808640401405457,-0.144190677327227,-0.7300098459517403,-0.5224896747950502,-0.5345042036858613,-0.5455636790516198,undefined,1496161658184
903d185fccf839df,-0.5142926386388983,-0.3773407708117851,1.1550335151417412,1.1504598949403408,-1.0526188637440486,-1.7766096521630346,1.845810118373221,-1.166172608311538,-0.516460395044543,-0.14007766178574704,-0.058039321570975556,-0.04778296054824751,-1.0480656751336899,-0.6206475232096313,-0.9644430207346267,-0.27768026559143044,-0.952834031608906,-0.6490214864798296,-0.989868936105853,-0.1774975126735752,-0.7427088652516203,-0.5213294496688853,-0.5453812916682313,-0.5335118430379019,undefined,1496161659696
903d185fccf839df,-0.4214297821638526,-0.4078654922581125,1.0395531770498496,1.0074092745657093,-0.9447013308965613,-1.7478272429436452,1.9393023456348017,-0.49033650135359613,-0.6318410225265287,0.1833393369580389,-0.07505839388608616,-0.01918590857294114,-0.9349167223707665,-0.5771333545824558,-0.9665482846173372,-0.2594947437550845,-0.9443099468035914,-0.6450950626013031,-0.9862935667449519,-0.16701116966879015,-0.738356296224095,-0.49680405906787367,-0.5362672503054977,-0.5457557961501278,undefined,1496161661160
903d185fccf839df,-0.34935691812958475,-0.2464362216347693,1.276255569331956,1.2303043432344483,-0.9282030724427526,-1.743408677211527,1.8913977959837427,-0.7605819490577627,-0.6558831015722102,0.01882488897019767,-0.027947066694108194,-0.04515091125743775,-0.8391753008021391,-0.6280541942054534,-0.969706167557494,-0.26757719633430926,-0.977349667539867,-0.6667663949573251,-0.9987059092034749,-0.09197454420129728,-0.7411352760181558,-0.4912567223451114,-0.5844410572550134,-0.5148025505994653,undefined,1496161662667
903d185fccf839df,-0.2537220005526979,-0.2405660424255631,1.0682635365001099,0.9683972007188083,-0.8648740340344477,-1.7550595317928448,1.9524724029520235,-0.35021954658751087,-0.6514509553662325,-0.045598962873232195,-0.07417732316531088,0.07924078487529497,-0.8130640040106952,-0.6521258700853345,-0.9623377274029811,-0.26959778474748414,-0.9758555394733128,-0.6645878625925256,-0.9983770590372175,-0.08524542315086302,-0.7432936884115349,-0.5009760100606567,-0.5596137323967877,-0.49994048836934013,undefined,1496161664171
903d185fccf839df,-0.36044512803154,-0.24408819087027608,1.3349528181294303,1.1648087624227468,-0.9726269918483085,-1.733139061875549,1.9036474194698836,-0.6648228728508495,-0.5770559973372685,0.12351502675132243,-0.13284112925653085,0.08765399501730249,-0.44315396613190733,-0.6391641909861056,-0.9560219836093691,-0.19281466189935834,-0.9490969879927719,-0.651041697046574,-0.9837327338417469,0.0273480104639518,-0.7130471785905595,-0.5070178021360493,-0.57143420486345,-0.44686744558391917,undefined,1496161665667
903d185fccf839df,-0.332724724045586,-0.26345974426426655,1.2966719153008341,1.3003313876661264,-0.9577538733945433,-1.7579314842390916,1.8542175932376055,-1.0253258725201415,-0.5471961062464308,0.22126008041806097,-0.1269439570080199,0.07688708521308693,-0.6346368092691622,-0.6382383919168343,-0.890758689130719,-0.08572251500055902,-0.9458224065179388,-0.6294653573231298,-0.9369800436127264,0.04768935710043093,-0.6856793422075498,-0.4965160149181708,-0.5741816087201504,-0.45358596501414233,undefined,1496161667173
903d185fccf839df,-0.19412325620237184,-0.28694028573313735,1.248820977367801,1.227418954868896,-0.9163745145388702,-1.7713176210822814,1.8647683783515363,-0.9670125612122296,-0.5368519564519995,0.3805405559358406,-0.09659494547686494,-0.017467677517052027,-0.8348234180035651,-0.6150925086308371,-0.8854955533512024,-0.07359878666845918,-0.9417919616775395,-0.6186613552157157,-0.930528984174059,0.067183787662274,-0.6767817714943858,-0.4930806336482777,-0.5612088805035791,-0.46587588404449903,undefined,1496161668662
903d185fccf839df,-0.16778900353627255,-0.33624966248730326,1.2679613017136244,1.2199959447732385,-0.8226100993359303,-1.7960424968209234,1.9031635455840297,-0.7403301239205826,-0.5740456072399677,0.7198684792788197,-0.03973143643337829,0.022525275733677363,-0.9088054255793226,-0.665087562135338,-0.8918113707671523,-0.06551640475103823,-0.9637357809021798,-0.625418605671023,-0.9225946010130478,0.11879937523659873,-0.6717679080434868,-0.4964535752706418,-0.5646639973435893,-0.47083168702167427,undefined,1496161670164
903d185fccf839df,-0.18164913651843007,-0.3520991258925654,1.5799487156190197,1.786537224111875,-0.8674248807063748,-1.775980758575401,1.8727393215537826,-0.9223029484516733,-0.6307664694389725,0.7835556253505573,0.02523267272741913,-0.015457073360651852,-0.7477857620320856,-0.6669392379785276,-0.8865482055387006,-0.20291771702411873,-0.9705176577708681,-0.6213908531212451,-0.9198308603558536,0.062117699029671875,-0.6795394215113106,-0.4824762016590194,-0.5642568538168997,-0.4680714476667276,undefined,1496161671710
903d185fccf839df,-0.142840764168389,-0.25171935661786177,1.6577862887623174,1.7304070379744527,-0.8729791588876116,-1.7238919808514723,1.809739690069938,-1.250054501473543,-0.6001872900967103,0.8351100518615151,-0.019728092526687543,-0.053742391515574646,-0.7521376448306596,-0.6817525540686226,-0.8718113252296749,-0.04126914593988927,-0.9549429408456939,-0.6246269878885223,-0.9187883345503819,0.021619787007832944,-0.6816939632482767,-0.4708446793721676,-0.5654255182498192,-0.4535451967931279,undefined,1496161673164
903d185fccf839df,-0.07492604354499767,-0.34270682746663855,1.6163154589445587,1.5861851701391396,-0.7794204624346935,-1.7512395792182383,1.8834347516195835,-0.7976313422935282,-0.5653852830081091,0.7775102757564137,-0.11608833004965532,-0.05676712169886716,-0.6346368092691622,-0.6650875491845635,-0.8865481908142331,-0.13017582753178572,-0.8886774757640865,-0.6078256878141015,-0.9117005656583751,-0.021003111683739178,-0.6818633452387054,-0.4596332713083847,-0.5238461381754851,-0.48122489506207705,undefined,1496161674670
903d185fccf839df,-0.13452475338991396,-0.34740297667960196,1.5901571427404082,1.5093797655744374,-0.8231141016776453,-1.74469441722762,1.8666197715126829,-0.9001917563439468,-0.6076502153528043,0.4016007360293352,-0.08445460039534985,-0.06067631650223698,-0.8261196524064172,-0.6697167387925375,-0.9086534744666027,-0.1039079803074619,-0.8817166032179343,-0.6295096872533983,-0.9262469352997094,0.023406006908461497,-0.6864936071407866,-0.4761173850651685,-0.5052759002290476,-0.4756339869113658,undefined,1496161676164
903d185fccf839df,-0.036117602184137135,-0.41960582144853265,1.255839477500027,1.3342408602997744,-0.8235358132316953,-1.8151143054469365,1.8500519897887993,-1.1236983434504464,-0.5467681439303145,0.3166474080906537,0.02831987209131653,0.02373469050360783,-0.8304715352049912,-0.695640064614059,-0.9202324497487705,-0.08168122511532318,-0.9201243611784979,-0.6811421779133581,-0.9232243127807706,0.019094443004702186,-0.7057872916985847,-0.477755440918609,-0.5189088160583742,-0.5019638723080309,undefined,1496161677670
903d185fccf839df,-0.3812352584939568,-0.5035490830918604,1.1027163744595414,1.2258568699386054,-0.9844966846082785,-1.84246889065475,1.9296614777569017,-0.6836785893913592,-0.5374996452918909,0.14112497526846024,0.09815783923051957,-0.006806006095408561,-0.8217677696078431,-0.6428675297217101,-0.9097061119296334,-0.0028775703834656064,-0.8483926530404873,-0.6486225128331069,-0.9183965128660203,0.04904441892654847,-0.680853103516974,-0.48859586592463566,-0.5139530485072968,-0.48754861954111045,undefined,1496161679195
903d185fccf839df,-0.45053606142638336,-0.470089198970949,1.0191368310809714,1.1970860351893238,-0.9892075326315795,-1.8364571234361315,1.9135276204134117,-0.7904695028212357,-0.5137403580618203,0.14350897409222557,0.14602542954687417,0.022007937657772172,-0.7651932932263815,-0.6512000580652888,-0.9118113868556945,-0.0938049251827015,-0.8454338754936888,-0.6345063811104403,-0.8904512511298966,0.03413872245562378,-0.671008552835823,-0.5038156508078637,-0.4917511752844518,-0.4841553232598168,undefined,1496161680673
903d185fccf839df,-0.38539336739942354,-0.5135283672879163,0.9732000526509953,1.034189442583669,-0.9365241954173292,-1.8530063680699538,1.8784696816326985,-1.048754841483284,-0.33089652622360194,0.0022979632302437274,0.14855582137730258,-0.012457647723301614,-0.7651932932263815,-0.6604583984289131,-0.9318114103064706,-0.07359884319790225,-0.8434653767789875,-0.6568616717379674,-0.8818171866915888,0.124789372682636,-0.6716290761915906,-0.4915875761241479,-0.4527408256176608,-0.5222333126895027,undefined,1496161682163
903d185fccf839df,-0.4103415722618973,-0.5370089964407642,0.9540599824421214,1.044259831942277,-0.8983436906652253,-1.8825620857597873,1.8840711598676985,-1.0275915120440986,-0.3089407010591409,-0.22723230822103604,0.09229850338835772,-0.13228275183825802,-0.7913045900178254,-0.6382383660152853,-0.9160219072588818,-0.03722788431937497,-0.86063604962565,-0.659527841579816,-0.8778080140470186,0.1814710503434921,-0.658612649110655,-0.47712215619363485,-0.5004196979379204,-0.5175850129621613,undefined,1496161683718
903d185fccf839df,-0.2828282108044092,-0.6056897804489588,0.5820992981161968,0.5901691154411787,-0.8658511729184941,-1.8761659958796095,1.9050096791382491,-0.8924090916035065,-0.32572798840832695,-0.41659160537891216,0.12620848639567098,-0.10245568797058706,-0.04713263146167557,-0.7002692347958712,-0.9223377025881303,-0.010960008830329618,-0.8606632033599126,-0.6561460505862485,-0.8787805703429166,0.1758198198954185,-0.6564483059669244,-0.47431622746546587,-0.531175349141097,-0.5184292601937363,undefined,1496161685162
903d185fccf839df,-0.5974536435643018,-0.67613163867951,0.5565783573812001,0.5901691154411787,-1.1324873004775562,-1.8742630074984188,1.917325053472351,-0.8858854563522703,-0.36439895266968925,-0.5868977500784748,0.1210873251310403,-0.14220223862950368,-0.504080325311943,-0.7234150662787703,-0.9233903547756285,-0.015001213921400854,-0.9288129129816483,-0.6882414079418144,-0.8841751108987773,0.05039948052380697,-0.6956484880474336,-0.4621515844184921,-0.5558161242536933,-0.5080728354880489,undefined,1496161686669
903d185fccf839df,-0.6348759336053076,-0.7330721519532692,0.5572164952612022,0.5811913534955171,-1.1587261112800793,-1.829539284827373,1.9102850795516275,-0.8918796516093519,-0.38253629538834344,-0.5533003385743813,0.016929080598185403,-0.10799552045664451,-0.8696384803921569,-0.7428575978783883,-0.9591798518250582,0.023390361635022814,-0.9257038239410116,-0.7103623805446813,-0.9200337669904205,0.006729490180499986,-0.7278497062225647,-0.43302086819949,-0.5280153846659215,-0.5028955927493819,undefined,1496161688179
903d185fccf839df,-0.5683472607855418,-0.545814221412585,0.4066459437407252,0.4590870009910316,-1.1250507386680009,-1.8220624265189989,1.9356180019812126,-0.6937406368365772,-0.35308626664728027,-0.31439346671286295,0.07640692474440626,-0.09366211851808785,-0.673803754456328,-0.7298959317299338,-0.9644430170535099,-0.059454554717349076,-0.9395818722664928,-0.7241871966865512,-0.9318653738831456,-0.124188094175049,-0.7540725893353414,-0.44792121072591934,-0.5980034571114201,-0.49134125779713567,undefined,1496161689662
903d185fccf839df,-0.5683472952909515,-0.5375960114388855,0.6994932874372466,0.661066650109284,-1.0791765321970355,-1.8274243355110968,1.9031793443077256,-0.9004012707827885,-0.36949152356123083,-0.14888503880953075,0.05452932462928502,-0.06760928876502159,-0.6215811608734403,-0.7882234358733662,-0.9339166631458304,-0.09380491105034074,-0.9655432075705134,-0.7551679569957894,-0.9220208608206172,-0.2076322692407372,-0.7806431521394933,-0.44101476425425357,-0.5961549397193532,-0.4905434194783101,undefined,1496161691179
903d185fccf839df,-0.4242017742548743,-0.4753723485680376,0.5202118681926104,0.6009804619862115,-0.9546681689002052,-1.8577719937476422,1.9119339563718767,-0.840585099733884,-0.38915203501777085,-0.04910899538588249,0.042966213177456886,-0.014682136209709852,-0.7173225824420678,-0.8234051473862231,-0.969706167557494,-0.328195385759264,-1.008199605754255,-0.7611589211000322,-0.942073720199819,-0.30173216952454185,-0.8070732818115516,-0.4707459940064491,-0.6047851707963178,-0.4754153925235307,undefined,1496161692658
903d185fccf839df,-0.3091624979759182,-0.47654634933628803,0.2943560409118949,0.35638570613776194,-0.8836557171387727,-1.8846747074536971,1.9210620026229093,-0.7958761434481403,-0.44872168116233335,-0.07142166333349831,0.06317253329041991,0.01868982937265193,-0.6085255124777184,-0.7984076271093599,-0.931811395582003,-0.20089715687566542,-0.9371195898032875,-0.7220276617686173,-0.9319633291436632,-0.22028979060330828,-0.7795785890373106,-0.4727540755335021,-0.608750654816791,-0.47834755217991115,undefined,1496161694148
903d185fccf839df,-0.4228157954620683,-0.443673480213498,0.3894200330349083,0.3538269738633808,-1.0092132176485147,-1.8927245584189407,1.939278664309607,-0.6879088962996368,-0.5065680903601911,-0.42797774373927483,0.07976032972866327,-0.007412362605328125,-0.7216744652406417,-0.7891492867457355,-0.9433903487774694,-0.2635359771108773,-0.9363042791756836,-0.7241048672338987,-0.952974751839301,-0.2519181984788803,-0.7881641605757062,-0.4938160303282832,-0.6188476523790966,-0.4797073312650813,undefined,1496161695699
903d185fccf839df,-0.5378548992139758,-0.389668071158338,0.33965493559881815,0.5040808675532252,-1.0509114330523648,-1.8673242042901868,1.9474389565038008,-0.6053242613465839,-0.5448324240336123,-0.405915985738883,0.11633237444809996,-0.056682053433781715,-0.852230949197861,-0.7984076400601344,-0.9170745520841462,-0.1948352927096155,-0.924831953822043,-0.7316030717063575,-0.9324601020674987,-0.15871140761362848,-0.7721882521888749,-0.47983080247864507,-0.5983793747370567,-0.4779810274561753,undefined,1496161697168
903d185fccf839df,-0.3590590457225048,-0.3497510512860837,0.8596338740621606,0.8823805838794933,-0.967432714575812,-1.8454479877222112,2.020828966089272,-0.06919426030206474,-0.6006786177512402,-0.2639311888597431,0.14221476449316098,-0.018113671604842334,-0.9566761363636364,-0.7382284212211889,-0.9318113808575355,-0.2271649758352677,-0.9541647018488206,-0.6968985411072361,-0.9690184393385655,-0.06681348657680854,-0.749328306484716,-0.46923151989860584,-0.6247760404715407,-0.5133242517779043,undefined,1496161698659
903d185fccf839df,-0.32440871326711096,-0.5029620388657466,1.0663496311340024,1.1402468231943057,-1.0131012128715098,-1.8936352886975047,1.9413378135156643,-0.6567836796438385,-0.49734530460043014,0.27220193286782146,0.05507182382227634,0.005057353892661148,-0.7956564728163993,-0.7104534130810904,-0.9044429393389479,-0.21302071561943606,-0.9745925241562846,-0.6807432016754759,-0.9629382107295523,-0.05520305744485133,-0.7359208624807322,-0.4587776070561188,-0.5719468859248221,-0.49515490376084553,undefined,1496161700157
903d185fccf839df,0.5792727162885737,-0.12257596934717954,1.8000630809383618,1.5268731911746958,-0.48525980676795183,-1.696802929359366,1.902563948953976,0.016763478013257758,0.3785041168161634,0.3556722222301769,-0.3798017944300399,-0.07072573095941768,-0.8261196524064172,-0.45492324753676255,-0.8633902696988328,0.03753465011557598,-0.7945835224156638,-0.07726433091465792,-0.8243383861654889,0.4031316713177163,-0.3049432543717762,0.8122267421486503,2.210637771299411,0.3278616691292603,undefined,1496161701663
903d185fccf839df,0.42958324557586275,-0.16073197345306206,2.059095724555454,1.900261971642093,-0.3759228448404038,-1.7066975383500773,2.005573441759383,0.7456558306598489,0.4201389303615363,-0.19198455499980677,-0.4550911569086788,0.010434279751852234,-0.6433405748663101,-0.24290730889809564,-0.7476006493973637,-0.01904236248302902,-0.6390537237337498,0.057355051058393405,-0.7736674823960646,0.5762101991032634,-0.19057322618143505,0.7046032234401642,1.9829152631767533,0.34197159959037027,undefined,1496161703165
903d185fccf839df,0.7996490722427465,-0.3432938424647599,2.0980142569901536,1.9525582138851016,-0.18657344322797748,-1.734932575582672,1.9463502185245523,0.37403430418857975,0.39663656734458774,-0.15868955698961715,-0.5002496772198765,0.03424201364097475,-0.6128773952762924,-0.1669889360474604,-0.7539164447266122,0.02945223993343351,-0.5946596095646115,0.11105208073707638,-0.767489298110574,0.6448872687150224,-0.14509350385038122,0.6750981758594191,2.0166228475296966,0.34185379876766264,undefined,1496161704660
903d185fccf839df,1.4039516293838286,-0.5716428667159298,1.3655770829457983,1.1507970835791699,0.19982934070702793,-1.839964957886232,1.9951594172936002,0.40383873595650327,-0.29202706465585493,0.43211353833719074,0.12438595933967986,0.020789296891450468,-0.673803754456328,-0.1123647188365346,-0.6581268626003868,0.8356746482650137,0.2906718270455501,0.13633319196366517,-0.5970539823142668,1.8506471537571616,0.19704920234346274,0.3771395368537904,1.0567986598872587,2.8617637380184955,undefined,1496161706196
903d185fccf839df,1.3221767757782799,-0.5469882075668392,1.3394185126046982,1.216829993077158,0.2234452963301076,-1.841867946585447,2.0349694240271448,0.636640708443775,-0.3158170609124356,0.5387551345864392,0.11648053887374885,0.03284436585612309,-0.8130640040106952,-0.051259687977543385,-0.681284783715787,1.1286628229122422,0.21631637580885094,0.16039204460097392,-0.6071014029472723,2.1181489481712115,0.2592129481585514,0.3822316560359266,0.8177410638748708,2.7385164545347833,undefined,1496161707697
903d185fccf839df,0.661047776926581,-0.5886663455034385,1.2890157855625048,1.163258838765503,0.24448983040227554,-1.8326325132252654,1.8950742690823332,-0.29325730663283056,-0.2948045081557489,1.1381311702116301,0.18906587164720148,0.08433542321614687,-0.7477857620320856,-0.33734233657443047,-0.7465480045720994,0.6477581734270174,-0.34849804662436085,-0.30520597779983266,-0.7216391954141591,1.7643850596611401,-0.06514163056214263,-0.5568114462277014,-0.9239747288826212,2.248470163951388,undefined,1496161709159
903d185fccf839df,0.08585163706966853,-0.7113525677947855,1.1499294286495216,1.2265307309012472,-0.2470019191745028,-1.975754946996768,1.9700237421702895,-0.2883687032783239,-0.3311494494580047,0.2267655829211206,0.0716701124601852,0.04820101514124488,-0.5824142156862745,-0.3910407029129869,-0.7118111449857003,0.7103970077945899,-0.47816543815874096,-0.43733018281537445,-0.7221639558995886,1.9168142677818152,-0.11594999629715247,-0.5857598236132571,-0.6864693812016412,2.226378751830844,undefined,1496161710653
903d185fccf839df,-0.20243940500248583,-0.7342462111775043,1.305603812525269,1.2887445919878677,-0.773012474644109,-1.979076442691794,1.937787585124873,-0.7720294519296899,-0.28604920734100314,-0.05431249747485525,-0.002903831661736439,0.01201852991970878,-0.8043602384135473,-0.42992575316144843,-0.7560217122904396,0.7346443513999035,-0.41464390112499266,-0.49680918974485316,-0.7317565833362453,1.9242979118513792,-0.14527938621382255,-0.5607402923158672,-0.5205236674788809,2.1660291578430897,undefined,1496161712157
903d185fccf839df,-0.15531495286315025,-0.7436384511474465,1.2296806530219777,1.1723178956671527,-0.8407026446957084,-1.9579479131853021,1.9046757014310183,-0.9830579729624671,-0.3510433760862411,0.01586532371683546,0.014391394735340372,-0.0228024207550616,-0.8000083556149733,-0.4567749363307267,-0.736021674115196,0.6720054322381662,-0.5352570117557032,-0.5409244756950088,-0.7368642547012159,1.6649880851913768,-0.22429904579429885,-0.5572471082995059,-0.6602826334596404,2.2009664257358157,undefined,1496161713685
903d185fccf839df,-0.25372196604728814,-0.65499909874714,1.3151743559036047,1.2421396569864425,-0.8735448744393041,-1.8928014223984695,1.8912452757630251,-1.0002980806042914,-0.38523414688266316,0.07672919327819579,-0.025994231823396437,0.04423904666732719,-0.8696384803921569,-0.5030666510996229,-0.8318112636036552,0.5103569459481014,-0.7023169864996428,-0.5685804407840095,-0.9073275578083174,0.395540231923904,-0.5771706812603468,-0.4728473899469203,-0.44244593797807225,-0.5322291862910368,undefined,1496161715178
903d185fccf839df,-0.2953023649937607,-0.5293778014651861,1.0657117473909496,1.1129325700506745,-0.8961528339731921,-1.8143433279190895,1.840563643702899,-1.249263185202195,-0.3214813003565703,0.14545402290379247,0.03593557723428394,0.010592771409312262,-0.8391753008021391,-0.5502841519870159,-0.8476007592890101,0.33860513601842157,-0.8071403327103527,-0.6010621093759695,-0.8941945432728441,0.17648194730120279,-0.6298540893644113,-0.4852195406927011,-0.4899999320133118,-0.5053459922443165,undefined,1496161716665
903d185fccf839df,-0.43667592844422587,-0.5986455420155175,0.8787744525449335,0.8803386581464259,-1.0391548822296275,-1.778102694780293,1.8938645469187942,-0.8899754798250396,-0.31773272281183645,-0.011178283871306845,0.018097218711549817,0.08518722254223232,-0.7303782308377896,-0.5863916625691439,-0.852863953966397,0.5346041482298073,-0.7717370850689419,-0.6428595359137801,-0.8911299403718931,0.3232599315299492,-0.6149781387676081,-0.4595777676640682,-0.5569712900324426,-0.49616861591438577,undefined,1496161718164
903d185fccf839df,-0.38955144179948054,-0.5235076222559799,0.8321995362349552,0.8323716626440036,-1.0383320244300196,-1.7628275449001616,1.8944720299476137,-0.8554224157704298,-0.34129228876939677,-0.09208326139880019,0.05006375136835026,0.013610988230062987,-0.7390819964349377,-0.6428675426724847,-0.8918113339559833,0.2840487118329914,-0.860214531185193,-0.6723837194208313,-0.9045358298953825,0.21020454589797677,-0.6521126963167937,-0.4523912466776958,-0.6096903871807011,-0.5269113592739947,undefined,1496161719783
903d185fccf839df,-0.4907304470746402,-0.4918087831294326,1.0510373716573436,1.0305333885881414,-1.1735477995262036,-1.7725474602718057,1.8665303430058529,-1.0572461311654067,-0.3269713402450291,-0.3797945472716927,0.04943508229343346,-0.005134929631241433,-0.6868594028520499,-0.6724942266557727,-0.948653514005921,0.1062352779873947,-0.9340982215648059,-0.6832890471487938,-0.9280731016478221,0.02600834418888394,-0.7014068930073665,-0.453447089605555,-0.6427992789961723,-0.528828675799506,undefined,1496161721193
903d185fccf839df,-0.5461711170249092,-0.4225408672111472,1.240526963886419,1.1448022517804193,-1.1541078332477908,-1.8339997786023159,1.9172224974223995,-0.7833547642415948,-0.44349064695451407,-0.21245278970318554,0.040318711757938865,-0.004966091531049481,-0.6607481060606061,-0.6530517209577038,-0.9939167334981586,0.05976130638118932,-0.9658571847885759,-0.687335798230624,-0.9353917663080743,-0.00926949377660388,-0.7135104517686354,-0.42749162563348586,-0.6436077450453817,-0.5088749383941508,undefined,1496161722668
903d185fccf839df,-0.4505360959317931,-0.46480606398785645,1.659700194128425,1.614233799227751,-1.0067343670808737,-1.8514970234039114,1.926403148122879,-0.7178745252280824,-0.4053980354176098,-0.036949953558826715,0.08545856217619817,-0.060539555927801636,-0.8870460115864528,-0.6123150272429891,-0.9981272318146445,0.0011636629723271671,-0.967611180788632,-0.6729726813778757,-0.9250364866816058,0.05883782948995979,-0.6968849031450204,-0.42981461451468517,-0.6102618395620818,-0.5304658403809506,undefined,1496161724164
903d185fccf839df,-0.2440199074651876,-0.5857312266708431,1.7190355808059017,1.7268944770801695,-0.7841313118583592,-1.9100517668934287,1.869762388223022,-1.1365648121391845,-0.3643762000810147,0.2514816590960215,0.12234988406623146,-0.032717524048155325,-0.9436204879679144,-0.6308317014948505,-0.9833904030412552,0.011266718097087564,-0.9107467318866594,-0.6722000619059606,-0.9165353614542089,0.1536306600073196,-0.6773462064446054,-0.4274289443709609,-0.6211155097947554,-0.5271890869641794,undefined,1496161725676
903d185fccf839df,-0.32025063886705396,-0.5557934909946447,1.5735688616406946,1.5746605024666278,-0.8641848913906249,-1.919315151742606,1.9022588984301447,-0.9622751387098721,-0.3893995217261845,0.24509733238497183,0.08039288327596493,0.06464346741685784,-0.5650066844919787,-0.6234250240236412,-1.0033904117675638,-0.09380486865325843,-0.9496450852426312,-0.6664244188058356,-0.9278142204895395,-0.013596457337417461,-0.7148212729058848,-0.41503887954086127,-0.6026453537856463,-0.5304370381820454,undefined,1496161727159
903d185fccf839df,-0.3950954604869338,-0.4929827838976831,1.419170245251053,1.4093331003027372,-0.8729482989617577,-1.8361263732262971,1.9062430512013286,-0.8084931844857769,-0.49475018917969005,0.20956752681812021,0.10348806844629538,-0.060705956721965014,-0.5432472704991087,-0.6549033708993444,-0.9970746164383153,-0.21302077214887913,-0.9683686978887717,-0.6413522940008342,-0.9436759902637188,-0.20533789996726573,-0.7508877374839615,-0.43313794819448637,-0.5505853358086433,-0.5267069394268574,undefined,1496161728688
903d185fccf839df,-0.4034115057708186,-0.3110079298841066,1.338780882998595,1.2779461145109872,-0.8268169498107644,-1.7725358135212124,1.9423897317585568,-0.4530943865534026,-0.4703056858585249,0.026400338510819202,-0.029600694088005038,-0.086528559282941,-0.34741254456327986,-0.6493483822220992,-0.9791798752758342,-0.19685589525515113,-0.9566615742260791,-0.6193389815069231,-0.939736786064354,-0.25852413125224166,-0.7515102279718793,-0.4315404481422832,-0.5309461134743089,-0.511071309916856,undefined,1496161730167
903d185fccf839df,-0.4491500481281676,-0.31159500333821266,1.4478803505643638,1.4479354936139501,-0.9280590600649271,-1.6957524423221606,1.855650838744097,-0.9539048262418472,-0.36719935123202146,-0.005892596227104817,0.0529161056699733,0.0365418930824146,-0.34741254456327986,-0.6530517080069292,-0.9602324598391536,-0.2918244834101798,-0.9967249652936612,-0.639940046829936,-0.948671713694563,-0.3770459646945505,-0.7788379290271916,-0.45490798940803256,-0.5705588514009663,-0.5020221745077487,undefined,1496161731716
903d185fccf839df,-0.46578220770675666,-0.3532730682048312,1.5135960994940643,1.529627304878601,-0.9495767433427247,-1.695468274950029,1.7929063008150312,-1.3807338897295593,-0.32730698420018167,0.053750501596228566,0.05961881473159586,-0.04733717287976067,-0.5780623328877006,-0.7234150662787703,-0.9886535756319408,-0.4494318635356988,-0.9962885635309437,-0.6674820193756769,-0.9773446444714402,-0.459150473323623,-0.8147736751595018,-0.45245522269899,-0.5949070275996842,-0.4958436904394193,undefined,1496161733162
903d185fccf839df,-0.4768703485978924,-0.38790695309399303,1.4459666993352056,1.410824684277667,-0.9587618744930396,-1.7073520539174847,1.8775150540714594,-0.8778839597048939,-0.31171939575174534,0.12734570508289733,0.10815684410363662,0.10083764602954254,-0.5693585672905526,-0.6956400581386718,-0.9991798840021426,-0.4898440275052973,-1.0176878344853717,-0.6709588052773917,-0.9928705676599775,-0.5076247811770855,-0.8281369834868878,-0.4465613927174729,-0.5997801297779506,-0.5276066966119555,undefined,1496161734662
903d185fccf839df,-0.5226088219444219,-0.4319332533210511,1.1518433340156293,1.1739127520990336,-1.1137776162662436,-1.7095182469242107,1.8713797168294035,-0.9506474892592688,-0.41530037257521873,-0.058691213597190324,0.09077947078528416,0.05158216696419247,-0.7086188168449198,-0.7345251083871334,-1.0097062365457474,-0.4514525084783167,-1.016788976341082,-0.6747902356319373,-1.0041634207391386,-0.5403156817076774,-0.8393961528807296,-0.4492603713052296,-0.6111847112596368,-0.526367208829903,undefined,1496161736176
903d185fccf839df,-0.5198367953479904,-0.38086283157252104,0.9476793660529481,1.0477113993137244,-1.0554165742747557,-1.6912663285199876,1.8903090557785103,-0.7880624419289783,-0.46973721038622124,-0.10464592249168031,0.1577288635937534,0.028989344023162784,-0.8696384803921569,-0.7373025832995941,-1.0086536064449505,-0.4514525226106775,-1.035397802836678,-0.7174109469628152,-1.0192905259218026,-0.5252406047196722,-0.8613144487883783,-0.44422277635652735,-0.6239131085362667,-0.5085950560992738,undefined,1496161737682
903d185fccf839df,-0.40479758807985383,-0.3978862080620566,0.8519779984607807,0.9137696699992002,-0.9928795351925835,-1.703809281731259,1.8592510485897638,-0.9735651479757731,-0.4924056476098398,-0.11443526334741592,0.10014797023496017,-0.07780370404601435,-0.7826008244206774,-0.7845201230393106,-1.0276010071571635,-0.4514524943459559,-1.011297914157146,-0.7572261632923019,-1.028274430781603,-0.5044065077750627,-0.8808175246056438,-0.4392765843471677,-0.626135357991706,-0.5040148360311009,undefined,1496161739196
903d185fccf839df,-0.33688283295105276,-0.3579691589618099,0.8360278552410694,0.908773767852382,-0.9046179683953518,-1.7098513274967684,1.8838686613346716,-0.789451212107295,-0.4799322415215276,0.06437177182614322,0.05909082670772648,-0.05435144132837849,-0.9653799019607844,-0.7771134714696504,-1.0265483733752498,-0.41912275469086063,-1.0111156541153552,-0.7594996897679689,-1.02618938093849,-0.452559943397883,-0.8735397416009173,-0.4368161035955739,-0.6141798337820833,-0.5049572768689748,undefined,1496161740667
903d185fccf839df,-0.36183114132975575,-0.35033802244221657,0.8079551253969123,0.9074645022961779,-0.8547631964723174,-1.7371965959887208,1.899145203796535,-0.7172826707198328,-0.47022350115011213,0.08840254180771438,0.0031500051247768113,0.15386766205027952,-0.9131573083778967,-0.7734101197832712,-1.0107588666465441,-0.37062820880384123,-1.0252757083406283,-0.7712283014695722,-1.0290510764157732,-0.4252892981414491,-0.8740672348721025,-0.4372156205835635,-0.6074855451859785,-0.5112615626659367,undefined,1496161742191
903d185fccf839df,-0.34797093933677875,-0.36853554583996423,0.5961355359698005,0.7011449507337142,-0.910089956651148,-1.7778767587560123,1.9176774492315232,-0.6700748159131956,-0.46398427174109075,0.1832209608248937,-0.009409227454183492,0.14591455649789767,0.38805564839572193,-0.7734101327340458,-1.031811520198117,-0.3888136317136618,-1.0370416711078445,-0.7608169419974997,-1.0335220385965553,-0.41249318931593176,-0.8689760569853859,-0.4469100627535478,-0.598046734668017,-0.5169310892472391,undefined,1496161743721
903d185fccf839df,-0.32856678766716796,-0.44895660058259435,0.7869008956849813,0.8591683007451957,-0.8781734411314027,-1.8220857191888826,1.9060379296737302,-0.8074896270603148,-0.44079949018410436,0.17728223139519111,0.010175183886587204,0.2003875162271053,0.2531472816399287,-0.7678551311060261,-1.0328641687044984,-0.3665869895804092,-1.0420881087449052,-0.7621848581972365,-1.0234396341171466,-0.4130321339507278,-0.8672935498803778,-0.4446865544521957,-0.6047110533408204,-0.5072494928433819,undefined,1496161745165
903d185fccf839df,-0.4907304470746402,-0.5645987305804617,0.620379692670894,0.767715692997721,-0.9879115414964753,-1.8349501077592363,1.9338902080115752,-0.6916906106930257,-0.4481147784330439,0.12704508609761375,0.046615855810999564,0.11010088709553803,-1.030658143939394,-0.7835942851177158,-1.0412852279164573,-0.3665869895804092,-1.0248128492935076,-0.7867883446994941,-1.0262103709429258,-0.3649119920926302,-0.8727238762276132,-0.44805480643779155,-0.5986743985397484,-0.49820282029533336,undefined,1496161746663
903d185fccf839df,-0.46994028210681366,-0.5604896255936119,0.7817965550558124,0.8557877959342125,-0.9219082237706667,-1.8237278325561432,1.909088503786603,-0.8254751105634301,-0.37229786989853036,0.25945359213904945,0.09750349310135988,-0.02279758590975458,-0.9653799019607844,-0.7974818021385396,-1.0076009542574524,-0.41912275469086063,-1.0337456302514751,-0.797674675013811,-1.0102926263942311,-0.3354393670372569,-0.8677676041742998,-0.4552913450186147,-0.6067871009483222,-0.5020269728365049,undefined,1496161748154
903d185fccf839df,-0.5129067633623214,-0.5305518022334366,0.9700101256618328,1.0234649839526508,-0.8738020203081626,-1.8186826998258583,1.8822066234506039,-0.9868980074033054,-0.36049692738358646,0.20078266410763193,0.12690520912420516,-0.04019267714334135,-1.02630626114082,-0.7771134520434886,-1.0076009689819199,-0.42518457645982827,-1.0440341746396393,-0.7875672984438864,-1.0089492388282504,-0.3133425981583934,-0.8580863440536067,-0.4650112282119081,-0.6090294839367957,-0.5157729627976632,undefined,1496161749660
903d185fccf839df,-0.11512046369866423,-0.43721632984815895,0.9266251363410171,0.9643268018331548,-0.750322224802681,-1.85930696162569,1.9199759068864457,-0.7465868375277992,-0.3579048160406954,0.3994416690061759,0.05041578244793805,-0.0572934003910444,-0.9349167223707665,-0.7845201295146979,-1.0318115128358833,-0.40699909702056464,-1.0295387646760936,-0.8003218462460939,-1.0225720298559404,-0.2998227651566743,-0.8640769989229445,-0.4712143985674159,-0.6238228677784725,-0.5303588333437631,undefined,1496161751178
903d185fccf839df,-0.026415543602036608,-0.44778262904233623,1.0599695230187278,1.183646760987221,-0.5609728318565123,-1.8309275098355577,1.9572113250301015,-0.4282707633408461,-0.3367350357395191,0.6228359413435607,0.12115726925222847,0.02118162366764343,-0.9610280191622104,-0.7632259350226648,-1.016022031874996,-0.3665869895804092,-1.0041078439543536,-0.8049385623751594,-1.008333519783073,-0.20911052283066558,-0.8449809935996789,-0.47076370999834527,-0.61259847935707,-0.5231052608951918,undefined,1496161752673
903d185fccf839df,-0.21075541578096088,-0.4225409548951242,0.9559741419451784,1.1247664205543206,-0.5098323425242938,-1.841455671669278,1.9044442635371517,-0.7729733232632313,-0.3684918608499554,0.5340557498566255,0.11404501420260228,-0.043412835666695244,-0.9131573083778967,-0.761374278605637,-0.9960220084242198,-0.3160717987507718,-1.0120543008793765,-0.8009234761612061,-1.0114471006109602,-0.15441524417466196,-0.833905137018589,-0.47392652868275803,-0.629546973542866,-0.5278019955332429,undefined,1496161754158
903d185fccf839df,-0.020871455903763863,-0.4718502439653131,1.3910977695438453,1.4685601169689182,-0.2772521598901302,-1.8263086292887876,1.9340716597367182,-0.4747610658773122,-0.47760464342083864,0.8407572365295619,0.08825531983484057,-0.008274284111228079,-0.7173225824420678,-0.6845300548826324,-0.9907588431957681,-0.2797008681369661,-0.9767997249794731,-0.7667635781093073,-1.0148405533172618,-0.151951493899467,-0.8143726717090812,-0.4705198296080973,-0.6185748946732228,-0.5168665406381587,undefined,1496161755668
903d185fccf839df,-0.02087152491458333,-0.4231278822092686,1.540392553578217,1.5249418959880225,-0.2617310400042854,-1.8146484575440183,1.9232578958477056,-0.5286081092958351,-0.5004178120803415,1.079886409522744,0.05861497176424983,-0.044830366219229784,-0.8087121212121212,-0.6845300613580196,-0.9939167334981586,-0.12815523911861088,-0.9466232158783084,-0.7639200857780517,-1.0211166921720423,-0.1346128427653204,-0.8086804584264293,-0.4671383260850774,-0.6191878748100625,-0.5174072262242225,undefined,1496161757204
903d185fccf839df,-0.00008132544134704673,-0.4759594074081475,1.3292105937572085,1.4375481873280684,-0.25797676173954515,-1.818128341063252,1.9505158406978105,-0.3621953450844611,-0.5072759435243114,1.1483192414933396,0.016749109504679255,0.035833182618607996,-0.9523242535650625,-0.6947142396432389,-0.9665482698928697,-0.06551643301575977,-0.9441339836909614,-0.7724442265781182,-0.9937451685546654,-0.10570995867021885,-0.7985149151735802,-0.47201546378484754,-0.6061812965761214,-0.518320562565571,undefined,1496161758675
903d185fccf839df,-0.07353996123596244,-0.5182244872728874,1.4950934047543443,1.4865483983331296,-0.3773114185838063,-1.838222687944761,1.9325831873099684,-0.5702794334630732,-0.3688488367297796,1.4092347170668327,0.005578731157594436,0.00362583351257255,-0.9566761363636364,-0.6891592315398318,-0.9297061206559418,-0.12411403402753962,-0.9609966096973817,-0.7549526370325647,-0.9712714124897921,-0.0976565708402232,-0.7834680179941641,-0.45975287662568315,-0.5771280229416538,-0.5331609716395639,undefined,1496161760167
903d185fccf839df,0.09278163454992783,-0.5323128179998083,1.4204462668741078,1.4574588033757034,-0.4352198986278734,-1.8539403939277375,1.8842604994319503,-0.9030435985960557,-0.3402564595666907,1.2261640406216052,0.04280339132125024,0.03928795033811243,-0.9566761363636364,-0.6984175654280689,-0.929706113293708,-0.08370187005794111,-0.9760220805808446,-0.7232752521159969,-0.9452362794440075,-0.04591779261945944,-0.7499659292550682,-0.44758561231285293,-0.5894864858997763,-0.5573475396612567,undefined,1496161761670
903d185fccf839df,0.13159014492160784,-0.5158763980524095,1.5639985723993084,1.7141996352394215,-0.4188450700949316,-1.8872205648600935,1.9782418774704218,-0.3104291036784832,-0.3284199733567976,0.9604939046083224,0.09980456161430575,-0.04239108685018929,-0.9175091911764707,-0.7123050630227309,-0.9244429554274901,-0.027124885724057638,-0.9168699580366894,-0.7453772251016249,-0.9105181045896313,-0.033768418394987856,-0.7449673394643123,-0.44721786652683115,-0.5593905716737279,-0.5749263390408538,undefined,1496161763166
903d185fccf839df,0.0054627967623354316,-0.5593155517553807,1.2354228773941993,1.42753941515302,-0.5248906048530977,-1.890164723619257,1.9356363954163924,-0.630737891806546,-0.3164291034863314,0.4961106805966688,0.20520860398208646,-0.016375019257619514,-0.8130640040106952,-0.6947142590694007,-0.910758749392664,-0.15846437622817053,-0.9177106076994425,-0.71870286576771,-0.8820970590287829,-0.04504007892696615,-0.7285353842840655,-0.43306526950922847,-0.5827538741753334,-0.579243570812365,undefined,1496161764663
903d185fccf839df,-0.2786702054151717,-0.6015807046901014,1.2092645611900488,1.3632672078422734,-0.5854836399311074,-1.9224479797133436,1.8947218775132477,-0.9451882622427359,-0.29926961649854184,0.024601367800100426,0.29719046337850286,0.015218530204501996,-0.9088054255793226,-0.666939225027753,-0.9002324115735268,-0.17867045821296978,-0.8863669513611979,-0.6594138481672996,-0.877087342844808,-0.03994319439968246,-0.6951994659802125,-0.44362029174284173,-0.6155612721643695,-0.5913923581915278,undefined,1496161766161
903d185fccf839df,-0.2135275803990313,-0.6186041396356217,1.127599177314536,1.161298191465699,-0.4855683768708953,-1.9284830390980807,1.9332301132006555,-0.6708990672695213,-0.3165493957988522,0.08266303396871438,0.23502906843318683,-0.006079900072989094,-0.6259330436720143,-0.6549033708993444,-0.8560218221820861,-0.1806910183614231,-0.8847392771435216,-0.657152987717404,-0.8639193441509614,-0.10400072884285223,-0.7022797954390644,-0.44695876924565225,-0.6150185692044141,-0.5633908293067027,undefined,1496161767671
903d185fccf839df,-0.4380618727316221,-0.5569675063768913,0.9732000526509953,1.023385136723064,-0.5472311329871318,-1.9120036716199547,1.954013464115394,-0.5384674508542242,-0.31339291173612266,-0.17022250815721165,0.217041489491178,-0.11812415991712277,-0.6041736296791445,-0.6734200645773676,-0.8412849713219955,-0.3463808651985276,-0.9065936251525751,-0.6825987553245783,-0.8555161744287644,-0.26663910933689744,-0.7388574032310492,-0.4461108813789622,-0.6453227765791416,-0.5261958966105916,undefined,1496161769209
903d185fccf839df,-0.4865724761908124,-0.6456068441632017,0.7486202469933346,0.8206474503926143,-0.6240550063420199,-1.9223361764080198,1.9627943878319645,-0.5269228922184868,-0.30360168259541104,-0.07395300400376174,0.1745678573895448,0.008865353984242026,-0.7086188168449198,-0.6817525670193971,-0.8349691686305132,-0.43730821999776354,-0.9056631764423821,-0.6737769641563279,-0.865087811230928,-0.3259231259609646,-0.7490582691439179,-0.45361222211409535,-0.6103158689272453,-0.5314022988093084,undefined,1496161770665
903d185fccf839df,-0.34797093933677875,-0.6808277586644811,0.7205472630122282,0.7570103834327773,-0.7420319524815431,-1.936793763648409,1.950489534806761,-0.661482346245602,-0.30007399904310855,-0.14079916697245784,0.14772312033941642,-0.0355834334441309,-0.865286597593583,-0.6965659219618157,-0.8581270750214459,-0.47367916474393007,-0.9354070089981479,-0.6859552160383359,-0.9051305598047469,-0.40499414340841977,-0.7841013427888447,-0.4393328508589591,-0.6368450756299308,-0.5303481937517233,undefined,1496161772164
903d185fccf839df,-0.33688286745646245,-0.7489215569025467,0.9546978661851742,1.025485869995323,-0.9096476735809894,-1.962545832216349,1.8939881586805647,-1.1078195226540546,-0.2738414123817508,-0.4128758222930772,0.1676503269765277,-0.00971884757386988,-0.8826941287878788,-0.6974917469326359,-0.8486534114765084,-0.41104035864107896,-0.9210413210389861,-0.6817881395747653,-0.9010654126181097,-0.432695946752827,-0.7814193012353207,-0.4541545891583096,-0.6526693764502977,-0.5089810410982512,undefined,1496161773693
903d185fccf839df,-0.3257947265653267,-0.7553787218818819,0.9546978661851742,1.0167936796757318,-0.9194705141106899,-1.969936508051657,1.92774698816802,-0.8790699965657331,-0.2833130269489279,-0.49339271515991884,0.1837312723267769,-0.030093304274708948,-0.7521376448306596,-0.6956400840402209,-0.9265482377157852,-0.46963793138813725,-0.9554466232954266,-0.6861578702470857,-0.9345171661290825,-0.49288847076971265,-0.8075547642303531,-0.4533464476963967,-0.6446179037583624,-0.4687419648752488,undefined,1496161775169
903d185fccf839df,-0.11373441589503874,-0.832277803547753,1.0274313528362522,1.0815715729437039,-0.6805337705747181,-1.985381693572108,1.9689691967427372,-0.5550883949412403,-0.22496860902079452,-0.15814837490717412,0.15872899831426956,-0.0854863398050261,-0.9088054255793226,-0.7095275881102702,-0.988653568269707,-0.4777203557026405,-0.9914228530102058,-0.7259034247442511,-0.9565011460259434,-0.4871294515131483,-0.8338765970391817,-0.44066166117245503,-0.6442636233624921,-0.5135762919451653,undefined,1496161776663
903d185fccf839df,-0.10403239181834795,-0.7571397961042384,0.7671224334591559,0.6841251124520296,-0.4771238233172803,-1.9593338104777962,1.9628969758313308,-0.5195681608016215,-0.25522174826259897,-0.09091898409916781,0.15173148394790556,0.01759131683397475,-0.7086188168449198,-0.7280442558867443,-1.0118115114718087,-0.4433700558990919,-0.9917324415829473,-0.7168536482680146,-0.9528837946497748,-0.47667390756668754,-0.8282780094059488,-0.4483194391612805,-0.6480357928592809,-0.5231743637390059,undefined,1496161778166
903d185fccf839df,-0.21629953798464335,-0.7583138261004813,0.492777530365405,0.5564376467481014,-0.283084147704315,-1.9509811578588208,1.9599699893872267,-0.5022035333107369,-0.25856704626100885,0.17524274939739395,0.09166704620022832,-0.08222066478234887,-0.6476924576648841,-0.7437834357999831,-1.0170746693380264,-0.3261748256108107,-0.9902414767548228,-0.7303238196137807,-0.9590689754647574,-0.43103291460424115,-0.8290192114964455,-0.4474885271494938,-0.6581172375650184,-0.49541257013557527,undefined,1496161779671
903d185fccf839df,0.16346845078057012,-0.5980585562453884,0.43408053570488003,0.465745547521512,-0.3895411150492452,-1.8997425535026966,1.916512444725845,-0.725876855797553,-0.42195916512972154,0.07732092903256378,0.09194771621670636,0.013459909394594356,-0.9436204879679144,-0.7437834357999831,-0.9770746297987082,-0.2918244834101798,-0.9905257089090068,-0.7419257721539294,-0.9530167333468526,-0.35436405260013554,-0.8214686760981805,-0.44755835589734305,-0.6459962909411601,-0.4930656895561696,undefined,1496161781211
903d185fccf839df,-0.0666099982611129,-0.5869053005090744,0.4021797409915584,0.3525099763625389,-0.6750309210327139,-1.8810061544719128,1.892752140577433,-0.934394686137709,-0.4103307487821377,-0.14943149684068743,0.0813082332722474,0.03107655294357145,-0.8043602384135473,-0.7252667356465726,-0.9612851120266518,-0.3524426728351345,-0.9686536794402104,-0.7406845148166673,-0.9337894968497635,-0.28002035763544425,-0.8073345771910028,-0.429274739368877,-0.6121052544782507,-0.5022230776013815,undefined,1496161782665
903d185fccf839df,-0.30639043687407697,-0.5786870613073827,0.5265919763078849,0.5475144083233726,-0.9650978631005361,-1.8855644765993453,1.901075476396286,-0.9509272225704757,-0.38973724074068283,-0.30917313676826497,0.06030372780158103,0.016134717973062936,-0.8130640040106952,-0.7854459739116799,-0.9149692845203188,-0.24939173102740642,-0.9808093965330781,-0.7646483740739485,-0.9178787488060924,-0.15660181741038234,-0.7957728659838761,-0.4351607358168293,-0.6065471136592961,-0.47660985637099895,undefined,1496161784161
903d185fccf839df,-0.45746616242287186,-0.6403237091801092,0.8073172416538595,0.7686702387341656,-1.0408417310264992,-1.9302672350274488,1.9412720658102685,-0.7499522727463948,-0.3834363273898987,-0.36477068791261835,0.08658710405720393,0.0535759387004041,-0.7913045900178254,-0.8002593029525494,-0.847600766651244,-0.2857626051117691,-0.961993661575875,-0.7556112633355767,-0.880019004614091,-0.13259564082499847,-0.7753625999185999,-0.4269341039770762,-0.6128382938277137,-0.4660079331775177,undefined,1496161785676
903d185fccf839df,-0.14977083065946778,-0.564011686354348,0.8928109445354866,0.9088925720661958,-0.9246853587582164,-1.8799882776997765,1.9664998013389168,-0.48284810646845566,-0.282456917863254,-0.06559962756475901,-0.02910360573161693,-0.053551891634615975,-0.7347301136363636,-0.8030368167173338,-0.8802324102094522,-0.13017582753178572,-0.9185072924783622,-0.7481447224907817,-0.8808236376141092,0.17420298702762818,-0.7140150886955156,-0.424062555134102,-0.5977472989630574,-0.5009242839982784,undefined,1496161787158
903d185fccf839df,-0.08601418443613343,-0.5440531618042246,0.965543922912666,0.918461482130187,-0.7937484384953027,-1.8859651045587937,1.9609824673870568,-0.5055086212915709,-0.28189976139562073,-0.1421534693957791,0.0163915950612187,-0.045025849583536996,-0.6346368092691622,-0.791000962588925,-0.8812850108613138,-0.039248500997271354,-0.8553104495918037,-0.7819119782340023,-0.8836783367148272,0.13524492091011106,-0.7318861016452881,-0.4114938653622657,-0.5779704792969531,-0.5104923591229645,undefined,1496161788665
903d185fccf839df,-0.25233602175989184,-0.5622506413599838,0.6439862197658842,0.7012696184412042,-0.6243121522308837,-1.8469503481842726,1.9402411839000406,-0.5835964280830482,-0.32932946429604076,0.003877601138840492,0.0669443907344083,-0.07816456391951497,-0.852230949197861,-0.8095176238900119,-0.9023376791373543,-0.0655163764863167,-0.8646720432661443,-0.7985359561456794,-0.886931855075416,0.06733777398799808,-0.7519599224894867,-0.42217553279872927,-0.5914531539704452,-0.5164702630595167,undefined,1496161790157
903d185fccf839df,-0.4255877530476804,-0.5880793305053171,0.6337780467814451,0.7275438585463445,-0.6273670024328353,-1.8665811753284087,1.8638531983660132,-1.1534713381443014,-0.31548723544210666,-0.03837366334218237,0.14369736916178505,-0.18903380491313412,-0.2342635918003565,-0.8197018021752311,-0.9433903855886383,-0.11401097890277923,-0.9197434590247738,-0.8146026338455096,-0.9170601225329933,0.007083655866231855,-0.7766505757514068,-0.42824498693427954,-0.6045491445560497,-0.509255285567667,undefined,1496161791679
903d185fccf839df,-0.542012939108623,-0.5698818071075695,0.6522802332472663,0.7422265569619424,-0.5689956699930712,-1.8531507826605627,1.9257588347515462,-0.7179113351016649,-0.3242727857990245,-0.05159881216179588,0.1300005238865555,-0.20228527982082656,0.2749066956327986,-0.7919267875597453,-0.9697061970064291,-0.3100098921876396,-0.980438347633076,-0.8137603524969798,-0.9567180466370532,-0.1017679552628138,-0.808352991000671,-0.42346390577886656,-0.610088238255595,-0.5196500436983509,undefined,1496161793169
903d185fccf839df,-0.40063951367979683,-0.552858430618034,0.6382442495306119,0.6700268484375254,-0.5932287687508004,-1.8063959645802856,1.8850126148423787,-0.9234936311396016,-0.2969286800771372,0.2269514455415586,0.08419682124065453,-0.2055522274985923,-0.147225935828877,-0.816924294885834,-0.9802325274633324,-0.3867930715652085,-1.037292963215327,-0.8360839804380762,-0.9734963997004459,-0.23936846359582026,-0.8525994565456195,-0.4284433302408459,-0.6266411470466202,-0.49123208383901906,undefined,1496161794694
903d185fccf839df,-0.007011391932425808,-0.477720393946527,0.589117289974524,0.5827003036157108,-0.5470665618905309,-1.7728782132854206,1.8921525495778089,-0.7808406961542421,-0.3526075876622352,0.22324171250829086,0.05564838540337655,-0.14430576310863508,-0.7695451760249554,-0.8261826417248456,-1.0033904191297975,-0.4736791506115693,-1.0630572708685795,-0.8329111757719728,-0.9857618092406658,-0.4223943873819898,-0.8896183939216035,-0.4291245168008599,-0.6677016355316079,-0.5093711780850491,undefined,1496161796164
903d185fccf839df,0.03179698041761526,-0.4800684831670049,0.8162491388782944,0.8072143921618086,-0.5284803094125576,-1.7493039843343625,1.8435589950856008,-1.0553941735616135,-0.30817482597207957,0.34175083464341166,0.02980157656386044,0.0027799643808713234,-0.8348234180035651,-0.8104434812377685,-1.0454957556818785,-0.4211433572363963,-1.0242517710742098,-0.8226074756447962,-0.9989507973150079,-0.35470282122703894,-0.8804299613985342,-0.42892784295841596,-0.6506212143233892,-0.4617754093588833,undefined,1496161797665
903d185fccf839df,-0.045819833293286344,-0.3626653081747734,0.7071491630386265,0.7455671650017069,-0.446904446022417,-1.6893936214591156,1.8774203800992462,-0.725119230329507,-0.3375958226164032,0.30998047295222053,0.036995196780474554,0.012434525278446771,-0.8261196524064172,-0.8039626352127668,-1.0233904425805735,-0.39083424839155817,-0.9342287827009519,-0.8027790291348352,-0.9924927406005672,-0.2976207830422177,-0.8614373817067126,-0.4265447900774638,-0.6072400798918209,-0.4503075787940762,undefined,1496161799169
903d185fccf839df,-0.20105339170427008,-0.5968845262491457,0.4946919440054115,0.53547130877879,-0.5666093877280027,-1.6519674058461014,1.851053937052035,-0.9069459937545822,-0.37288284472996464,-0.03411874644924105,0.05298349444496738,-0.026449672127657625,-0.7695451760249554,-0.8011851408741443,-1.0518115362866594,-0.3261747690813676,-0.922431005426478,-0.8350833743736684,-1.0208718054613162,-0.1471163760924545,-0.8498147387771433,-0.4382268365043263,-0.6362738953085986,-0.4684190598655077,undefined,1496161800670
903d185fccf839df,-0.4865724761908124,-0.6878720263259147,0.2522475814880329,0.20947496689172007,-0.6791040572039849,-1.6404586327835708,1.8477561561759703,-0.9663417244105671,-0.3972392612071304,-0.14895106592152738,0.017992412069565842,0.03461620329147137,-0.7608414104278075,-0.838218489377867,-1.0497062760850657,0.009246129683912713,-0.8551492423536193,-0.864632888896906,-1.0351592933754812,0.006729492321007329,-0.8310340450116567,-0.43925577466767635,-0.6530019436326653,-0.46101330298519155,undefined,1496161802165
903d185fccf839df,-0.5267667928282498,-0.698438237836115,0.15399366237585693,0.17078265659290945,-0.9339424869850705,-1.6785719758128421,1.8523793496175383,-1.042352473534109,-0.3624770221448622,-0.11076516286382777,0.003040500168002647,-0.08208135260360146,-0.7477857620320856,-0.8298859934112248,-1.0739168273012627,0.17291528918131702,-0.8370588907753117,-0.8744236193847574,-1.0477885372648,0.0025103176763831203,-0.8408416546975388,-0.44469828343037127,-0.6234884967599423,-0.4538855902356197,undefined,1496161803669
903d185fccf839df,-0.5184506785335455,-0.5798611497596101,0.4736369518826322,0.4760004600415141,-0.9009459730062158,-1.6943316070498127,1.8787431518623072,-0.854321673378049,-0.4613824876919591,0.1822879552667367,-0.012287921933289479,-0.030411296443530998,-0.8826941287878788,-0.7956301327707372,-1.0549694486757513,0.1648329072638961,-0.852155467567291,-0.8614727500572541,-1.0375661968370085,0.0928683959052126,-0.8123590034419974,-0.45383021161725046,-0.6206550308349464,-0.47946993938502885,undefined,1496161805179
903d185fccf839df,-0.33688283295105276,-0.25817652159719706,0.7390499577519483,0.665775382987548,-0.7774867480665956,-1.7316110827498667,1.8383914202805576,-1.0928535594218425,-0.4609126069583347,0.14417963554394367,-0.020302504017977244,-0.029996756091842904,-0.8609347147950089,-0.7734101003571093,-1.0433904733935835,0.23555409528416812,-0.8714781395805953,-0.8431325450678671,-1.0187727630547017,0.21744181979452987,-0.7752934574505839,-0.45538747981888134,-0.6128218015307233,-0.4580440775269924,undefined,1496161806676
903d185fccf839df,-0.16363099814703502,-0.33977178170402395,0.9987204851120931,0.8504707007539749,-0.7166777085955393,-1.7211434812726245,1.8548303411109615,-0.9491026564537027,-0.4415594820494705,0.11306635143419605,-0.025148674244403525,0.007748132522136919,-0.8565828319964349,-0.7817426222253008,-1.0602326139042029,0.10219407289632346,-0.886898610842417,-0.8444118000062901,-1.020298068015446,0.2531816108810846,-0.7668375667378861,-0.4721026478035665,-0.6341084203316049,-0.48500375571867915,undefined,1496161808209
903d185fccf839df,-0.03888962878056864,-0.333314558268704,1.0574177339095674,1.040743888227155,-0.6946560325185122,-1.6882732562197222,1.8968520099386268,-0.6261291138209957,-0.4163345441490747,0.16368585778336758,0.03626749804317204,0.06812391990124912,-0.7913045900178254,-0.741005928510586,-1.0223378198420106,0.18301828777663434,-0.8563790643848235,-0.7970477143427357,-0.9908904722494445,0.25158017131613825,-0.7439730956139189,-0.4672652085292986,-0.5716722037396874,-0.47197091206507874,undefined,1496161809670
903d185fccf839df,-0.05690780165737342,-0.34094575324428206,0.9176932391165823,0.9891100012047975,-0.7310262548219054,-1.6700353129219092,1.926729239038523,-0.41329151875619263,-0.4012825766676485,0.07488825253944864,0.050297928968271274,0.036002628696995706,-0.6825075200534759,-0.6984175783788434,-0.9791799047247693,0.10219398810215885,-0.885156952016468,-0.760601623064095,-0.9744059856527152,0.1516442605716734,-0.7487784750658932,-0.46431502917469036,-0.5356922548156343,-0.4727091675880271,undefined,1496161811167
903d185fccf839df,-0.15392887055411503,-0.33801073670965975,1.0574174797726181,1.0303947579018515,-0.7735987623560783,-1.652950342180263,1.988608571104289,-0.008693197118808864,-0.4537392369005823,0.2899456197180215,0.05046769354571365,0.018708564390962218,-0.7390819964349377,-0.6715683822587907,-0.9718114424835551,-0.0675370779583777,-0.9090654288198886,-0.738037345046064,-0.9551507621078656,0.20027255041599615,-0.7227779990607692,-0.47056136928358194,-0.5593801828848722,-0.5028578787569734,undefined,1496161812682
903d185fccf839df,-0.1844212666310908,-0.15251382193534732,1.2386130585203112,1.3281912657518442,-0.7947255864497116,-1.5640828794814503,1.837715569694336,-0.75731519333793,-0.49995745236381967,0.56377061519905,-0.07731533503524003,-0.01843602647527412,-0.4866727941176471,-0.6928625702754365,-0.9128640243187252,-0.10390800857218344,-0.9077203480095835,-0.7390696148599423,-0.9476151967080454,0.117721486074705,-0.736661484797303,-0.4524402185183226,-0.5675574755959718,-0.5105510733713626,undefined,1496161814187
903d185fccf839df,-0.33411080635462126,-0.1683631099726554,0.9968065797459855,1.1014781046848339,-0.8376786547216892,-1.6136025060232622,1.8648078327361437,-0.6506397400343992,-0.452980362812031,0.2119154477205976,-0.12611084209277282,-0.007207376658886065,-0.5606548016934046,-0.6752717274697826,-0.9360219307096579,-0.14634070442551372,-0.9142072425137626,-0.7046057350353752,-0.9477901167352798,0.043223805726651354,-0.7327119886297206,-0.43108364926603876,-0.6047356018011285,-0.5275755069142143,undefined,1496161815658
903d185fccf839df,-0.41034153775648763,-0.25641547660283287,1.0204128527040262,1.0522477575163296,-0.9064076793839683,-1.6306781587950698,1.8056871576948512,-1.0767669065484795,-0.418276477092148,0.13234335321356902,-0.11764313595464014,-0.09344436270787769,-0.5606548016934046,-0.6687908879201682,-0.9412850959381095,-0.23726805922474964,-0.9504453668437305,-0.6829470675590348,-0.9427873963222813,-0.0350156964071313,-0.735453295977211,-0.4335568647355278,-0.5884720288277965,-0.5445986010458088,undefined,1496161817161
903d185fccf839df,-0.4463780215317361,-0.275787088452808,1.3170885154066618,1.3482375297996707,-0.8886648469813048,-1.7225782921234358,1.7827684032250672,-1.3884706602710541,-0.4361892119654967,0.14514787016697034,-0.10927120988072521,0.032695678391378824,-0.2908380681818182,-0.6641617242137432,-0.9012850416743237,-0.24939170276268488,-0.9478109709854194,-0.6981904626029506,-0.958992010043515,-0.14144975257039624,-0.7660963121388451,-0.42809762377069827,-0.580192673264208,-0.5386390379179885,undefined,1496161818688
903d185fccf839df,-0.41034153775648763,-0.3697095466082147,1.264133490981409,1.2385752051236991,-0.9046899602425291,-1.795958642188583,1.8781593533012484,-0.9309733659379211,-0.5037945723389066,-0.1314389842288598,-0.00431074058163234,-0.028765916672038646,-0.2560230057932264,-0.6539775653546859,-0.8918113707671523,-0.05743399456889576,-0.8934566813968389,-0.6908062500591816,-0.9191521695723576,-0.05689688672665137,-0.7314527132273394,-0.4452734829517044,-0.5754400185783111,-0.5479826154279475,undefined,1496161820154
903d185fccf839df,-0.5018185189549564,-0.026892436969416376,1.4006678046482823,1.3112836734069742,-0.9522818838624146,-1.562412814651017,1.7225169174082546,-1.256468227432319,-0.4651088846064106,0.09985444666086779,-0.4839061728056974,0.09636265773657698,-0.22555982620320855,-0.5549133545457644,-0.9065481848160739,0.14058559192330405,-0.7362203413777805,-0.5672061892432192,-0.872574399205411,0.17668213235576738,-0.6194057049899087,-0.2990549810683463,-0.34821468558647645,-0.42431376845535496,undefined,1496161821696
903d185fccf839df,-0.24263385966156212,0.008328433689874532,1.607383561720124,1.5171941408400413,-0.7846147338956764,-1.6460115396624433,1.8339076048512803,-0.5925160874783393,-0.5285829637645442,0.21699015767602364,-0.566921213689648,0.19655819144595954,-0.5214878565062389,-0.5262124696317474,-0.776021757827917,0.3365845617376075,-0.7461815906234303,-0.46204132643678825,-0.8258916772074985,0.47873803719352614,-0.5028898608007221,-0.18940501366615098,-0.2974549555089157,-0.3330538801439878,undefined,1496161823162
903d185fccf839df,0.18841665564304394,-0.5904273612698104,1.5735688616406946,1.4182126609829095,-0.6033498991778365,-1.8324974190444951,1.9153763507741577,-0.4491844944563445,-0.5237508696582691,0.12117363322881458,-0.3424483311390239,-0.015364003515622594,-0.42574643493761144,-0.27438564282302425,-0.7370743115782266,0.4436768499600145,-0.5545010809185925,-0.2844275886918332,-0.7641378239878684,0.8790360281922958,-0.31722624847453734,-0.18440289469074117,-0.3735782744567097,-0.31554129865832303,undefined,1496161824658
903d185fccf839df,0.1870307458610574,-0.6690874733160495,1.3796135749363514,1.4289546470979644,-0.4667764143811761,-1.9364793158828506,1.9644590581383006,-0.4276912409175963,-0.30482024142048064,-0.11091658142629213,0.0018305550306098963,-0.1152925461947469,-0.1994485294117647,-0.3095673672866556,-0.800232279595179,0.3769968105013706,-0.5926347727177508,-0.2852572045184282,-0.7922300189970847,0.9614331106638876,-0.3144509335218783,-0.2287588188703282,-0.4199390246676826,-0.343276140471975,undefined,1496161826165
