UUID,iqrAccX,iqrAccY,iqrAccZ,iqrAccXYZ,meanAccX,meanAccY,meanAccZ,meanAccXYZ, covarianceAccXY, covarianceAccXZ, covarianceAccYZ,pressureDerivative, pressureIQR, iqrGyroX, iqrGyroY, iqrGyroZ, iqrGyroMagnitude, meanGyroX, meanGyroY, meanGyroZ, meanGyroMagnitude, covarianceGyroXY, covarianceGyroXZ, covarianceGyroYZ, class, timestamp 
903d185fccf839df,-0.3348037784983194,-0.47566587068109445,-0.4581785372298123,-0.6069581646723863,-1.0133452830071163,-1.2769209804133848,1.6649100805481074,-1.3919375613423635,-0.019155472594635476,-0.8306065196272715,0.06905636255125158,-0.9835392527532286,0.14217427027629234,-0.5160282589695919,-0.3697054345852772,0.35072876542399606,-0.7514118214749812,-0.5144844303845904,-0.5299848834653988,0.22595715269513128,-0.42069312668355924,-0.628108484012996,-0.6470803952668985,-0.34944593110534145,undefined,1495052246003
903d185fccf839df,-0.25094997395626634,-0.4577617963264228,-0.08717518679236559,-0.20002551770169907,-0.8722625878210462,-1.4626724608924708,1.8525634470335595,-0.5110223286155066,-0.4080279250739435,-0.33090170788121753,-0.13852840255124385,-1.1389987042935206,2.5531173406862746,-0.0836638727748413,-0.5191793064590499,0.10017345621842708,-0.6840967571396875,-0.2511923002477136,-0.5362634609653324,0.47388962686667224,-0.28255313871471005,-0.5987073773536904,-0.43595295801038453,-0.5095082805625929,undefined,1495052247523
903d185fccf839df,0.1842587192646259,-0.45981640727583234,0.20567241104110529,0.12231514019417486,-0.6086756865817917,-1.503208709297152,1.7955154418738801,-0.7972167836990307,-0.5874485154546494,-0.1788415587797712,-0.12412351192493845,-0.5875317969316542,2.3725142045454546,-0.16235973348871185,-0.6212847133634589,0.14866808689961114,-0.6558795109170529,-0.2587398280537605,-0.6076384172628906,0.4058997921778227,-0.3293874062751042,-0.5085329366817564,-0.472632668708102,-0.5438629756985167,undefined,1495052248988
903d185fccf839df,1.0588340075794187,-0.41843184990827453,1.4383105695968763,1.5192500463052625,0.13859857045891508,-1.6560622057517644,1.7818374470375662,-0.8132548821215442,-0.9452225052295027,0.8373234547040513,-0.3532268480280646,-0.25656239159593514,0.6839836786987523,-0.3003090269230313,-0.6339163187464235,0.1486680586348896,-0.635136927925817,-0.26214073732226706,-0.6292431102188824,0.43358995418928586,-0.3390737618253929,-0.5034857955936414,-0.4408131281127127,-0.6102337075708266,undefined,1495052250524
903d185fccf839df,0.5959050828996212,-0.3139430925586906,2.332802489769203,2.2605567284472916,0.5746915458659179,-1.7204726583157055,1.8680398601454427,-0.2047929972790185,-0.8028538921978067,0.6632739784125531,-0.23209947329680958,0.15962214573004196,0.8101882798573976,-0.3558590173016792,-0.6697058452447883,0.1749360471828211,-0.6752908151968106,-0.312613127321051,-0.645835359813755,0.42028675455541736,-0.3700629460498876,-0.49115419164167085,-0.4562773836332392,-0.5864147856347466,undefined,1495052252007
903d185fccf839df,0.04704340274126641,-0.41843179145228987,2.216046130054256,2.1938694264322636,0.45574774852190336,-1.7014357872613692,1.852510860741156,-0.4656380149712248,-0.4069263771804427,0.7036223384929946,-0.08129279904194939,0.2168990076064233,-0.02102133467023172,-0.4188157110530854,-0.7349690440143992,0.15068859051862138,-0.6811159611627059,-0.3699539932654049,-0.6671760178862631,0.3489291441679887,-0.4201308028572891,-0.4670370777259163,-0.47489025301034044,-0.5825447484874352,undefined,1495052253507
903d185fccf839df,0.03872704690869402,-0.38966811500032655,2.164367381389008,2.1357330991956283,0.3249959720259996,-1.6625281750038439,1.7888038047929389,-0.8654842157530392,-0.6578702826038259,0.926839699384408,0.048375993889567384,-0.012017749196491624,-0.7608414104278075,-0.46232997681107,-0.7876006962989158,0.23757476849150758,-0.7301310885595388,-0.37844647057068764,-0.7184206606614081,0.3816354438979162,-0.440166662849969,-0.42732774142510627,-0.46802491960741993,-0.6148394469593347,undefined,1495052255083
903d185fccf839df,0.1634685197913896,-0.49474385812003957,2.135657276075697,2.052881979961044,0.37002676069824814,-1.6471295746356076,1.709181172783247,-1.2419284442990808,-0.5796217505854898,0.16152408186760958,-0.10920781745923652,-0.03624944229897583,-0.6999150512477719,-0.49565993477609,-0.8276007726494031,0.3547701401033965,-0.7123142466140691,-0.41545619145584983,-0.7451274881691768,0.4900866907470122,-0.44153643923890323,-0.4697431447012921,-0.4808750471266082,-0.6475266009645129,undefined,1495052256494
903d185fccf839df,0.08723778838952323,-0.5182245165008798,2.2983501600836704,2.1700590094621597,0.422092957598583,-1.6862654524479277,1.6744808710370016,-1.4718323669229125,-0.615019716893337,-0.5199939560141028,-0.1788437946785133,-0.046537097254690296,-0.7826008244206774,-0.5789849591963855,-0.852863953966397,0.3547700553092319,-0.7573544914705044,-0.47535317434010943,-0.7605904406654129,0.45183695360466763,-0.4815291299836543,-0.4805976150935941,-0.4933058438892352,-0.6472200453489406,undefined,1495052258048
903d185fccf839df,0.012392794242594724,-0.5006139496452687,2.1866978868609435,1.9742603283051157,0.4211158113126086,-1.6286237704908006,1.7745265811002495,-0.7259376423947137,-0.6022378897874613,-1.2657243850653472,-0.047675739960321796,0.007329149336690215,-0.8870460115864528,-0.5817624859119443,-0.8139165298034079,0.4861094610191802,-0.7567598643565248,-0.4771707293416209,-0.7589811734541981,0.5007732106616651,-0.47656699636359484,-0.4594487726120476,-0.5039969796500087,-0.6446494995788543,undefined,1495052259501
903d185fccf839df,-0.0957163810398729,-0.6056897512209665,2.039955146072681,1.9050230761204718,0.25264638010968576,-1.5950035297836656,1.752830682884137,-0.9646016387469394,-0.6036935534179981,-0.8925415055231188,0.1378427086317126,-0.031246893442605315,-0.7913045900178254,-0.5567650044874048,-0.7760217283789819,0.4921713675823124,-0.7183641207464091,-0.45261790575760247,-0.743966016315768,0.6103177516203966,-0.4407865040951571,-0.4696576740968218,-0.5053083060644639,-0.7006593706651951,undefined,1495052261024
903d185fccf839df,-0.04443375098425112,-0.564011686354348,2.5401561305840974,2.2915848837147412,0.5899349531060295,-1.5927255325646568,1.7341748482090975,-0.8552439331278467,-0.708381297192577,-0.5092817831349787,-0.026146402163022654,-0.02621829495326657,-0.9044535427807487,-0.47992078076440026,-0.780232292955572,0.5042950676496907,-0.6929573962428942,-0.400377452139193,-0.7319175090443814,0.6984584554281364,-0.39705839712557744,-0.46818681044328614,-0.5162535202777984,-0.7388891195751841,undefined,1495052262516
903d185fccf839df,0.19811871422514446,-0.5722298963280473,2.4234000250061003,2.2680372216570306,0.5029899504564008,-1.5984205206252646,1.6820336804642568,-1.2139845990974956,-0.650023792759382,-0.37040556933000246,-0.004486992798008251,-0.15723685733784648,-0.6259330436720143,-0.5400999996033458,-0.7918112461510383,0.5608719954541311,-0.673855694856075,-0.3498025650056539,-0.7365074165818727,0.816487541402862,-0.3604883385742412,-0.43149808775493687,-0.45932226955268446,-0.7445222123033993,undefined,1495052264070
903d185fccf839df,-0.020871455903763863,-0.6385627080277335,2.2262548113125944,2.2794290685675334,0.04820785904333199,-1.6201173852230382,1.7519102610995576,-1.0421714471383197,-0.5323802555625683,-0.7376766631570696,-0.01415695536230182,-0.16995208614025561,-0.0036138034759358177,-0.474365766185606,-0.8233901933483455,0.6154283913748397,-0.6403116552817149,-0.4129103498139047,-0.7572949419044607,0.6877873354667086,-0.4192923318014194,-0.4302984372469712,-0.3867899299423704,-0.7332267407545887,undefined,1495052265504
903d185fccf839df,-0.48795848948902815,-0.5475752664069491,2.178403873379561,1.8527658649031316,-0.3788851405433782,-1.601299462369774,1.9023298999810974,-0.17915473601194776,-0.580514956077219,-1.0296488528396048,-0.0090949401885184,-0.21141651554303353,-0.07324392825311943,-0.42251910159178824,-0.8560218221820861,0.6578611437576131,-0.6377327820421973,-0.37757252367880756,-0.7963791273881747,0.7193695458519721,-0.4096902053819116,-0.43521093528040933,-0.37623635256294186,-0.7332993382263624,undefined,1495052267023
903d185fccf839df,-0.40063951367979683,-0.5370089379847794,2.150331143535404,2.1558852254651613,-0.6166801582065632,-1.6345866214098395,1.9129437961880689,-0.29017374612112745,-0.46429437619532504,-1.3175795880800534,0.015286075444533706,-0.1079822268474223,-0.5954698640819964,-0.5012149364041097,-0.8202323104081888,0.6416963233933282,-0.7142384339892446,-0.3208990114794234,-0.8118000994106428,0.8147783135275303,-0.37300711078799226,-0.45551344361412155,-0.3448335530509888,-0.7497131943706271,undefined,1495052268508
903d185fccf839df,-0.03611767119495661,-0.5094192330730742,2.3283365411569856,2.1853142918323094,-0.24646707116064684,-1.7094693316434875,1.7343299971857564,-1.401440876216656,-0.4975783881320738,-1.4489547544600945,-0.16521790009474382,0.01935386693331724,-0.8565828319964349,-0.42714826529821315,-0.7981270267558191,0.8195097996360072,-0.6693325986575815,-0.27944356264890563,-0.8018996126563188,0.8689500408246575,-0.331922016770413,-0.505138393621137,-0.3260660573714495,-0.7248799688222491,undefined,1495052270011
903d185fccf839df,0.10664183654290482,-0.5411180721996215,2.5510024414485386,2.3998612460416053,-0.36509201463918334,-1.7770219277741464,1.8195620138630693,-0.9925265681350718,-0.47761512003843093,-1.4264193079638041,-0.20125775989461334,0.03567889996730585,-0.8565828319964349,-0.4558490984091319,-0.8402323338589649,0.6396757349801533,-0.6948576580602888,-0.3115452529260023,-0.8251010368138013,0.8197058120585738,-0.3669016766193941,-0.5324943020537793,-0.33504353023981426,-0.6726919778416622,undefined,1495052271502
903d185fccf839df,0.06506136858561277,-0.6966771636137585,0.6388818791367152,0.5859394176969901,-0.7394811061617076,-1.8832329070817344,1.8699228041392613,-1.0037205120133141,-0.27687427804471115,-1.4987448925134703,-0.061355473334445035,-0.04582035945580694,-0.8565828319964349,-0.38178237550013716,-0.8728639626927055,0.5810780774389304,-0.6415471015483509,-0.36952335184405577,-0.8536760123546292,0.7656880656887847,-0.41244854391598285,-0.49522484148473894,-0.28126169006424095,-0.5905192136707936,undefined,1495052273016
903d185fccf839df,-0.3479709220840739,-0.7160486877797566,0.2452293354927563,0.17683909826897629,-1.0393091667869707,-1.930299843694694,2.0152143231241264,-0.226794672286469,-0.33888857300852565,-0.6492857631445929,-0.07280434880157496,-0.06143046233434165,-0.45620961452762926,-0.43825824265270347,-0.8949692316206076,0.31637847975280825,-0.6528099387457273,-0.44655727858636163,-0.886498052593082,0.5040068870593949,-0.5059400868328068,-0.47223211646079494,-0.2925660704202435,-0.4833359602596375,undefined,1495052274499
903d185fccf839df,-0.4214297131530331,-0.650889964532298,0.3906952922471149,0.3060897897513831,-0.9704258523859991,-1.8625446041666007,1.9028374609535164,-0.8576814803682633,-0.36437987307024644,-0.6337570418856968,-0.10878193665705885,-0.003978512264473612,-0.517135973707665,-0.4614041129879261,-0.8907587112174203,0.20928627632456584,-0.6525875939827562,-0.5032497890797214,-0.8918995906877497,0.44115043158989453,-0.5472719668654947,-0.46073055576460303,-0.3220554377997844,-0.44579314610338433,undefined,1495052276029
903d185fccf839df,-0.19412325620237184,-0.4695022424288122,1.5033874182357263,1.3949064460154796,-0.6658046527677229,-1.8274709194414993,1.9014147315183139,-0.694450106503469,-0.40727133112323555,-0.5628765952482346,-0.28185819219867453,-0.04777977904714935,-0.6172292780748664,-0.5789849980487091,-0.9023376644128867,0.23353361992987942,-0.7598083118636167,-0.5425393725290543,-0.9246656552585965,0.4247510870684387,-0.5805338677657031,-0.4779734136402139,-0.270441178130921,-0.5239239566437658,undefined,1495052277756
903d185fccf839df,-0.16085897155060352,-0.4460215840479721,1.5359263508290502,1.5333324710981993,-0.6105910310172112,-1.8391590417778185,1.917837869337849,-0.5876919486959625,-0.39977196988418956,-0.536077141756771,-0.28432076444488535,-0.00450073585506906,-0.6172292780748664,-0.5937983529911277,-0.8991797667482624,0.23555420834305427,-0.7682799747960511,-0.5632164332204891,-0.9177458093260309,0.3925837354331209,-0.5944264523359742,-0.4650551645718932,-0.3610841309586602,-0.5064736767713162,undefined,1495052278985
903d185fccf839df,-0.07215398244315643,-0.48241654315949045,1.947443451332727,1.8017034302591346,-0.5776768027667036,-1.8394012824716408,1.9046125693875424,-0.6453132827694585,-0.43633272490974334,-0.5325128410834584,-0.32208387173984365,0.047387519677278805,-0.47361714572192515,-0.5993533546191474,-0.9139166176083531,0.21534815462297655,-0.7531436632500377,-0.5599106360284672,-0.9272684688190815,0.41144683045863095,-0.5924163816412461,-0.4512867600985883,-0.37933099902325484,-0.5006767879081138,undefined,1495052280511
903d185fccf839df,0.09139562125171208,-0.5123543372916736,2.2964360005806133,2.13772237656218,-0.32886579173823566,-1.861743345417195,1.783168128113932,-1.3606524487417564,-0.3603386690937303,-0.6584760947057575,-0.3320846058160073,0.07020916223830037,-0.7260263480392157,-0.43177740310308893,-0.9044429319767141,0.5245010931050469,-0.5970323656342132,-0.49345905893514325,-0.9016601424601866,0.6071456749278681,-0.5166095830914995,-0.44889800761251425,-0.2293895635725974,-0.5172723426585089,undefined,1495052282021
903d185fccf839df,0.18425858124298694,-0.4906347385191937,2.5127220468938414,2.624973877252497,-0.30684411383673343,-1.8840364941674765,1.929627280360417,-0.4060503143448867,-0.3379846479459189,-0.7531814547838571,-0.3519860627654425,0.13231335195694888,0.23138786764705885,-0.41696407406221947,-0.8686534422895182,0.651799350253367,-0.6112271770907836,-0.4292556753911503,-0.8937677400971477,0.6921758895110415,-0.46626829040506046,-0.45544281075327997,-0.23119656346640333,-0.5348959358328779,undefined,1495052283522
903d185fccf839df,-0.14006866856113803,-0.5287907280110801,2.0456976245818526,2.0384158197769566,-0.5483728502176675,-1.8832398945135282,1.9303320624510654,-0.498195332487456,-0.35365710813146245,-1.0951497441762865,-0.21140172139723265,0.15729336999620802,0.10953514928698754,-0.46788496548831515,-0.8518113017788989,0.5608721085130173,-0.6879391101641722,-0.39581140057275654,-0.8290052590202326,0.8820387247850754,-0.39818647749267777,-0.4840270237002239,-0.2993247438609921,-0.6319648414980554,undefined,1495052285026
903d185fccf839df,-0.35490104033326725,-0.5047231277020994,1.9570139947110627,1.847214723961656,-0.8096912629873876,-1.914325922031084,1.9624814475049213,-0.4097607975792129,-0.2759648424529898,-1.1896629176736264,-0.283013182336159,0.22062841434096872,-0.865286597593583,-0.45492324753676255,-0.8454954917251828,0.560871938924688,-0.7670287514915995,-0.37789550338556793,-0.8026342791318893,0.9626187899266536,-0.3608917838279441,-0.4867859869987756,-0.35095304807688343,-0.6983712388040336,undefined,1495052286564
903d185fccf839df,-0.4214296786476234,-0.47772040856052317,2.1139646543468142,1.9697183825457685,-0.8258912375934369,-1.8870342259401176,1.895702782682448,-0.851459328690812,-0.3504520952311089,-0.7517978557569159,-0.24894713254243933,0.0020777736312693118,-0.8304715352049912,-0.42344491361183395,-0.8402323191344973,0.6416963799227712,-0.7713990733815514,-0.3816002765275654,-0.7953016219387207,0.9968495342614472,-0.35265955006254,-0.48897658869330557,-0.3596694678262468,-0.6952625261172595,undefined,1495052288088
903d185fccf839df,-0.37707728761012904,-0.5088322180749528,2.177765735499559,2.0483171564535967,-0.8200283922700276,-1.8840271778303452,1.8311305255847783,-1.2730424917290732,-0.35462501184834855,-0.671772259663276,-0.2925828844767553,0.1438825283679148,-0.7956564728163993,-0.4373324047311086,-0.8118112401528791,0.5911811608284123,-0.7780441350092039,-0.4277547705190147,-0.7843236256303947,0.943278342190334,-0.3821091817984648,-0.46487547665041096,-0.39575636685103915,-0.6698259968055548,undefined,1495052289509
903d185fccf839df,-0.2717401044186832,-0.5006139934872573,1.9684979351816074,1.870910209967787,-0.7639919144043467,-1.8924427188087076,1.8735308903012964,-0.9741010514937797,-0.40935632695865426,-0.5803246549569363,-0.3104616245679329,0.1566136253842699,-0.7347301136363636,-0.4762174420287956,-0.8560218369065536,0.5184392430713578,-0.7617128439497857,-0.4022456729490832,-0.801633735824933,0.9591387395730042,-0.37699413102791357,-0.46119011435395996,-0.4339732581442837,-0.6338676705995392,undefined,1495052291045
903d185fccf839df,-0.08601418443613343,-0.4154968041456599,1.9812581514121563,1.9119056855659697,-0.6511989636212664,-1.843386611812186,1.8355012662740104,-1.1209779769664852,-0.42618008071608454,-0.02236077304258405,-0.33017256970830217,0.07297625841715448,-0.6999150512477719,-0.42622244032739287,-0.8791797580219539,0.30223419127225504,-0.7672157211835279,-0.4662780665210233,-0.7985481424301814,0.8712752087660462,-0.41901204072429177,-0.45491178246652514,-0.5477026298882394,-0.6256211025630879,undefined,1495052292509
903d185fccf839df,-0.12620867360061944,-0.4935698281237968,1.9257513378777433,1.8727091068476927,-0.5818322247623471,-1.8421521143435573,1.7694379142787797,-1.5512057542989135,-0.47581679977156566,0.23976373379330282,-0.289767302879369,0.06948742270656545,-0.7303782308377896,-0.5345449850245515,-0.8812850329480152,0.3264815914070117,-0.8210033335784463,-0.5027621557053417,-0.7987510497192737,0.9191027791509915,-0.42362040265910716,-0.46916989098989037,-0.5347400085790596,-0.6173679797603615,undefined,1495052293985
903d185fccf839df,-0.11096249281483643,-0.4653931082139702,2.2492232005275823,2.3036315044175124,-0.6331064262095584,-1.8312512760543336,1.810270908274551,-1.2577265132999333,-0.4696354858259563,0.2961066240280504,-0.31829687324493,-0.014455867873931001,-0.8826941287878788,-0.556765030388954,-0.8949692316206076,0.31233724639701543,-0.789399619302068,-0.4546507833245715,-0.8317550064349312,0.9609249595544065,-0.4102987374855752,-0.4668987141492042,-0.5236646966055005,-0.6119057817275535,undefined,1495052295485
903d185fccf839df,-0.015327506227130057,-0.4225409548951242,2.404897838540279,2.297047287061145,-0.6987085951271413,-1.8581260386202232,1.8830455228990932,-0.8436460501891483,-0.5042613425573035,0.02104190045619691,-0.26503087245140033,0.04064783111960152,-0.9131573083778967,-0.5308416851412705,-0.8865481687275317,0.3689144003192281,-0.777728998752035,-0.4727756685445173,-0.8473788842111092,0.9412611458907197,-0.4252362694119526,-0.4697871608673152,-0.5448898405761237,-0.5958934029210181,undefined,1495052296999
903d185fccf839df,-0.2883722985026819,-0.4671540947523497,2.1764894597395545,2.0592961208892957,-0.8951551239111251,-1.8651533533337064,1.8810442351306065,-0.9204883373769538,-0.4175581114568276,-0.20341689145612557,-0.2773306097983076,0.07247685045850046,-0.9218610739750446,-0.5151024922772571,-0.9086534671043689,0.3103166579838406,-0.7716888716215744,-0.44469539606856795,-0.8575732376645449,0.9236761233854169,-0.4210748513112445,-0.4636408398751546,-0.5081739958153082,-0.5913962795399089,undefined,1495052298494
903d185fccf839df,-0.21768558578826883,-0.5287907280110801,2.0909960109948766,2.089662984365777,-0.8555654761781033,-1.8821731052232236,1.8544726888874274,-1.1133980309035394,-0.4684559619546128,-0.39671972146435963,-0.29577337747203897,0.05400108284189555,-0.8565828319964349,-0.5225091438469174,-0.9033903018759173,0.43559432671898585,-0.770903686916845,-0.44092096068453585,-0.8785566727618865,0.8533976186243493,-0.43706913512617607,-0.460792534218833,-0.4873003533987737,-0.6112195338087183,undefined,1495052300039
903d185fccf839df,-0.2107554502863706,-0.5147023680561668,2.1675575625151198,2.1793424059885114,-0.7765404677380459,-1.8610026497931642,1.7929957214654477,-1.4743944206741824,-0.47989320120545204,-0.47240603028948175,-0.3420617056123262,0.03354505244381628,-0.9523242535650625,-0.4641815879003869,-0.873916570706801,0.5265216815182218,-0.7368543925498042,-0.44954642873293055,-0.8984276154375527,0.7329509775492196,-0.46613993819171107,-0.46748498708900965,-0.49507727629008746,-0.6344710671879283,undefined,1495052301499
903d185fccf839df,-0.15808694495417203,-0.5123543372916736,2.3238700842708693,2.237208084182309,-0.7527907918658545,-1.8384509553044124,1.8007746869198038,-1.3762231135650314,-0.5163818119779606,-0.2828533588073169,-0.35724675210888385,-0.019731894786298314,-0.9610280191622104,-0.46047824916478225,-0.8244428602603112,0.5386454098503216,-0.74572588004163,-0.47577748089102145,-0.8746384577839735,0.6713879905817702,-0.4782471405568949,-0.4874532054759424,-0.47678130605008584,-0.6464166657238835,undefined,1495052302993
903d185fccf839df,-0.3784632318975253,-0.4260629571998755,2.08142597589044,1.8599817595918335,-0.8303449482740998,-1.8464355850898775,1.8624699369332014,-1.0049708629823062,-0.45681348701740837,-0.3124160106989345,-0.32401259830068385,-0.0459215376698604,-0.9392686051693405,-0.4743658050379297,-0.8086533424882549,0.34668767339181095,-0.8250057982648236,-0.49217980423479674,-0.8606308439442482,0.5939492044340895,-0.49298582912653405,-0.4838833601639537,-0.4662118868791813,-0.6227637608148165,undefined,1495052304473
903d185fccf839df,-0.4103416067673071,-0.4348682698556734,2.3876714195605633,2.2881343863365418,-0.8821745729642432,-1.856532836775379,1.9001156107023167,-0.76887804749514,-0.463797928642786,-0.01835473370594506,-0.3039718006166509,0.003641112976963751,-0.9871393159536542,-0.3965957174917812,-0.8139165150789404,0.24969835549999975,-0.8154495923095967,-0.4474882196791584,-0.8552223088001383,0.5397620748412958,-0.48420578418340193,-0.516450919988466,-0.40430864343621586,-0.6457507852460058,undefined,1495052305994
903d185fccf839df,-0.44499200823352036,-0.37323163659694303,2.049525689451017,1.957590831591285,-0.86912202251419,-1.7957769623396014,1.8925259910973429,-0.7542383301295745,-0.36907575962257055,-0.19669652930404086,-0.24017987946346556,-0.05400846950564682,-0.9740836675579323,-0.4086315716201899,-0.8412849713219955,0.3588112321355816,-0.8077761107424902,-0.4766197594379983,-0.8664731807326546,0.47157775762432486,-0.5056505679238401,-0.5151360179409777,-0.4034256409327066,-0.6687500693039742,undefined,1495052307500
903d185fccf839df,-0.4380619417424416,-0.517637472274766,2.0673899921737857,2.0622060179992485,-0.8530969091169303,-1.77359328859319,1.9777317018836056,-0.1755228441958779,-0.2908029786099326,-0.2526518191811662,-0.24590373386000036,-0.008525086395014835,-0.7173225824420678,-0.41696408701299403,-0.8212849478712194,0.4618622587374743,-0.8519498675425534,-0.47869063371472526,-0.8367297374328663,0.62790277832594,-0.46654352199008964,-0.5001898603080335,-0.41189579262108866,-0.7127204113805012,undefined,1495052309000
903d185fccf839df,-0.07908408343964493,-0.5076581588507177,2.069303897539893,2.1068914706467474,-0.7340091075192062,-1.7910369617240782,1.9105848656237434,-0.595814796113118,-0.3302347943362152,0.15515867780596565,-0.3397132061233235,-0.01332564702011482,-0.7956564728163993,-0.407705707797046,-0.8002323016818804,0.2618220273026565,-0.8553199990942048,-0.46665804022384394,-0.8305025752693758,0.6209272827810938,-0.45820138995525567,-0.5015103153039873,-0.421300083540689,-0.6846488754185169,undefined,1495052310489
903d185fccf839df,-0.02502956480923059,-0.5170504134346561,2.3729972979639067,2.4073812909445516,-0.6925680376261215,-1.8927548381015689,1.8861013686653942,-0.8666393299794448,-0.3574311104951013,0.24668344655357313,-0.2881509701345603,0.04838616301848693,-0.7956564728163993,-0.41788991198381426,-0.7970744040172562,0.6800879554791949,-0.8032688204331898,-0.4657144331717157,-0.8253809085025869,0.7774062877217747,-0.4238714681771419,-0.5429787842171413,-0.4680277959595399,-0.6611421890338053,undefined,1495052312049
903d185fccf839df,-0.13452464987368476,-0.5428791171939856,2.36853109521474,2.421171262316652,-0.5042677806325361,-1.9056891037297654,1.8243377406193761,-1.1951113215438145,-0.48398593221253144,0.6704264518367856,-0.3280944027623742,0.11044020760562304,-0.9305648395721926,-0.4484424597902462,-0.7570743350290027,0.7487885268215705,-0.8037200725329062,-0.4369945345691963,-0.7849883189200375,0.8461603432873289,-0.3863443799928207,-0.5380517332502653,-0.447486115921912,-0.6603552412948296,undefined,1495052313491
903d185fccf839df,-0.1899652508131343,-0.6602822337302325,1.8007009646814145,1.7958527910147504,-0.4669101311013686,-1.9408908959436355,1.8801474758158294,-0.8726053790447156,-0.4806687856680673,0.16474325056512393,-0.24414326054363722,0.06628583749315643,-0.9001016599821747,-0.4669591016651713,-0.6854953041189743,0.7205000629193503,-0.7795175996189888,-0.4308705768150918,-0.7851282550519323,0.8915857575019595,-0.37364268652932997,-0.5408713375487344,-0.4789196193038884,-0.6286197807252898,undefined,1495052315002
903d185fccf839df,-0.07769803563601944,-0.6632173087208394,1.427464258732435,1.557161948174935,-0.3330417831434392,-1.9073405332755984,1.942455471083778,-0.3963018712769474,-0.4368026652986794,0.19767683457193574,-0.21291493392012603,0.06577924908761573,-0.6650999888591801,-0.4993632864624692,-0.6349689120360513,0.7063558309682403,-0.7693693997073524,-0.42418298745572935,-0.768181979286015,0.8888448327316666,-0.3723310589391819,-0.5330630462474312,-0.48393288272105806,-0.6075377868236597,undefined,1495052316495
903d185fccf839df,-0.17471913903817077,-0.6068638104452015,1.4867991371360127,1.4792117781689118,-0.4331113257756958,-1.8987060432517227,1.9105559236440994,-0.6808799768291771,-0.36293541814987607,-0.06821798455503592,-0.2319140719664675,0.002629282100726829,-0.7564895276292335,-0.5586166155767217,-0.654968950211295,0.7144382411503827,-0.7912646790665586,-0.41919896119687183,-0.7753187271876778,0.8738775446329261,-0.3762777832688951,-0.5005797696535211,-0.49930487112418814,-0.5795984559984328,undefined,1495052318008
903d185fccf839df,-0.29946040488840797,-0.5974715704752593,1.8651399295772118,1.9269509679950858,-0.5015832120390619,-1.9214487348897216,1.8628828040304934,-1.0495326083876326,-0.22581638778467766,-0.16691039060131135,-0.2102049878498927,0.0549957088700702,-0.6999150512477719,-0.5669491698218494,-0.7307585383356795,0.726561884688318,-0.7315062643977559,-0.43140887744845674,-0.776312275047862,0.8748014478595031,-0.3884846721807943,-0.4253611880069772,-0.4645295073771583,-0.6630884668525104,undefined,1495052319497
903d185fccf839df,-0.1137344849058582,-0.608624884667558,2.4789070926774626,2.5043717794968012,-0.5354848688696958,-1.941596654322621,1.8737202311749503,-1.017328393544301,-0.38953740064983855,0.08280778616893474,-0.0733781307098813,-0.057650729051796364,-0.6607481060606061,-0.46418160085116145,-0.7349690734633343,0.6982733077272116,-0.7165651556392572,-0.3448755328480532,-0.7683149209498673,0.8740931232461191,-0.34956237334929463,-0.2898032127669962,-0.44433741197528986,-0.6528673126954149,undefined,1495052320999
903d185fccf839df,-0.01394145842350457,-0.6362145749652671,2.9631576798322175,2.99031824106467,-0.5715773843848819,-1.9385826188317938,1.8668985178476873,-1.0656935789930915,-0.4165904396865096,0.284489337775216,-0.121570166606645,0.013696199080587796,-0.7651932932263815,-0.504918313992038,-0.7623375149819219,0.8579013469277093,-0.689527250359309,-0.3384919265126454,-0.7506409763267083,0.9914754734081912,-0.3263161378985107,-0.2845543144932726,-0.3577751406718687,-0.6911543541316849,undefined,1495052322488
903d185fccf839df,-0.07769807014142918,-0.6362145895792632,2.9293429797527883,2.9730690729749196,-0.5686253826270943,-1.9156768804476385,1.8900302884930702,-0.8846506102686871,-0.38573523512098135,0.46776142406331084,-0.12746321645516362,0.061537498960974345,-0.7347301136363636,-0.40863161047251356,-0.7570743276667689,0.8013244473879905,-0.576636593185691,-0.26301590454615775,-0.7209255205762797,1.0556253972047325,-0.2725161260203784,-0.35061343322630406,-0.2699616886335259,-0.7247553352990239,undefined,1495052324038
903d185fccf839df,0.23969925119325597,-0.6162560358011476,2.639686071319328,2.6001025166060754,-0.4370198919306472,-1.9362067956305289,1.9056618672546677,-0.7596415478727947,-0.3187151078861285,0.44045704861954454,-0.2558159131542128,0.10407584800655108,-0.8261196524064172,-0.3373423624759796,-0.7791796407680737,0.8437572280354854,-0.5441913742953072,-0.27095108293517334,-0.7174061254210072,1.047987765342053,-0.2737505920686979,-0.35523627701336846,-0.26271054665735977,-0.6998134093347733,undefined,1495052325501
903d185fccf839df,0.1703985172716489,-0.4900477089070761,2.2205125869403726,2.224972602038974,-0.3842234060894215,-1.891676399458034,1.8595403280182865,-0.9690604340268651,-0.3222021553054954,0.40727565768377516,-0.31623722569413737,-0.03561271008715245,-0.8870460115864528,-0.283643970235874,-0.7665480353851092,1.0114675643592395,-0.5513618048682446,-0.21033214471530431,-0.6970174179941856,1.196490375595407,-0.21206818794215637,-0.4121558710861736,-0.2275337658466159,-0.7363114887296455,undefined,1495052326991
903d185fccf839df,0.19534675663953244,-0.5346608779922939,2.1362949056818006,2.0525929928157205,-0.3235892213254613,-1.88121345736075,1.8855701525558248,-0.7900971215865074,-0.33187169548064577,0.6274096869970013,-0.313110189945373,0.0272429966112784,-0.7216744652406417,-0.3197515455718748,-0.7191795704157455,0.8579013751924308,-0.6238591991899414,-0.30181784999799516,-0.689838689459711,1.0324661335841911,-0.2731130562018233,-0.44841618817853246,-0.2718604870346717,-0.718684687377048,undefined,1495052328522
903d185fccf839df,0.16208243748235437,-0.5546194463844057,2.257516959872015,2.1158487347491532,-0.4166850637182489,-1.8645430914109928,1.8362612831413307,-1.1282003097367745,-0.22889385539781262,0.6532471459565002,-0.3160936447002536,-0.06031437999980215,-0.7782489416221035,-0.29845733812906716,-0.758126979854267,0.8821487470624659,-0.600703282483117,-0.34395092628242024,-0.7307980208578466,1.075905149655557,-0.2956944512093978,-0.5239640566963819,-0.2340363673524996,-0.7248741069335171,undefined,1495052330003
903d185fccf839df,0.4947259050974128,-0.5188115168850049,2.3819291951883415,2.2733242317919875,-0.37094457299522293,-1.8923681842786007,1.8962682014261112,-0.7700042110223725,-0.28826298271106604,1.0678440241049718,-0.3447858687815737,0.03419785122860252,-0.7086188168449198,-0.29845733812906716,-0.7633901524449525,0.8134479778670396,-0.6343472407379261,-0.31557933835855434,-0.7352060114104173,1.0585664994099229,-0.28741523212880776,-0.5277657674128095,-0.2695060883715051,-0.7259816768015432,undefined,1495052331487
903d185fccf839df,0.4281973357938762,-0.4730242447335635,2.160539316519843,2.1524244436745583,-0.46560384457070003,-1.9104267755337276,1.9195866870698906,-0.6630343871593686,-0.25878914255423413,0.6056130711788784,-0.3288313003701007,-0.03927774468803907,-0.6476924576648841,-0.3438232408779177,-0.7581269945787347,0.8275922663475928,-0.6828166223867089,-0.3276625953711715,-0.7548040792081744,0.9774166927157315,-0.31177625273445486,-0.48096396187714646,-0.38616127029257674,-0.7193407372229622,undefined,1495052333016
903d185fccf839df,-0.004239296325174835,-0.5235075930279876,2.4706128250591313,2.5402152592755143,-0.5076826321013211,-1.937245636182615,1.9145427151226828,-0.7355383055856195,-0.3835125238641239,0.7846304526590064,-0.42879570119443994,-0.14989592154926792,0.1487020944741533,-0.35678486817404853,-0.7486532794981605,0.6578611437576131,-0.6683079746134206,-0.3580290612454991,-0.7786562068505924,0.9272485603461266,-0.34477553860313115,-0.4922994055066584,-0.4093811843635535,-0.7318201033994457,undefined,1495052334488
903d185fccf839df,0.1357481158054356,-0.5417050871977429,2.366616935711683,2.4444919964768217,-0.4989295037275338,-1.9137016850382027,1.917635366090974,-0.7035260133093539,-0.3765608505253461,0.944525024350623,-0.3381697058348958,-0.11450618090745748,-0.051484514260249546,-0.38455992811724515,-0.7918112461510383,0.708376362851972,-0.7015398238510252,-0.3489222878166228,-0.7882488349050724,0.8785432753128644,-0.35409175504446483,-0.4884362219423634,-0.3858911514241769,-0.7226552367276606,undefined,1495052336038
903d185fccf839df,-0.11234854061846192,-0.589840346271689,2.0705796650259987,2.205414690848365,-0.5736448082472906,-1.8905420591955875,1.905185870208943,-0.7933570356693725,-0.3799474249873815,1.1275349057212696,-0.26105360809976963,-0.21857582388080896,-0.7434338792335116,-0.3790049005876764,-0.8486534041142746,0.6416964081874927,-0.6777040497469264,-0.33357123245335796,-0.8164879642272818,0.8357971877518777,-0.36587606713264603,-0.4456273859479209,-0.4306288478117309,-0.6653433479657073,undefined,1495052337546
903d185fccf839df,0.004076748958709945,-0.5546194463844057,2.11268837858681,2.2541010400399104,-0.5900607796404049,-1.8346938901106562,1.8724132353519862,-0.9380901880204261,-0.4131881604732716,1.1646307960807445,-0.2648508023958608,0.12123279708086093,-0.6433405748663101,-0.4197415878270039,-0.8528639318796957,0.6356344450949175,-0.7613718403276992,-0.425227926013882,-0.8328395114479394,0.7768365451325637,-0.4215884523565491,-0.47308925616811465,-0.502645825289186,-0.6274080575519274,undefined,1495052339010
903d185fccf839df,-0.32025063886705396,-0.571055895559797,1.5269939453307164,1.3939125137164818,-0.7744833265758951,-1.7933056388621458,1.8355933193466953,-1.1771894475951237,-0.4020574764017792,0.43724563786816323,-0.20452733350562555,0.01907601658662905,-0.28213430258467026,-0.4243707644842033,-0.8570744817318181,0.5527896135367102,-0.7356025820686437,-0.44061698040676756,-0.85674061644229,0.5227621949053535,-0.47660181488853665,-0.48023807729974205,-0.5342294780687681,-0.5236889359552802,undefined,1495052340488
903d185fccf839df,-0.0763120223378037,-0.525268667250344,1.4363966642307686,1.4150027360405455,-0.6457886795651008,-1.8085551685438033,1.9115263373587725,-0.6491887178629305,-0.4733192323491427,0.8128650461229812,-0.21946075089376943,0.04939989308545573,-0.6607481060606061,-0.4419615813883081,-0.8939166088820446,0.6275520066480534,-0.7042025845745519,-0.4487864776454065,-0.858384865585268,0.5618126522878899,-0.47105321772380115,-0.49413528838086834,-0.5760052174404158,-0.5170115463618421,undefined,1495052341987
903d185fccf839df,-0.022257469201979616,-0.5129413230618026,1.3298487316372107,1.4710096981714678,-0.616145299519927,-1.8598007613455945,1.9728297403709558,-0.3111954063600363,-0.5007917486293808,0.8951179508561773,-0.15074934996782813,-0.0726150502757337,-0.7434338792335116,-0.4354807418386936,-0.8907587038551865,0.5366246518488176,-0.7536896663750169,-0.45931182892989886,-0.8885691081170966,0.4614917775128714,-0.4994291118017038,-0.4654185599840211,-0.6709688832101783,-0.47784566112639015,undefined,1495052343496
903d185fccf839df,0.15515233648586588,-0.4794814535548873,2.168833838275124,2.1635074224302744,-0.6781063409282996,-1.8957316057676286,1.949237748881826,-0.4998901313468875,-0.4583428115703591,0.7806124304762406,-0.13881966261144418,-0.01709792092808878,-0.7260263480392157,-0.44936822000719373,-0.8739166001557361,0.3628524654913744,-0.7984623963410851,-0.48734143617881914,-0.889884508072547,0.3808347222307198,-0.5255318759395807,-0.4824760788872725,-0.6944588611897586,-0.5148644100299538,undefined,1495052344993
903d185fccf839df,-0.04997773516629466,-0.43075915025482747,1.8032530079275244,1.9114054514412875,-0.8106889798812342,-1.8890816261783558,1.9277443520794255,-0.6514306437224449,-0.5030877700486364,0.43984922673581606,-0.23329940101820587,0.008691657849569873,-0.7129706996434938,-0.4327032280739092,-0.880232380760517,0.2800075491390025,-0.715500350838552,-0.47216770281773474,-0.8929561079862376,0.28020588165656873,-0.5407766299008592,-0.47341420714674703,-0.6150894293186653,-0.5080581070848225,undefined,1495052346490
903d185fccf839df,-0.009783384023447578,-0.4888736935248295,1.7043612050722956,1.8095330108897736,-0.7716753421472224,-1.8824130130803458,1.8854044707475284,-0.9370663926010727,-0.4756749721008119,0.41936555853559326,-0.23593312566650582,-0.09488347465172667,-0.673803754456328,-0.4465907709962821,-0.8886534583780604,0.3082960978353873,-0.7604416215929555,-0.5151747219633471,-0.8751002465494356,0.382944309472258,-0.5374503640124795,-0.47621555939114685,-0.6220512265082222,-0.5568196876290106,undefined,1495052348036
903d185fccf839df,-0.19689531730421309,-0.571642881329926,1.4255503533663274,1.5371619847825106,-0.7007657444074066,-1.896954452847409,1.905667117433899,-0.8311884623171415,-0.4258486060380687,0.40168069833535996,-0.13869264199403966,0.048572662502153266,-0.7303782308377896,-0.49843742263932533,-0.851811294416665,0.25171911350150383,-0.7991251040047328,-0.5569404856209437,-0.8659134341925627,0.30080900057325316,-0.5724934515111573,-0.4568229672901006,-0.5922554936792316,-0.5436111515946309,undefined,1495052349586
903d185fccf839df,-0.4131136333637386,-0.5651857163505908,1.1556711447478447,1.2585974367708102,-0.7711096252431779,-1.8889441998744019,1.9614505629758896,-0.4909920859666378,-0.42033574025851383,0.1660890479240399,-0.02835248667989733,-0.08969715957679035,-0.8870460115864528,-0.5363966738185156,-0.854969199443523,0.11027642654902287,-0.808102028366167,-0.58187961737958,-0.8504015049071636,0.2257877740223875,-0.5943673516216744,-0.4521938937821425,-0.5726168446298248,-0.5335601185301467,undefined,1495052351007
903d185fccf839df,-0.37014722111905024,-0.5317258614576716,1.159499717890908,1.2284258500824845,-0.7882764527481598,-1.892601106297223,1.9234314529248495,-0.7480688381652534,-0.40757313850495647,0.27889046581886084,-0.053795844199034784,0.02202680670789113,-0.9305648395721926,-0.5752816852146535,-0.8560218295443198,0.05167885380196455,-0.8528784856471903,-0.6464439775947778,-0.8460494884562316,0.15575564581546508,-0.6326637615785261,-0.4792072622260655,-0.5826823255842006,-0.5333693235914123,undefined,1495052352475
903d185fccf839df,-0.21629957249005308,-0.5193985172691302,1.4727628992824089,1.5097406218596316,-0.7897370170744105,-1.9297315099742705,1.9210067835590638,-0.8056266859337211,-0.49401322281244753,0.6118489121965351,-0.028352807476272644,-0.08978845770466796,-0.7303782308377896,-0.739154265618171,-0.8581270971081473,-0.004898130531918921,-0.9187809068706331,-0.7598543343426063,-0.8412006987022062,0.07046365647502158,-0.7001761623821675,-0.483758413073075,-0.5987517111880495,-0.5128076658463095,undefined,1495052354010
903d185fccf839df,-0.030573583496683862,-0.548162237563082,1.3713190531810704,1.5600028575530644,-0.6043270443715264,-1.9541349492466336,1.964598456053505,-0.5022724631148394,-0.49479073142395774,0.6182562533864538,-0.01267000725387442,-0.03243737508666015,-0.5301916221033868,-0.7660034617382238,-0.8739165927935023,-0.08370184179321957,-0.9418947350887259,-0.7986499471331361,-0.8346376896166351,0.11086917564328881,-0.707495655467791,-0.46833321063949274,-0.6566998260625021,-0.5101706808186713,undefined,1495052355525
903d185fccf839df,-0.08324212333429219,-0.7230929115992019,1.31134629103444,1.3648979673070023,-0.5464494287504842,-1.9704023567016158,1.954731426125253,-0.5901690096395981,-0.42763402293231983,0.45465872797438195,0.02433899187126132,-0.050384512668230366,-0.3909313725490196,-0.7345251083871334,-0.8760218456328621,-0.09784610200905121,-0.9475105044625942,-0.7705506763189178,-0.8364568604506882,0.1279922456871777,-0.6950904236185903,-0.473380529558883,-0.6258474121727825,-0.5160779612048885,undefined,1495052357022
903d185fccf839df,-0.14561275625941078,-0.7477475269063039,1.0625220745387365,1.1142160317668472,-0.6405532661841905,-1.9170511333285145,1.8842000239037435,-1.0198320121338618,-0.3106006690692461,-0.03986731685676985,0.0577425779793824,0.044042398601244384,-0.669451871657754,-0.7706325930677123,-0.919179804923506,-0.06147514313052393,-0.9619337057037736,-0.7883842451054204,-0.8525495249960321,0.10347791958086543,-0.7109536054256037,-0.4678553668348329,-0.6631221562673092,-0.5132892280864851,undefined,1495052358492
903d185fccf839df,-0.09294421642180245,-0.7806203960290939,0.9534218445621192,0.9867183203326185,-0.7413942375807192,-1.9107715047360323,1.839614286747566,-1.3366025817713343,-0.300776570744243,0.07054306086699255,0.028789174988323066,0.052086085630554495,-0.678155637254902,-0.7919267746089708,-0.9202324350243029,-0.019042475541915165,-0.9596008044208818,-0.7987069440359459,-0.8503105458947531,0.2450974232254129,-0.6905760265712729,-0.45788781981753846,-0.6404565138205586,-0.5343478716361553,undefined,1495052360007
903d185fccf839df,-0.14422677746660476,-0.7753372610460014,1.2756174314519537,1.3537127294559057,-0.778546172939057,-1.9162219231394932,1.8007141836322698,-1.5866793662022165,-0.32628128811357116,0.32029840081377137,-0.059376587501212545,0.05120209088332698,-0.843527183600713,-0.802110978795739,-0.9149692918825526,-0.035207352435643186,-0.9558848266949517,-0.7850594503557996,-0.8739247830317329,0.24369616330318278,-0.6929888179977105,-0.46644234528484535,-0.5863334341497506,-0.5413120009506185,undefined,1495052361517
903d185fccf839df,0.08446565827686252,-0.6379756345736275,1.4466045830782583,1.516918868328257,-0.6614846592193598,-1.87782441358978,1.8656940555529562,-1.086667220904214,-0.4554964418420352,0.19377478060818842,0.008019876748252419,-0.03718295050793395,-0.8739903631907309,-0.809517649791561,-0.9360219380718917,0.12240012661640119,-0.9733585625236768,-0.7661619465830252,-0.8694608173376234,0.261281188999053,-0.6800368276680443,-0.47180956815347647,-0.6031815997962732,-0.5611970803059917,undefined,1495052363004
903d185fccf839df,-0.2856002719062504,-0.6215392146262286,1.4376721775799248,1.4757722385221734,-0.9171048035957912,-1.884122675822377,1.9535953290310006,-0.5720390286994913,-0.5056722296250905,0.05483366515276809,-0.04267651146754812,-0.03236719466859903,-0.9088054255793226,-0.8141468329241478,-0.9086534891910704,0.15270926372596083,-0.962267747249678,-0.7254981156512781,-0.8785706647626187,0.17936146119030583,-0.6772322064821635,-0.4515886886255831,-0.6130171482918526,-0.5716599478179608,undefined,1495052364486
903d185fccf839df,-0.49627456927832264,-0.6326925288185273,1.3202784423958243,1.3519756966237935,-1.0317286099841179,-1.8750479607664596,1.8896936849105825,-1.0275545276667273,-0.4564365555952459,-0.3932698955824889,-0.011031827033524375,-0.03880801198813869,-0.6955631684491979,-0.8391443272994619,-0.9012850563987912,0.09411169097890253,-0.9444709003685622,-0.7446236063210617,-0.8513600679605661,0.13102574057093005,-0.6890620606312519,-0.45309145625009306,-0.6236739803198788,-0.5400053765167997,undefined,1495052366002
903d185fccf839df,-0.3216366521652697,-0.640323694566113,1.1448250880203528,1.0736015655867737,-0.8766820071327599,-1.9328783130278606,1.8731811327257621,-1.1530528885929674,-0.4738501254056642,-0.24956927590120337,-0.06191822719448349,-0.030907090306406544,-0.8000083556149733,-0.781742628700688,-0.8349691686305132,0.07996737423362782,-0.9330357515175309,-0.7364667750971208,-0.8269202070177971,0.16140687583274443,-0.670904742055808,-0.4414065958142874,-0.6455384918698277,-0.5072073953358097,undefined,1495052367487
903d185fccf839df,-0.19273738092579504,-0.7078305070340496,0.8711185769435535,0.7675980637048624,-0.7363439522747317,-1.9509275875997438,1.9023825112394366,-0.939226049386638,-0.3956336705692847,-0.41014147595534933,-0.02168066154570536,-0.007155175549982775,-0.8000083556149733,-0.7919268005105199,-0.8339165385297164,0.10017351274787015,-0.9281788077363556,-0.7134148599729975,-0.8329164741226214,0.10119895517436212,-0.675718687137543,-0.4247446410113817,-0.6581829607651776,-0.5024761194426125,undefined,1495052368992
903d185fccf839df,-0.16917505133989805,-0.6808277586644811,0.9023809796399236,0.8298054251865593,-0.8467917715129636,-1.9469911734547531,1.886077702529265,-1.0671158820249633,-0.3936279131765163,-0.34149593443924814,0.0410644294530646,0.045395609822797486,-0.7956564728163993,-0.7548934390560225,-0.8086533719371901,0.2598014954189248,-0.8938412263517155,-0.72420619585532,-0.8505204510835591,0.35975425504578795,-0.631415864242721,-0.4118129799659688,-0.6802724482039307,-0.5424358393474176,undefined,1495052370501
903d185fccf839df,-0.3687611733154248,-0.5528583867760454,0.9840463635154366,0.9024397561062344,-1.020167485866711,-1.9006649343685347,1.8798450693679456,-1.0840368916186212,-0.3846382406917407,-0.4672805986918441,-0.06409873179756086,-0.008895764613419531,-0.8739903631907309,-0.7585967648408526,-0.8202323251326564,0.28606939917269164,-0.865990485990495,-0.7545346631817168,-0.8626039437979018,0.38342166390624316,-0.6481583498603919,-0.41265740193344685,-0.6357959775982411,-0.5168067924433203,undefined,1495052371987
903d185fccf839df,-0.590523577073223,-0.5041360980899817,1.2430790071325286,1.2374920585218199,-1.1900357769321848,-1.869087439318135,1.8616047263560531,-1.2175394823028975,-0.4254972748018669,-0.5420479502827616,-0.08817364746288692,0.03467093908024165,-0.7913045900178254,-0.7567451019484376,-0.8897060958410911,0.17897716747972772,-0.8436076177118397,-0.7878966105904877,-0.916836225129358,0.32689397152105076,-0.6896878335220892,-0.4219769045529147,-0.6402008858888704,-0.48931036004741757,undefined,1495052373563
903d185fccf839df,-0.535082907122954,-0.49298284235366774,1.2615811935983499,1.2706389114306138,-1.1022473512724815,-1.8277364550363604,1.847306472877709,-1.2536076150382833,-0.5028728170817774,-0.5312304952225195,-0.06309288458399784,0.07044760295626962,-0.7826008244206774,-0.7382284212211889,-0.9560219615226677,0.10421468957421985,-0.8464722375605607,-0.7856040842318218,-0.9447045219641894,0.18435056187669105,-0.7272946708862085,-0.4235133540368632,-0.6352003985212631,-0.5087022393174409,undefined,1495052374995
903d185fccf839df,-0.6348759681107173,-0.5540324606142767,1.082937912233716,1.099698205314311,-1.1751832256533976,-1.823713859469325,1.8380548064847322,-1.3409041527836436,-0.46654280363900574,-0.5393316063532076,0.015612759639939194,0.00512866760552484,-0.6563962232620321,-0.7715584309893071,-0.9391798357365159,-0.03318667922830373,-0.9180039002057938,-0.8164581860440056,-0.9549058730114857,0.08310578293273392,-0.7646959904700125,-0.4341750501340273,-0.6166694659744365,-0.5298229883667748,undefined,1495052376505
903d185fccf839df,-0.5614171597890533,-0.5188114438150241,0.7409641172550053,0.7224160017932663,-1.1406129952604154,-1.8098595426716115,1.8588407908692601,-1.1711264168183695,-0.4463111247049987,-0.46024094082473566,0.03923423831782169,-0.03988388215465853,-0.6302849264705882,-0.7400800905889912,-0.9897062130949713,-0.2029177311564795,-1.0143662669819704,-0.7999798673041248,-0.9537723888236608,-0.1690283639086709,-0.8041448466892723,-0.4488277814734849,-0.6691060746587173,-0.565639483829333,undefined,1495052377994
903d185fccf839df,-0.7235809572181644,-0.5105932338413247,0.7020453306833564,0.6623620004460803,-1.2388414025419372,-1.8004470861826882,1.8580939193529324,-1.1976011095788408,-0.3228373764506054,-0.6064267656523749,0.07050310635311977,-0.16813122794077462,-0.5563029188948306,-0.7437834357999831,-0.9718114645702565,-0.5039883159858505,-1.0966007487930491,-0.791740707314078,-0.935748604182735,-0.4877761835294305,-0.8574403783521786,-0.43798058159606196,-0.6588723883555733,-0.5647370396132032,undefined,1495052379501
903d185fccf839df,-0.6709124173805562,-0.5657727898046968,0.8239052686166237,0.8267799747446978,-1.1504049821539004,-1.8021707222443932,1.8933149132810443,-0.9483698294808792,-0.3516447212873057,-0.4733897230462754,0.05921078750389054,-0.023679337338707092,-0.6999150512477719,-0.7382284471227379,-1.001285158928204,-0.5403592748643777,-1.0854441898009333,-0.7778082312681089,-0.9420177466181308,-0.4775670153697635,-0.8526876094404336,-0.43572635530180637,-0.6629721900009317,-0.5705897349234911,undefined,1495052380993
903d185fccf839df,-0.6459640399910337,-0.5481623106330629,1.051037625794293,0.9560759879186809,-1.149715839169989,-1.8234087262491787,1.9227214028470994,-0.7849022599392722,-0.3743426918110644,-0.5439658092545406,0.06308691675964387,-0.10231436355272426,-0.673803754456328,-0.7456350922170109,-1.0023377963912345,-0.5504622734596951,-1.0811944638214086,-0.7687647874919366,-0.9394988945924199,-0.504699077538502,-0.8535674503267815,-0.4397339841441691,-0.6703465245653256,-0.5652375922105327,undefined,1495052382489
903d185fccf839df,-0.5849794548695405,-0.5716428521019337,0.9081229498751959,1.022421161746706,-1.1056004890791713,-1.784270519924748,1.9027638028872937,-0.8461632663477938,-0.42831055060436285,-0.25498228333349443,0.0015392433237077488,-0.027440278552917696,-0.7956564728163993,-0.7215634292879043,-0.9391798357365159,-0.5585446553771161,-1.0679488480405834,-0.7586384095441135,-0.9212652058025886,-0.49606054969698454,-0.8381115234784147,-0.4349113734612501,-0.6720248816857237,-0.5440194912578882,undefined,1495052383995
903d185fccf839df,-0.8802005979381834,-0.6667394279375601,0.7173578442969645,0.7798994148952204,-1.2660470735392935,-1.6732310277389257,1.8740068889183035,-0.9144331343727473,-0.4659929682090138,-0.32643589263313044,0.05259435897673506,-0.0037535006149800295,-0.7651932932263815,-0.7623000906256827,-0.9539166792343727,-0.5565241234933842,-1.0277510382754083,-0.7929692970365454,-0.968038886250142,-0.5220223288001974,-0.8778354530302684,-0.43216091949102947,-0.6610141641380065,-0.5201571146124774,undefined,1495052385531
903d185fccf839df,-0.6639822818786579,-0.5698818947915465,0.5125559925912305,0.5963816833444688,-1.2769601997435376,-1.5817315229417275,1.8456076187926724,-0.9511513061599949,-0.4466587410985276,-0.3510131062002415,0.08993247221756653,-0.07619256423665074,-0.9175091911764707,-0.8169243207873831,-0.9665483067040386,-0.5686477670313195,-1.025580551201054,-0.8446587826614821,-0.9843204650989993,-0.5548056197880701,-0.9144271860198779,-0.4204507220880693,-0.6448976227988454,-0.5122892899948598,undefined,1495052387001
903d185fccf839df,-0.9176229569900087,-0.5781000463092613,0.5827371818592495,0.6684155083351596,-1.3436629441557766,-1.5262863130111777,1.8254028277825016,-1.019159800533245,-0.3246550670609503,-0.455878636668751,0.20498047894406923,0.008773032617870383,-0.9349167223707665,-0.791000936687376,-0.9739166990040319,-0.512070726167993,-0.9824890990489645,-0.840384046016979,-0.993850121256117,-0.49137942378909205,-0.9073002231166453,-0.43399016139417196,-0.632669485973324,-0.48233131682283653,undefined,1495052388497
903d185fccf839df,-0.742985143393185,-0.5757520447727604,0.528506135810942,0.5842486108511586,-1.224153431002002,-1.5838488018034678,1.8784565341866624,-0.7390401432920937,-0.3585747572803466,-0.4258555988278142,0.15387439167988354,0.09859656914875824,-0.5867660984848485,-0.816924294885834,-0.9739166916417981,-0.44741127512252393,-1.0073047997071705,-0.8719854347512351,-0.9970546602277921,-0.49162579657379074,-0.9224541366798834,-0.4393263265991379,-0.6178695435217646,-0.46830246746727394,undefined,1495052389987
903d185fccf839df,-0.6210158696339696,-0.4876996781425829,0.7524483118624993,0.8964051350825333,-1.1504461272006425,-1.6901436336173439,1.8743619150047,-0.9127596958181299,-0.42168290826158705,-0.2603317579882651,0.09946668367131402,-0.031866009525239575,-0.8304715352049912,-0.8169243013612213,-0.9991798913643765,-0.4211433855011178,-0.9929867519816771,-0.8875328119664588,-1.01371406738394,-0.4749030851960682,-0.9298748991632007,-0.4401116935969722,-0.6177216212178579,-0.45698795802132136,undefined,1495052391491
903d185fccf839df,-0.6958606222430299,-0.5170503695926676,0.44556498444932346,0.45195500386336246,-1.2321968435254174,-1.7457845012640285,1.9083232231222682,-0.8046091069784185,-0.4520139594174279,-0.33150037573703545,0.03872517249905743,0.00884742204072591,-0.7564895276292335,-0.8076659674729841,-1.0276009813893454,-0.44539067257698833,-0.9670618663406337,-0.8889450591318205,-1.0318637948836795,-0.5130142370832859,-0.9427506121590076,-0.4495984248004411,-0.6392629833242938,-0.4831781666896672,undefined,1495052393019
903d185fccf839df,-0.7346690290984808,-0.49415684312191815,0.24331517598969926,0.2367344658525598,-1.3071487157902024,-1.7908086961307763,1.9403042939455595,-0.6668902192131848,-0.41476935107991014,-0.40711531091837183,0.04371714206980923,0.11533811409991519,-0.499728442513369,-0.8159984699150137,-1.0054957014180925,-0.4393288790727422,-0.9820934472429481,-0.8876531384942893,-1.0249019684161753,-0.49088667232320304,-0.9335701971810021,-0.44532410985223336,-0.6481622669899608,-0.4793247216170118,undefined,1495052395309
903d185fccf839df,-0.7665474039682625,-0.5422921314238566,0.1565457056219667,0.1322439382482418,-1.3390858049346057,-1.815743202832743,1.9301506128209658,-0.7686441498398531,-0.3611492849887314,-0.46294341309913306,0.06528639025416214,0.15264002576561728,0.3445368204099822,-0.8076659609975969,-0.9939167371792755,-0.36456634463779125,-0.9819395173684786,-0.878977005711629,-1.0141058889704289,-0.4505889394459749,-0.9174990116557215,-0.4465347582018735,-0.6599113442961272,-0.4889774524426188,undefined,1495052395999
903d185fccf839df,-0.844164234931869,-0.6256483196130783,0.23757320575442695,0.3173225626883713,-1.4188308162524201,-1.8686099448259006,1.953508559658244,-0.7047779952105271,-0.25868107053092926,-0.5762034744104984,0.0545734569063487,0.09981404411833053,0.47944518716577544,-0.8011851473495315,-0.9907588431957681,-0.15846437622817053,-0.9274213405410944,-0.8659564733448112,-0.9986219466716197,-0.2908762624828147,-0.8753395445441903,-0.43574599892635796,-0.6406682853411487,-0.46074885443684926,undefined,1495052397521
903d185fccf839df,-0.8413921565773229,-0.6039287354545947,0.25926531920941065,0.33122087811243284,-1.3751680333663925,-1.9076293595221108,1.9497426779557379,-0.7656079044374903,-0.2730018205469267,-0.5534911307159138,0.07201622104666763,0.18931686969700484,-0.4083389037433155,-0.8261826676263947,-0.9949693635989554,-0.0271248150622538,-0.8804331574333755,-0.8647342154808344,-0.9823193771454501,-0.16485538624278742,-0.8425379309733354,-0.43529023281804335,-0.6296423219414682,-0.4692933274255112,undefined,1495052399051
903d185fccf839df,-0.916236943691793,-0.7401163611587183,-0.05336023257598686,-0.05029304657816788,-1.3832834507123648,-1.94850750671279,1.9460872364759652,-0.8418904540009786,-0.27558338480065914,-0.5752496551470058,0.08651753256583265,-0.031366060608676485,-0.8217677696078431,-0.8400701781718312,-0.9949693635989554,0.16281221992419587,-0.7448420021904413,-0.8910665953025035,-0.9956622953588152,0.12905474177508652,-0.7863022949530053,-0.43834317617947377,-0.6781742899111065,-0.4879334771085053,undefined,1495052400492
903d185fccf839df,-0.8912887215766143,-0.9173950659593313,-0.6945619876403922,-0.7248846142722362,-1.5005301108637663,-1.9711663459998896,1.9546025505664681,-0.8348260488068904,-0.31201794864544313,-0.5528740981584485,0.08009664871821903,-0.04324813686497519,-0.7869527072192514,-0.9196918768072966,-1.001285158928204,0.04561703203299692,-0.7630409670879096,-0.9361571541692644,-1.0350123596252576,0.07335856456894344,-0.8314978562658305,-0.4282003774394065,-0.6291667863618818,-0.46119895834025953,undefined,1495052402004
903d185fccf839df,-0.9605894037401068,-0.9714005042424836,-0.7092358551000992,-0.759548598642637,-1.5393174725893606,-2.005035813857728,1.9592809850698387,-0.8448820438989718,-0.3009276850039693,-0.5988285336966341,0.08141369276268799,0.07182058026044118,-0.8261196524064172,-0.913211037257682,-1.0181272957577063,0.19110076862058067,-0.7494225588198612,-0.9313694488986458,-1.0332071822600313,0.07451344792356575,-0.8276998912105663,-0.4317076480959758,-0.6326495787399983,-0.47002784024140887,undefined,1495052403497
903d185fccf839df,-0.9633614303365383,-0.9138729759706029,-0.3864021303302626,-0.47402971032527536,-1.476101577366614,-1.9683106991691035,1.927857434675884,-0.9906645045924485,-0.2990661864818324,-0.6786639006088631,0.09889565337718378,0.06079670541529706,-0.5911179812834225,-0.8734001749891748,-1.030758893778437,0.3183990257689008,-0.6186932937312327,-0.8968169091249553,-1.0359219452349715,0.2098657844599467,-0.7859093999483961,-0.43199042888496736,-0.5967430587730687,-0.4575548922436831,undefined,1495052405001
903d185fccf839df,-0.5336969283301479,-0.7465735261380535,0.5540265682720398,0.5942627570571666,-1.0988119269492391,-1.9572444840804173,1.9077210070330286,-1.0091194410278426,-0.25631895964624163,-0.7361836247463713,0.09952869802875051,0.014237791693460946,-0.5780623328877006,-0.855809332183521,-1.0623378851491472,0.06380249733989979,-0.7692036479601643,-0.8876214749330655,-1.0440662335297353,0.1403879987947743,-0.8007515603573359,-0.4474071898379357,-0.6018941966188389,-0.45640001386241047,undefined,1495052406501
903d185fccf839df,-0.6182438430375381,-0.6902199986344233,1.155033261004792,1.1539450040273869,-0.9694487152103977,-1.9236754881410285,1.918445344510255,-0.8744372359393119,-0.33150419313982354,-0.6404712019223147,0.10689653950444443,-0.047646344515018084,-0.6650999888591801,-0.8354409885638572,-1.0097062291835135,-0.12613463657307525,-0.8732196530104402,-0.8682933312116953,-1.0217883879430776,-0.12334117472137335,-0.8503277547369067,-0.4364172020520811,-0.55824221381479,-0.4152071740304889,undefined,1495052407999
903d185fccf839df,-0.4810283539871299,-0.5757520155447681,1.3713193073180199,1.4461033926156581,-0.884776858386036,-1.88787042382097,1.9053331297752114,-0.8481478948769953,-0.41072486861947216,-0.7640454154526191,0.0011997752884268108,-0.08699653657603326,-0.6259330436720143,-0.8289601231126936,-0.938127205635719,0.03551400517295806,-0.8847059545486564,-0.801670764234905,-0.9711664615989907,-0.0020168225519762582,-0.7816074922511791,-0.45304100471980646,-0.5452297662501013,-0.45743083510806415,undefined,1495052409495
903d185fccf839df,-0.5309248672283068,-0.5440531179622361,1.2654092584675145,1.39723790356122,-1.0410371630252082,-1.8905047928340952,1.9321282176929748,-0.7107374397072316,-0.4529973614334559,-0.6980358540475226,-0.025976540645136194,-0.028368788120122453,-0.7477857620320856,-0.8039626416881541,-0.8791797727464216,0.02743156672609405,-0.8643339295287504,-0.7761426682270447,-0.925400321948264,0.0730198027539688,-0.7333920994957441,-0.4848944026919076,-0.5646890572968954,-0.45616201232450926,undefined,1495052411051
903d185fccf839df,-0.4380619417424416,-0.5235075930279876,1.3266582963741493,1.2846077455037725,-1.0351434609927832,-1.8773562373845025,1.9802826028631675,-0.35896105961788644,-0.45546066016395165,-0.6974505968130522,-0.09942685764185681,-0.032902817614842365,-0.8696384803921569,-0.7623001100518445,-0.8591797124844766,0.07592619740727811,-0.7994354496292488,-0.7396332473123101,-0.9063759930461205,0.2592640009249099,-0.6762124243820263,-0.5117437601458684,-0.5759672014180967,-0.48055596901286013,undefined,1495052412493
903d185fccf839df,-0.5156786864425237,-0.5334868479960512,1.0682635365001099,1.0680298208306183,-1.0465605894947307,-1.8771023491685823,1.9223663956160955,-0.7639288875523906,-0.43585508112574783,-0.3012812340486519,-0.05844414049998361,0.03288162236320845,-0.9175091911764707,-0.7845201230393106,-0.8707586730421767,0.007225597800180936,-0.903387152720815,-0.7542116834140531,-0.9257221747959286,0.16853635721867158,-0.7049156810219799,-0.5056254587149879,-0.5634125915230208,-0.4893164926303105,undefined,1495052414012
903d185fccf839df,-0.557259119894406,-0.5921884208781707,0.6510042116242114,0.6601665889238965,-0.845362073464221,-1.9265777185955182,1.978596907746906,-0.42851486535744754,-0.3934569555196602,-0.23603190124489395,-0.05418884883127058,0.05978327107094069,-0.9392686051693405,-0.7706325930677123,-0.9181271527360079,0.08804981268049182,-0.9232662099590044,-0.7688154507755958,-0.9456001142457691,0.18475092044862113,-0.7096951779442839,-0.5163498628953604,-0.563312762944619,-0.49496713780576806,undefined,1495052415492
903d185fccf839df,-0.3632171546279715,-0.5417050871977429,0.4672570979043072,0.5196198486036566,-0.8838614359748169,-1.907666625075404,1.9626050440776255,-0.5352343581700324,-0.4443526196922742,-0.1399487286563781,-0.00017039321101417214,-0.022222707527738587,-0.9566761363636364,-0.7669292608074949,-0.9191798270102074,0.0920910460362846,-0.9070731430361308,-0.7664089314196635,-0.9484408191191445,0.23054589603465642,-0.699877784831831,-0.5146147829196535,-0.5704570584960165,-0.5041069846359522,undefined,1495052416992
903d185fccf839df,-0.38123529299936654,-0.5563804767647738,0.4315284924587703,0.46140532895885655,-0.9728944280574147,-1.9220566648283304,1.9724142235672866,-0.5166090344923524,-0.44240867799943384,-0.2640235828080826,0.031742188504601414,-0.030260190138381028,-0.9436204879679144,-0.775261802101848,-0.9244429554274901,-0.015001157391957782,-0.9517246215687317,-0.7918420332612897,-0.9486437266529193,0.17452635190493537,-0.7215256682470409,-0.5102668931700697,-0.5963188746510972,-0.49425512113663395,undefined,1495052418810
903d185fccf839df,-0.20659744489713308,-0.5381829972090145,0.16866752983556405,0.1856143536790423,-0.9958109580103286,-1.882315185538773,1.9600988450430974,-0.5677341229731956,-0.5108546894886404,-0.2867448574520371,0.042459903145375684,-0.04131282649657566,-0.847879066399287,-0.7706326254446486,-0.9433903487774694,-0.10592856872063676,-0.9794820817796075,-0.7905564453515058,-0.9722999439455802,0.09203687869335435,-0.7460868805453417,-0.5071877917890233,-0.5864768429777865,-0.5250120404764409,undefined,1495052419998
903d185fccf839df,-0.34658499504938245,-0.47126322896719175,0.0984865947044945,0.12924890172868447,-1.134863298107863,-1.8579350392466167,1.9286279529491883,-0.7656510893240204,-0.5388774087098847,-0.4479965335023294,0.060850427573462366,-0.12050724432367983,-0.6825075200534759,-0.7882234617749152,-0.9802325127388648,-0.09986671868694759,-0.9784457432812365,-0.7923043379171993,-0.9895190958556381,0.17871472844705893,-0.7421950473151294,-0.48747082162302807,-0.5900968803234128,-0.5097820110934946,undefined,1495052421496
903d185fccf839df,-0.6043836928026757,-0.5845572405165889,0.03468500527785114,-0.016647289806068583,-1.2953921717312273,-1.8115342650001318,1.9008204016969,-0.9472223964278057,-0.4621819427767605,-0.5447965542379318,0.04764721650622639,-0.1782423663018103,-0.5780623328877006,-0.8308117989558832,-1.0118114893851071,-0.09582557012531942,-1.0152210439880855,-0.84379750346191,-1.004023485029321,0.01145681329599226,-0.8037906837343889,-0.47054520165848535,-0.5856985874712692,-0.4955544411670093,undefined,1495052423010
903d185fccf839df,-0.5226087529336025,-0.6274093938354348,0.031495078288688624,-0.046112962598166135,-1.2072437485636693,-1.8013508305760904,1.9139405053185736,-0.837489165353408,-0.4655282669884766,-0.6303339450704943,0.030414658777136772,-0.08454631866776505,-0.36482007575757575,-0.8419218281134717,-1.0370746854265687,-0.1604849929060669,-1.0157275679140496,-0.8886157459055696,-1.0157151556372253,0.015214034550303375,-0.8264093323376938,-0.4621747979743642,-0.6170336429425892,-0.488106272931151,undefined,1495052425232
903d185fccf839df,-0.6224018829321853,-0.564011686354348,-0.12098963273484546,-0.17957955060912814,-1.210123743920489,-1.8313793829731946,1.932951366603771,-0.74522376199118,-0.42558975824094947,-0.6465173742411888,0.034401860382346654,-0.16076768345094053,-0.7216744652406417,-0.8854360096914218,-1.047601015883472,-0.1422994993344425,-1.0234046261490712,-0.900907989372994,-1.0321156803443905,0.04850547481678272,-0.8278396089699165,-0.4600793712449202,-0.6147191979019295,-0.5004579920225682,undefined,1495052426099
903d185fccf839df,-0.14561275625941078,-0.734246181949512,-0.4878459764316011,-0.5002545786522904,-0.8448066393264512,-1.864967012550886,1.9046178358033612,-0.9315904544445928,-0.36046684105722504,-0.6087647361330626,0.05416562288031374,-0.08714080774374065,-0.8043602384135473,-0.8863618540884038,-1.0981273895608106,-0.06349575980842032,-1.006861369606113,-0.9313251178222878,-1.0641750679036668,0.1005830135197523,-0.8349721060199541,-0.4619682531645313,-0.6681449664652318,-0.538704455895054,undefined,1495052427493
903d185fccf839df,-0.09294428543262193,-0.8434310885120594,-0.6875437416451156,-0.6961339689917134,-0.46972841542677807,-1.9165084176737168,1.9000603764494057,-0.9487826060141086,-0.32296634470821173,-0.5797780363162276,0.051775996859540346,-0.01934680394385218,-0.8739903631907309,-0.9187660388857017,-1.1454958729357587,-0.05743399456889576,-1.0067355669026665,-0.9631418277322981,-1.0971860215708933,-0.026561951055265685,-0.8841549195560655,-0.4677671020013127,-0.662758458190334,-0.5526586851354919,undefined,1495052429022
903d185fccf839df,-0.156700966161366,-0.8716078376498784,-0.6569187144178994,-0.6800485439459045,-0.44666788185431994,-1.9541419369049406,1.9048729178353994,-0.9529903846251826,-0.258399743528008,-0.4583021507190632,0.06949908167846715,-0.006060796072417332,-0.7913045900178254,-0.9530218801000274,-1.1360221615363015,0.12442071502957604,-0.948139697778861,-0.9897528566771325,-1.0797779562137102,0.09975149715601969,-0.8617040162758035,-0.47662510825705995,-0.6662548618438757,-0.532432767026143,undefined,1495052430496
903d185fccf839df,-0.43944788602983786,-0.7735762160516373,-0.4374429952524582,-0.46062356878808264,-0.8211083995634382,-1.921150592911321,1.9304293772257208,-0.8148052630196712,-0.37847887053815915,-0.5828463807026742,0.04719021498895206,0.013689629936670398,-0.8391753008021391,-0.9122852025737809,-1.0833905313384862,0.4517593166716,-0.8251143025857355,-0.9626605228667263,-1.054715379775794,0.28899839337366984,-0.8027674978613517,-0.48082907074619613,-0.6423527956471983,-0.4574928947739547,undefined,1495052431995
903d185fccf839df,-0.6113137075356398,-0.6174300804113866,0.10295228917976249,0.07807182770927705,-1.1557124032661255,-1.8972386236235808,1.9524803028376325,-0.6848724079872491,-0.3965110155179335,-0.504729436302516,0.0030560452659638858,0.038927642419890995,-1.0045468471479502,-0.8030368102419465,-1.037074678064335,0.42953242015585363,-0.8791594450936667,-0.8889007278395322,-1.0378040876972363,0.4193308344598181,-0.7363969160504318,-0.48934168398978073,-0.6723361851837457,-0.4770983236097144,undefined,1495052433523
903d185fccf839df,-0.5184507130389552,-0.425476015271735,0.4857592843701284,0.43624447756194273,-1.2158940145596635,-1.8653490090519946,1.9792648788741936,-0.4616386077755684,-0.39887606087432853,-0.48729230521135675,-0.049256964638310016,-0.041153228368936284,-0.9827874331550802,-0.7919268005105199,-1.016022024512762,0.4073058628167657,-0.8736403004589063,-0.8612700947799278,-1.0110482826907254,0.34290835119075214,-0.7401991506091885,-0.5032711115540054,-0.6714835539199411,-0.4510719382540266,undefined,1495052434991
903d185fccf839df,-0.5891375292695975,-0.38908108538820896,0.5100039493451207,0.4043246321242151,-1.2847156113935225,-1.8627751983377019,1.9419190016524126,-0.7167304391622376,-0.38389003701691005,-0.44239815593625803,-0.0396791597242809,0.02591391326741101,-0.8870460115864528,-0.8280343110926479,-0.9844430331420521,0.3790173423851024,-0.8556421539094068,-0.8667164270567148,-0.97905886371123,0.2581707070441338,-0.7551072796243681,-0.4992746933530509,-0.6589110242035211,-0.4468917514518222,undefined,1495052436503
903d185fccf839df,-0.5711192528765635,-0.4119746703149431,0.10040075420755154,0.10634550793161575,-1.2083340234454019,-1.8584870688166668,1.947783466518908,-0.6751855996296275,-0.37176626075095515,-0.3418674124513877,-0.019042343514170966,0.012896891281800988,-0.9479723707664884,-0.7984076465355217,-0.9812851502018954,0.1870595776618702,-0.9037363417471327,-0.8351340373971042,-0.9895960613625194,0.4059341888735837,-0.7133299186060298,-0.4901049682675541,-0.6930591242053319,-0.46036145809543066,undefined,1495052438009
903d185fccf839df,-0.558645236708851,-0.48241648470350573,0.2401247407266379,0.21036872338132637,-1.0979890660648277,-1.8667721735549527,1.972182808195138,-0.5036214085040914,-0.3918106645454327,-0.28116906413641934,-0.0016907546360356827,-0.17990274403495993,-0.669451871657754,-0.7798909528574984,-1.0654957717704208,-0.03520726764147858,-0.9057474741488623,-0.822740466886208,-1.0263712995199636,0.20356781880502398,-0.7639671149780543,-0.48265300350239054,-0.6558145534115479,-0.48394053013821536,undefined,1495052439549
903d185fccf839df,-0.29946040488840797,-0.5481622521770781,0.41366418973600183,0.30220097354828424,-1.0033092251838178,-1.9085587254812206,1.9254932335056532,-0.8257301701201132,-0.4213545017570189,-0.30463936627779936,-0.016625986366661846,-0.10515457626316316,0.32277740641711233,-0.8021109723203518,-1.0581273389781416,-0.07157822652000585,-1.0002445869466965,-0.863011656539097,-1.018702795563758,0.1119932631570785,-0.7967431013480784,-0.47027572420999547,-0.6765479958465088,-0.5205685990128714,undefined,1495052440989
903d185fccf839df,-0.23708977196328937,-0.5775130605391322,0.9355572877024013,0.8806057809885642,-1.0131217825711452,-1.915318178754245,1.9561068012902392,-0.6040651695223884,-0.5226977816839954,-0.33050080436860474,-0.01152032068036344,-0.15885310198860625,-0.3125974821746881,-0.8048884925605234,-1.0381273228895993,-0.08774310341373388,-1.0012188034603535,-0.8463116836963943,-1.0154492788180733,0.10096797390202011,-0.7911694100690267,-0.4672416066071932,-0.6382040915702403,-0.5137830736369422,undefined,1495052442509
903d185fccf839df,-0.2634240246293887,-0.5211595768774905,0.5450946710476049,0.6490587918850087,-0.9885183973676788,-1.8717497595561412,1.9254301066997859,-0.7468633010763299,-0.5442662529596342,-0.3286330885739139,0.003927611416266715,0.01922418773209966,-0.5824142156862745,-0.7613742721302498,-1.0244430800436042,-0.15846440449289206,-1.0126987099946094,-0.782899917901682,-1.004709174324237,-0.040266566304315035,-0.7880835472553659,-0.4706856671200861,-0.6400642831853616,-0.5126374931672136,undefined,1495052444012
903d185fccf839df,-0.2634240246293887,-0.477720393946527,0.55147452502593,0.5925560546553689,-0.9310624920183526,-1.8491305170526038,1.8990321206763154,-0.8840552462093132,-0.5774212434987849,-0.36583473434361585,0.017006761700221338,0.18480359249980832,-0.3343568961675579,-0.7252667421219599,-0.986548315430347,-0.18877348507300865,-0.9979679108241806,-0.7320843774135023,-0.9734964010645506,-0.16082099524557375,-0.7794599517493745,-0.471115787856718,-0.622308069289051,-0.5235561234837621,undefined,1495052445484
903d185fccf839df,-0.24124784636334637,-0.510006277299188,0.5808232764931418,0.6592501551372543,-0.8859494227470927,-1.8131554165141643,1.8848153874390188,-0.9462851511875385,-0.5470185690890824,-0.2501700926683733,0.027119096501232065,0.05331377386470752,-0.21250417780748662,-0.7428575784522266,-0.9686535521811647,-0.14634069029315297,-0.9637642495713827,-0.7370874028466653,-0.9608531631681034,-0.15764891687025653,-0.7738277207785894,-0.46866607282587847,-0.6263037494970085,-0.5461111321187124,undefined,1495052447009
903d185fccf839df,-0.1830352188274653,-0.5094192038450819,0.6146377224356218,0.6739151170948245,-0.8745117297448638,-1.7884491749465838,1.9091305837845864,-0.7514292870672359,-0.577026254898239,-0.07793898703021182,0.0820008012660637,0.08473392444335637,-0.5693585672905526,-0.7104534130810904,-0.9718114572080228,-0.01904241901247209,-0.9141851311371976,-0.7236235641788167,-0.9375187983316153,0.017493004462891332,-0.726237219084926,-0.4446349955162354,-0.6296613972886483,-0.4913150597036021,undefined,1495052448489
903d185fccf839df,-0.39648152554326416,-0.590427419725795,0.9355577959763002,0.9827008490027516,-1.0340840319552367,-1.7925905633514205,1.8960052195084636,-0.8956537727110174,-0.5208454022514764,-0.008956757065040925,0.09580673466733063,0.01922570971442409,-0.6868594028520499,-0.6826783855148301,-0.9486535287303887,-0.15038190951658498,-0.9405712683415185,-0.730640466072347,-0.9268766482847273,-0.12488102039683588,-0.7517196699957982,-0.4522712372273176,-0.6443233147469302,-0.49939065824845913,undefined,1495052449995
903d185fccf839df,-0.3798492279430362,-0.5440531764182208,0.9770281175201599,1.0211170568994978,-1.0648999798663803,-1.8206299465500793,1.8996028011219492,-0.8917452801141362,-0.5254126129419991,0.11957879906247039,0.047327156414981975,-0.028968497379128665,-0.6825075200534759,-0.7086017372379008,-0.9486535066436873,-0.13219647247440364,-0.8924926581779383,-0.768815450321589,-0.9156257759668361,-0.13253404859137882,-0.771893889307063,-0.4367329566345906,-0.6161535814828076,-0.4808359233950023,undefined,1495052451489
903d185fccf839df,-0.3923234338905023,-0.43193316563707407,1.1952283233364451,1.1545449548251423,-0.9654167131090097,-1.8102974416641604,1.864792048153992,-1.0792203821587345,-0.45648878224626,0.05674865082947578,0.12266166566092084,0.07036577748416163,-0.5824142156862745,-0.7604484536348167,-0.9665482846173372,-0.09986671868694759,-0.8909895854368556,-0.8094856141637937,-0.9157517174860135,-0.09668646582886124,-0.7852014687508061,-0.4270724690693366,-0.5941107452330425,-0.4934122096438989,undefined,1495052453039
903d185fccf839df,-0.47964230618350445,-0.2928104357143512,1.1218566988053646,1.0546421901564886,-0.9054202428777773,-1.7900353880685091,1.9099510719900261,-0.7044179714276656,-0.5713456662729168,-0.13830425061783339,0.09715153639266336,-0.09758410637604376,-0.5127840909090909,-0.7604484342086549,-0.9507587815697485,-0.1907940593538227,-0.9335579247506457,-0.7834508830493087,-0.9328099424828744,-0.09887304516300781,-0.7848307520121368,-0.43577323431821063,-0.577418917528369,-0.4793346659828703,undefined,1495052454500
903d185fccf839df,-0.44776403482995186,-0.2851792991947579,1.0070147527304245,1.0556661089304364,-0.8734317275887913,-1.7712337688736317,1.8998368415837132,-0.7458483412280691,-0.583888441077853,-0.37476763608577524,0.08736243349398996,-0.053152961642532005,-0.5258397393048129,-0.7234150857049321,-0.9465482611665612,-0.26757719633430926,-0.9468637943218358,-0.7528627644286422,-0.9256941857845912,-0.2554290439060104,-0.7996900092566465,-0.4519497146261596,-0.587869093223726,-0.526979414466061,undefined,1495052456006
903d185fccf839df,-0.4685541997977784,-0.4401514340667582,0.8188011821244041,0.8819118290611849,-0.9620635791353183,-1.834889546870905,1.9138458198236208,-0.7564332001166746,-0.6050043280957202,-0.32059972201907466,-0.04896495267292075,-0.023981541119035974,-0.4692652629233512,-0.7354509333579535,-0.9623377494896824,-0.17058794910430192,-0.9627530381462266,-0.7446109392820804,-0.9321522423216373,-0.22264575332200728,-0.7921681677912987,-0.4655831300372025,-0.5935007144305442,-0.5203518988183026,undefined,1495052457493
903d185fccf839df,-0.4172717077637956,-0.5058971138563536,0.32179012460215084,0.3829320962061361,-0.980372123736801,-1.8657449799718193,1.975359613921788,-0.4263194138524634,-0.5200119458835896,-0.3875674036657125,-0.008334415955981223,0.030889763916467534,-0.6650999888591801,-0.7243409171511397,-0.9686535300944633,-0.0028775279863833022,-0.9118944222010041,-0.7276006524704822,-0.9546399927790138,-0.08487586336801095,-0.7651421642874254,-0.4550608447445515,-0.5884124688508408,-0.5115344303609217,undefined,1495052458996
903d185fccf839df,-0.5586451331926218,-0.4976789038826542,0.2918034893918862,0.22775309438975327,-1.1443261321133604,-1.8777382322112255,1.9615767893520573,-0.5736202657097959,-0.4543054199736052,-0.404033366382378,0.05601477959084563,0.12833323150906784,-0.4823209113190731,-0.7261925800435547,-0.9823377950271598,0.30021358872671944,-0.8829609918503846,-0.7234145766554329,-0.970207897524039,0.16976823025614873,-0.7128000198439864,-0.44962725278139676,-0.602454994422472,-0.5251122091134324,undefined,1495052460498
903d185fccf839df,-0.6501221143910907,-0.49709188888453276,0.23821108949747968,0.16195339394540992,-1.2182288672132464,-1.8634576671677028,1.9400886490140186,-0.7211246145560479,-0.45337978003394086,-0.39533309201963623,0.08880702000059017,0.07300191318937718,-0.499728442513369,-0.727118430915924,-0.990758850558002,0.31637847975280825,-0.8860185495177869,-0.7048590520627044,-0.970704670986176,0.21450071357757083,-0.6959782224017412,-0.4525968595100155,-0.6164467529793807,-0.5300276399149453,undefined,1495052462754
903d185fccf839df,-0.6182437740267186,-0.43604224139593145,0.20886284630416663,0.13948533514753242,-1.2532310947332845,-1.8103580002982325,1.9404515660820891,-0.65616646028777,-0.4837233781196764,-0.49144818859877937,0.12333061127677326,0.008647157910585089,-0.5737104500891266,-0.7308217696515287,-1.0107588666465441,0.2658632041290062,-0.8975444893383594,-0.7037317882431552,-0.983781710759368,0.22107584935234137,-0.6980972028296223,-0.4543470043375695,-0.6235397137555747,-0.5294716747213414,undefined,1495052463496
903d185fccf839df,-0.5378548992139758,-0.5528583429340569,0.21396642452248735,0.16198913515198815,-1.2167271569300167,-1.7757734567584245,1.8762474877544606,-1.0451324165453542,-0.390478244591911,-0.6405918055411549,0.053321441002826146,-0.03492632218941765,-0.3996351381461676,-0.7104534001303159,-1.017074654613559,0.4537797637611672,-0.8522503925098844,-0.7594426942437889,-0.9692983119816128,0.4147266978847605,-0.675759748593325,-0.4587075041148537,-0.6143525326736736,-0.451159361356018,undefined,1495052465014
903d185fccf839df,-0.5156787209479334,-0.6514769795304194,0.21269065703638187,0.24290489449008923,-1.2205328615734006,-1.7494507236583887,1.8753559880466106,-1.0246332771411046,-0.41975143237155704,-0.6635760295794471,0.10335593464126684,-0.11982118989338195,-0.16028158422459893,-0.7632259479734393,-1.0465483784204415,0.4436766521069637,-0.8662850520653664,-0.8008348154314127,-0.9993426181858005,0.43275828141989414,-0.6989962010190832,-0.4634222858218927,-0.6097006558191416,-0.43217378857408595,undefined,1495052466519
903d185fccf839df,-0.4990465268639347,-0.5540324021582921,0.3071162571424438,0.30026143646547,-1.2401374030354788,-1.7660162737550018,1.8652075560537262,-1.1164925409035373,-0.4087306751261243,-0.4977607392434078,0.02628014186127885,-0.08104083547452838,-0.7782489416221035,-0.7771134585188758,-1.0297062526342897,0.48004763925021254,-0.8361719010993832,-0.8220565089690499,-1.0135531413821848,0.4430290453403059,-0.7096113699971627,-0.4606656812801371,-0.599535658942783,-0.4219245122348495,undefined,1495052467988
903d185fccf839df,-0.7776354758485788,-0.35914324741403736,0.2726634191830123,0.2724842314004724,-1.3053692940495494,-1.7552761511338824,1.9262427259215091,-0.701307721786486,-0.47019667804155996,-0.4360678434940769,0.08444934093470993,-0.09297299252266647,-0.9871393159536542,-0.7576709398700323,-1.0539168185749543,0.3285022080849081,-0.8774761334926076,-0.836856597911255,-1.014364771376592,0.4305871012985456,-0.7201907461385718,-0.47336909814483036,-0.6004915460564385,-0.4249711685205929,undefined,1495052469491
903d185fccf839df,-0.7485291620806382,-0.35386014165893726,0.34731055706324865,0.25550499796464476,-1.3472629384733323,-1.6859277131042791,1.8651076266646731,-1.004486751604026,-0.4172812713357206,-0.5064569561590423,0.05278222816929665,-0.04696323057882986,-0.843527183600713,-0.7974817956631524,-1.028653615171259,0.17493593412393496,-0.8891869062851756,-0.8594398748655147,-1.0087253415041368,0.2248638718458709,-0.7700572467868061,-0.48916053865944403,-0.6221016852723531,-0.41117195008258767,undefined,1495052470989
903d185fccf839df,-0.6501221834019101,-0.37851471312405083,-0.06612044880653577,-0.05052589310337645,-1.2740699185256366,-1.715744303577341,1.8473380347093602,-1.1477262981179974,-0.4226087838943447,-0.6475028737505403,0.05034206468937886,-0.07477489813285178,-0.6215811608734403,-0.7715584504154689,-0.9476008691806567,0.500253890823341,-0.7780357570579456,-0.8492691673583798,-0.9381904918943916,0.9013021837674399,-0.5894269785027053,-0.4709000523812848,-0.5884004016322024,0.2510468801003952,undefined,1495052472491
903d185fccf839df,-0.48934443377642445,-0.47126325819518405,-0.13566350019455256,-0.1924373760738983,-1.179030074353266,-1.72467926584947,1.889451752419623,-0.8713568203828912,-0.3892293641495737,-0.7084150281650962,0.0507602243227869,0.0033225234987806604,-0.7913045900178254,-0.7984076206339725,-0.9760219923356775,0.5830987789109914,-0.7504671207243985,-0.8506307501659691,-0.9620076364795073,1.1409481881344141,-0.5337219213714514,-0.46267012473473446,-0.6539870763520944,0.1409562924399201,undefined,1495052473994
903d185fccf839df,-0.5433990559230679,-0.6332795438166486,-0.4010765060638686,-0.40551651862724963,-1.1912391964858624,-1.8126942280301648,1.898272118474301,-0.9331126496442416,-0.3212723945619073,-0.6435025892368998,0.0002530244676681434,-0.030493227679392696,-0.8217677696078431,-0.8687709918565881,-0.949706173555653,2.5855211446426347,-0.018885802014067636,-0.8868678538049559,-0.9287517936914327,2.1944636353082907,-0.2797340250277977,-0.4628587369166741,-0.6917169267853588,0.11279323710583289,undefined,1495052475475
903d185fccf839df,-0.39786752158877503,-0.6890459686381805,-0.32260104917751814,-0.3858920411617521,-1.1570083975260435,-1.8740114493983229,1.9269922309076275,-0.8464901698117777,-0.2552832122953227,-0.7138543040788528,0.04664465111807647,-0.03683764918178965,-0.669451871657754,-0.8808068395096096,-0.9265482303535514,2.2804093547221926,-0.11877943880921434,-0.8969245685473644,-0.9384213864881613,2.3655711603400746,-0.24304584054896325,-0.45841562863116664,-0.6884509900500428,0.06932782440565499,undefined,1495052477018
903d185fccf839df,-0.683386519811793,-0.6872849236438163,-0.19436049485507753,-0.2668451978592753,-1.3908022928728667,-1.84553882928258,1.9167070585623291,-0.9202390350840973,-0.27300990948061865,-0.6737768092751325,0.028867211276175125,-0.11151718880823959,-0.4213945521390374,-0.8872876920099986,-0.8897060663921559,2.1854407948318855,-0.12689834599120614,-0.8979125084420475,-0.9353707772823684,2.5308888673800656,-0.20095742026710173,-0.45178577160261324,-0.6859652952635404,0.03151822572222339,undefined,1495052478511
903d185fccf839df,-0.7069487631341657,-0.6638043237189608,-0.19372311938592363,-0.26366561847750414,-1.3969942821999493,-1.798220334150928,1.9150055584372405,-0.8758098340829333,-0.3091048442264962,-0.6224213515522252,0.012551876732776102,-0.05986850551078663,-0.678155637254902,-0.9270985478031185,-0.89917978147273,1.8682053613735077,-0.19766089391564876,-0.92599278087924,-0.9322711899722443,2.774861836748321,-0.15875552654172906,-0.4400048755191628,-0.6227975007485975,-0.015140331955085018,undefined,1495052480063
903d185fccf839df,-0.8219879358968926,-0.4448474663677523,-0.1369397759545569,-0.22026144962167682,-1.3985474232189574,-1.7557792661897298,1.9197602462420778,-0.7771676771775992,-0.34684342828175124,-0.5868509536346007,-0.024444929664109293,0.040983737238057795,-0.669451871657754,-0.9382085381083834,-1.0276009850704622,0.8397157968266419,-0.6104033778708243,-0.9351755489733817,-1.0034287556154387,2.3144791154145126,-0.2904410564395033,-0.45843878108444347,-0.71277197123126,-0.4045363391327605,undefined,1495052481502
903d185fccf839df,-0.8275320235951653,-0.46774110975047106,-0.29452857347031053,-0.322543901135683,-1.476759862949329,-1.7281894275024348,1.925067187536672,-0.7120214598383302,-0.3552181185973265,-0.6180105019849594,-0.03161927265836123,0.028319449724183383,-0.5563029188948306,-0.932653542955751,-1.0370746854265687,0.4517593166716,-0.693479503170464,-0.9217180433931639,-1.0055627831775078,2.0054477157857966,-0.3696320192196592,-0.4624796873198268,-0.722929905346951,-0.5495718553652457,undefined,1495052482991
903d185fccf839df,-0.9966258357572406,-0.4595228705487793,-0.26135201127088337,-0.3068729379687509,-1.515002083550098,-1.745057777395372,1.9290986882929417,-0.7155639592775269,-0.3368116919385841,-0.6425880023225679,-0.017329627347665296,0.08384491125654486,-0.9653799019607844,-0.8585868459483054,-1.0044430639550619,0.49621243134977594,-0.7084001608130035,-0.8850502995951878,-0.9974884648510975,1.5882730326569772,-0.4608114235582313,-0.45351800308515133,-0.653130294563759,-0.4751398515525996,undefined,1495052484483
903d185fccf839df,-1.0409782613001448,-0.4325201221792108,-0.19563677061508183,-0.1962976422668275,-1.500046679047902,-1.7740964021223387,1.9121417040366129,-0.8554889268131123,-0.3517882858080066,-0.637938811826869,-0.026300457963804064,-0.11560350546718477,-0.8609347147950089,-0.8761776887539592,-1.0307588753728527,0.7770771037826769,-0.6404354775166162,-0.9118893147449483,-0.9965648851302652,1.2954099991986967,-0.5419967429117626,-0.45674457663340007,-0.5990258132922761,-0.4152823511800163,undefined,1495052486002
903d185fccf839df,-1.0090999554411824,-0.4524786905713227,-0.16820268692482582,-0.268694502040089,-1.4908409789921586,-1.7495695139021605,1.9233183886600222,-0.7453331359977168,-0.35679376075262326,-0.6492365156755495,-0.025354589538705105,0.007877145058079908,-0.673803754456328,-0.8595126773945129,-1.019179936901854,1.3145588506606714,-0.49970092916608705,-0.8832517434856118,-1.0145956669552083,0.9893658958056668,-0.598269223033913,-0.46723239562623314,-0.6252925597367424,-0.3893473437796998,undefined,1495052487481
903d185fccf839df,-0.7734774532066364,-0.5282036545569739,-0.09610708401680039,-0.15118460250719126,-1.4615781720960226,-1.738722246888605,1.9207701106750321,-0.7490289034529669,-0.35274605817656496,-0.6407965023322327,-0.0430729747037931,0.019838552376118757,-0.6476924576648841,-0.8539576757664932,-1.0139167643111684,1.6701856900871432,-0.3754326320533105,-0.8815798466925169,-1.0016515667905361,1.3069588345488685,-0.5163271182106886,-0.47714218538063075,-0.6411403455966795,-0.2993349655483844,undefined,1495052489001
903d185fccf839df,-0.7360550251439916,-0.5417050579697505,-0.1496999921851058,-0.1754249172797211,-1.4269565157325028,-1.741622149743379,1.9271316089199177,-0.71191381362161,-0.35451740949549654,-0.6883624113822383,-0.023076587305421874,0.035034376730243684,-0.6041736296791445,-0.8595126773945129,-1.0202325522781832,1.577237831668897,-0.413451157817394,-0.8782930488630472,-1.0084104860362357,1.2224675631600244,-0.5381334925623547,-0.47731226985292485,-0.6361980646133844,-0.29932332191705746,undefined,1495052491426
903d185fccf839df,-0.6944745916921093,-0.582209151296111,-0.28495828422892416,-0.2996252881611985,-1.354061780586815,-1.7124088313307508,1.885804197731437,-0.9367466601055712,-0.33997286898429957,-0.7784714435197063,-0.015169519926919351,0.0058292773999123,-0.6172292780748664,-0.8474768297414914,-1.0023377963912345,1.2175695892983032,-0.47920703238163187,-0.8824094623253285,-0.9865664424853665,1.0266147334420481,-0.5826030639548092,-0.4892677446009513,-0.6205967205214629,-0.26155084873052725,undefined,1495052492015
903d185fccf839df,-0.6722983444152475,-0.6456068295492055,-0.266456097763103,-0.3618280935828742,-1.364172623218266,-1.7397773920182682,1.8973805988635368,-0.8963258014919246,-0.28544173204682605,-0.878881937057939,-0.02566031001764337,0.13820221522020137,-0.8304715352049912,-0.8178501522335906,-1.0381273265707163,0.5426866149413928,-0.7548696756126178,-0.8897176791407923,-1.0304504408238362,0.7283622441179545,-0.659671787538961,-0.5027014679014926,-0.6549970800576749,-0.3015923904219688,undefined,1495052493544
903d185fccf839df,-0.7623893295682055,-0.6150819911909087,-0.31813484642835127,-0.3909384539385228,-1.2547225220741935,-1.71890507950528,1.8910401390463605,-0.8979602167509059,-0.293865391755228,-0.8758213408305906,-0.01125672066098877,-0.06188619605104113,-0.7913045900178254,-0.8798810145387893,-1.024443087405838,0.807386212627515,-0.4967106009247437,-0.9099577665634604,-1.0138120230175984,1.020270570862234,-0.5942498382537101,-0.511844167699481,-0.7138968243026131,-0.20650618903370102,undefined,1495052494991
903d185fccf839df,-0.6639823163840677,-0.6051027946788298,-0.21477684082395576,-0.291038891282916,-1.2111728814614864,-1.700324740227388,1.8735466675507955,-0.9758033288018335,-0.33338466556987145,-0.7268082547397239,0.0033494799388578615,0.059451291302693075,-0.5519510360962567,-0.8539576628157186,-1.0023377890290006,0.6881703373966158,-0.651930989743757,-0.9053663816499012,-1.0059755948663052,1.0016076578891933,-0.5915252308608614,-0.5119693974615391,-0.7224078740787125,-0.27271646412117,undefined,1495052496488
903d185fccf839df,-0.47548433529967665,-0.6039287062266023,0.327532603111322,0.23705368794609868,-1.142166137903847,-1.7281265400318853,1.936680426867699,-0.5679853817353333,-0.4295895015957531,-0.6621400208433509,-0.006502266520625337,0.012404423570346006,-0.20815229500891266,-0.8585868459483054,-1.0044430713172958,0.39922345263462317,-0.636414739083854,-0.8849236391104701,-1.0039115358044948,1.1686653911628004,-0.5521396626774453,-0.5091107977754411,-0.7344961076151799,-0.2882862778397283,undefined,1495052498000
903d185fccf839df,-0.365989181224403,-0.5293777137812091,0.8105071686430221,0.890875462205393,-1.2030266060841537,-1.805760082353996,1.914413855276725,-0.8153575364163506,-0.4105551775222806,-0.6116989760579904,0.003916318440440303,0.12185996511400349,-0.23861547459893048,-0.8187759836797981,-1.0128641268481378,-0.06753704969365616,-0.9231705095812828,-0.8545191765983613,-1.011964865900417,0.5792590905073518,-0.6815375241889041,-0.5066525819297095,-0.7058978852068666,-0.35347520293961243,undefined,1495052499488
903d185fccf839df,-0.6556661675839537,-0.438390301388417,0.7639322523330438,0.7961485482140506,-1.2833681845533458,-1.7766678831104101,1.945350897791275,-0.5690775218594921,-0.461724364603163,-0.5057957845085063,-0.008220714503984247,0.005790864741321349,-0.8870460115864528,-0.8178501328074288,-0.996022001061986,0.1426061803364789,-0.9290118275224876,-0.8423789239895875,-1.0028060402120473,0.40533364888191226,-0.7063066701172973,-0.488051667237425,-0.7019454951527653,-0.4022121643522506,undefined,1495052501001
903d185fccf839df,-0.45746605890664266,-0.39906029651428404,0.7786068822035993,0.7953178097208643,-1.072552542037932,-1.7368565257627278,1.8993818861082632,-0.7344226710391104,-0.29546778390781375,-0.4603401153126416,-0.06448505663536575,-0.03962389596580995,-0.8565828319964349,-0.7326734325439437,-1.0202325449159493,-0.03924847273254981,-0.943512667811281,-0.7658896306471507,-0.991821047056142,-0.0981647177629257,-0.7881106326510938,-0.4638641314242677,-0.576343472932759,-0.48664731848776166,undefined,1495052502495
903d185fccf839df,-0.4477639658191324,-0.35738217319168086,0.8666523741943867,0.7639482218951675,-1.100755924627754,-1.694170889000602,1.8979749302562336,-0.6705932502356478,-0.35995569520809184,-0.40978231320397485,-0.1052076804550425,0.13167497612431317,-0.7826008244206774,-0.6724942007542237,-1.0244430947680718,-0.13825826597864974,-0.9039660345521698,-0.7387846320013564,-0.9977543423859456,-0.1268212273770776,-0.7864879600073502,-0.4596704320976202,-0.5677626813522408,-0.43674042369541394,undefined,1495052504031
903d185fccf839df,-0.03611763668954687,-0.301028674916043,0.559768538507312,0.40992018489156634,-0.9718247136969274,-1.7146891580621524,1.9057512659071265,-0.6359578946616548,-0.31130284167143124,-0.44475071628312607,-0.08983546999998905,0.13343236785556634,0.24879539884135474,-0.6095375134782047,-0.9644430244157436,-0.15442315700473852,-0.8199036042241887,-0.6800149155222688,-0.9518762535715631,-0.2041214233558883,-0.7556248503359094,-0.37602369506638383,-0.5523323674488997,-0.40377907819162323,undefined,1495052505488
903d185fccf839df,-0.42974586195314707,-0.41080065493269646,-0.03230600286405588,-0.1255113336771031,-1.1866106388661268,-1.7915656992516862,1.901861788155677,-0.8638274160882442,-0.410648779789518,-0.5038612693648892,-0.03447551421610155,0.11540855177281749,-0.2908380681818182,-0.6400900353830876,-0.8507586864025696,0.4679241087711634,-0.4638954329692605,-0.6988427567041985,-0.880319868582859,0.5267041974646329,-0.5726452170363995,-0.3884774801318831,-0.7442357971087243,-0.1870027001997697,undefined,1495052507008
903d185fccf839df,-0.5780494228838715,-0.2616986992699024,-0.37747023310582783,-0.3972104276573239,-1.1254415963117639,-1.689761637650353,1.8797109383923214,-0.8573062896498258,-0.35735627888257876,-0.7433480829556127,0.011036299931409435,0.09851886089390167,-0.5998217468805704,-0.6521258636099472,-0.8465481586371485,1.209487150851439,-0.2861412173892326,-0.7178289217327496,-0.8914238072606339,1.0786922722796406,-0.470428016722187,-0.381683575105304,-0.7653442985235172,-0.14540759153242502,undefined,1495052508488
903d185fccf839df,-0.8510942841702429,-0.286353358418993,-0.46551547095966583,-0.5482750987675798,-1.1927306266295012,-1.609791867707302,1.884631304339129,-0.7069235050073922,-0.4094716375513452,-0.6710568346730089,-0.032981713700582733,-0.06695761608311442,-0.7651932932263815,-0.7660034487874492,-0.823390208072813,1.2175695610335817,-0.352185528998411,-0.7755410369720593,-0.874057722952223,1.1425342255383168,-0.4789860823086493,-0.3699927133094073,-0.7513104775580132,-0.14341191848764182,undefined,1495052510008
903d185fccf839df,-0.8039697630200878,-0.41373567146731877,-0.3136691519530833,-0.39249721038625157,-1.3434160880310104,-1.478401813028197,1.8290161651712897,-0.8484348830939045,-0.4072138499186394,-0.49759058263768136,-0.12574574143927628,0.05745275592026693,-0.6520443404634582,-0.803962615786605,-0.8560218442687875,1.2923320389390895,-0.3089983540674008,-0.8026650349748691,-0.8697057069967729,1.065588193239354,-0.5065092195976681,-0.36417766565141335,-0.6998216520547775,-0.16296609736216086,undefined,1495052511495
903d185fccf839df,-0.6764564360680094,-0.40610453494772536,0.08253645148478309,0.011914523238056304,-1.2324642786122313,-1.5797120727278504,1.8542438891771982,-0.8057416091463654,-0.47736658314483105,-0.33143159671620587,-0.21121924030495604,-0.06951646867671532,-0.7913045900178254,-0.8187759707290235,-0.9402324658373127,1.1609926332291414,-0.49821622408325933,-0.8488511922285622,-0.9250854649755658,1.0903180951990852,-0.5453426686337259,-0.4545554369988288,-0.6522575828696116,-0.1090847249051864,undefined,1495052512997
903d185fccf839df,-0.49211646037285595,-0.4348682698556734,0.7282036468875069,0.5895189057170238,-1.1797397913159275,-1.637577363114073,1.846649016774189,-0.9174919016368195,-0.43522838211921056,-0.4610682171892572,-0.251572980866812,-0.0395115335410339,-0.6955631684491979,-0.828034336994197,-1.0381273228895993,0.3426464117712966,-0.8128868597953809,-0.8147166258184927,-0.9971386235365141,0.34945268747640423,-0.7203953726705505,-0.45628828583950226,-0.6554858518780723,-0.3272871312718372,undefined,1495052514544
903d185fccf839df,-0.3188646945796577,-0.45600086824402797,0.7065112792955738,0.6011142618696128,-1.0665868373575165,-1.6882639380233706,1.8634061412048897,-0.8731645471393638,-0.4158214742723989,-0.5085422948142609,-0.1878101069811011,-0.04547870640862114,-0.8087121212121212,-0.7761876076465065,-1.0497062908095334,0.019349100014508503,-0.8949500565944121,-0.7613045791589589,-1.0045972244571193,-0.02411359923897913,-0.7802430381643275,-0.43968733824784595,-0.6733773594702679,-0.46357587264836536,undefined,1495052516033
903d185fccf839df,-0.4352899496514198,-0.438390301388417,1.1256847636745293,1.0031036792588468,-1.0792279547326782,-1.7478621819129083,1.9056119067502282,-0.6919783138292184,-0.39106738016865705,-0.5414726560471181,-0.19754073020731436,0.025943560550344753,-0.9001016599821747,-0.7576709398700323,-1.0507589135480964,-0.16250555305452022,-0.9000801978650403,-0.7171449638155913,-1.019647364481574,-0.08030252776292583,-0.7746479476290071,-0.44701838216112005,-0.6774733834019844,-0.5091511882153824,undefined,1495052517493
903d185fccf839df,-0.43944798954606706,-0.48711257546048453,1.2953961478147287,1.166572038954967,-1.0531331379872086,-1.8132555747632133,1.902009076005033,-0.8117452885788138,-0.4367422442457887,-0.47854347949174914,-0.11369348702822817,0.0421868225689316,-0.8043602384135473,-0.7317475816715744,-1.0570747236018123,-0.012980540714061396,-0.8562605665017009,-0.6875384522068338,-1.0248459947916675,0.12183286701055764,-0.7237568739680532,-0.4345601587804588,-0.6811850044284223,-0.5244467966738393,undefined,1495052518995
903d185fccf839df,-0.6224018139213658,-0.4982659481087679,0.970648263541835,0.9383031114053832,-1.0217926203653218,-1.84630980715065,1.973466163808137,-0.4063866995337179,-0.4053293084277456,-0.49882504166467945,-0.05632105118477542,-0.030962509596600393,-0.9653799019607844,-0.7465609236632185,-1.0507588988236287,0.013287363039705487,-0.8326785862758073,-0.6865188481197471,-1.0352222649853413,0.12109374274650764,-0.7222117622841795,-0.42966789799148275,-0.6876304795917454,-0.517158267382606,undefined,1495052520485
903d185fccf839df,-0.5794354016766775,-0.47067615551308567,0.6433483360228315,0.5724326082810899,-1.0626268396105636,-1.818060793486996,1.9007388646955048,-0.8852207315866889,-0.4155843968000746,-0.5335185081907511,-0.0821263501567066,-0.20414731763653257,-0.31694936497326204,-0.6919367323538417,-1.0244430910869549,-0.16856743135293092,-0.8536226787924212,-0.6917371939978246,-1.0112232036477533,0.0009550718188362565,-0.7367705026090315,-0.4298957516280121,-0.6874203181834273,-0.5255527120784202,undefined,1495052521993
903d185fccf839df,-0.2301597054722106,-0.4765463931782766,0.4672570979043072,0.20682088544619595,-0.8009895682461333,-1.7130843105761762,1.9234893138386584,-0.507193618262721,-0.3401107662869527,-0.37127677151111754,-0.05945534623559281,-0.2694429462606962,0.6317610851158646,-0.5400999866525712,-0.9886535756319408,-0.14432010187997812,-0.6920565480714327,-0.5297784915561661,-0.9865454513859769,-0.006297595690193863,-0.6431842305866943,-0.38437850112777616,-0.6811214545693139,-0.5380596121692726,undefined,1495052523490
903d185fccf839df,-0.06799601155932865,-0.5510973563956775,0.5399905845553854,0.33745673526084874,-0.767900482147712,-1.6742372606466995,1.9402069865035567,-0.34935179242294095,-0.31925391865680347,-0.11708072188530717,-0.08137191215106457,-0.22874509928564715,-0.5824142156862745,-0.43177742900463806,-0.9097061045673995,-0.09582548533115481,-0.6463619262164481,-0.4723450249694051,-0.9127290963189453,-0.04536345306634214,-0.5965778693042832,-0.344736459361335,-0.6198025623837197,-0.4929923607032085,undefined,1495052524998
903d185fccf839df,-0.06522395045748741,-0.4331072248613092,0.6937510630650249,0.6940793007811754,-0.6321292806357697,-1.725610961100349,1.9298850073849854,-0.4584679118360148,-0.2822404636696429,-0.06946721212191892,-0.04381667511610175,-0.13410569517590978,-0.6172292780748664,-0.4252965894550236,-0.8991797520237949,-0.1847322799819374,-0.692431704711226,-0.48052085614278467,-0.886952844492614,-0.18699835600446138,-0.621239816796745,-0.3571914447636851,-0.5356399801369007,-0.4752534924797271,undefined,1495052526548
903d185fccf839df,-0.07908415245046439,-0.6473678745435697,0.8762221551618742,0.9427554335001433,-0.5998321904705969,-1.8156966167260018,1.9375614105042596,-0.5582314334782964,-0.3033095268115909,-0.06829395079339097,-0.06528875398895337,-0.22828893902870653,0.2749066956327986,-0.41881574990540904,-0.8960218690836382,-0.35244270109985604,-0.8124433827202326,-0.5066885797388949,-0.8802638931048816,-0.26015637030630623,-0.6466614234257152,-0.3605065142223291,-0.5359187097567777,-0.459326194813884,undefined,1495052527989
903d185fccf839df,0.0040766454424807416,-0.6643913679450746,1.1384449799050782,1.1720717698285892,-0.3001275500236635,-1.8638140395756695,1.9291302564097235,-0.6141095974298375,-0.38582394980071266,0.41244476711462397,-0.051281105799732024,-0.31685823845602323,0.46203765597147956,-0.39659574339333026,-0.8907587259418879,-0.3908342201268366,-0.7667143835517745,-0.49322474055613635,-0.8647659570252758,-0.2505015443652939,-0.6375964111108636,-0.3711146234567367,-0.5015923578319111,-0.4428278340380143,undefined,1495052529490
903d185fccf839df,-0.18164920552924954,-0.7137006277872711,1.634818153684279,1.624136388744468,-0.3721171485351913,-1.9027798824380826,1.9376771239517034,-0.6158972165048282,-0.40159516645343446,0.344470214072619,-0.11780232818790162,-0.38888690497249684,0.26620293003565065,-0.6521258700853345,-0.8897060884788572,-0.44741130338724544,-0.8854390473595765,-0.6570199961216454,-0.8786546266766507,-0.2559987890126735,-0.7283131384618348,-0.36801582558356627,-0.4696777594592185,-0.475168133392997,undefined,1495052531003
903d185fccf839df,-0.24679189955620937,-0.6949161478473868,1.6303522050720614,1.6158136850880047,-0.5807625110380253,-1.909786234048891,1.9164072557298648,-0.8094088900894691,-0.39951449007666523,0.1158838169941601,-0.055004679783027886,-0.3086312336543803,0.6970393270944742,-0.6836042363871995,-0.9223376731391951,-0.3564839061909273,-0.8854390473595765,-0.7283732736587638,-0.9183685251025633,-0.051938586673680724,-0.73954795701369,-0.40800142345520735,-0.4633174368922654,-0.5616808942128462,undefined,1495052533287
903d185fccf839df,-0.25372189703646864,-0.659695204118115,1.4076857965066096,1.4708630022239797,-0.6273772899843567,-1.9536551255677326,1.906484993119984,-0.9319024086282707,-0.3637167696182569,0.09369442600507467,0.00045837710948259323,-0.29664648328113363,0.5360196635472371,-0.7048984114530708,-0.9539166939588403,-0.25747414120954887,-0.920111390192504,-0.7770546109871093,-0.9449843933410049,0.02402194704183011,-0.7569520765007935,-0.42471695444193075,-0.4794382689307572,-0.5416433111517579,undefined,1495052533978
903d185fccf839df,-0.31609263347781646,-0.6144950492627681,1.4466045830782583,1.4535337505914532,-0.7380616760213705,-1.97094506882462,1.9301663937367906,-0.8256934899645859,-0.24315933729805808,-0.2937593059680233,0.12817695637886015,-0.2516216573401059,0.2879623440285205,-0.7326734066423947,-1.0118115114718087,-0.14836134936813167,-0.9239439403329233,-0.7920763528196064,-0.9855798904573292,0.06781512626801381,-0.7670668817640479,-0.4273064061979877,-0.4812264858615112,-0.5201507136938223,undefined,1495052535497
903d185fccf839df,0.0733774483749073,-0.6555860845172691,1.2660473963475167,1.3115327462095545,-0.559018547022579,-1.9957002230798009,1.9110713755981918,-0.9173044458642636,-0.27164730441920354,-0.22351777234965042,0.2546169280571059,-0.22309216945729146,0.4446301247771836,-0.7539676011344277,-1.0139167569489347,-0.14432011601233888,-0.9352917077879732,-0.797832999247999,-0.9903936963527172,0.06958594925789927,-0.7672907248026993,-0.4347193476072561,-0.4733717818609717,-0.5329643672723132,undefined,1495052537001
903d185fccf839df,-0.18026326124185327,-0.7407033761568396,1.3183645370297166,1.3147365763502148,-0.26028076076491435,-2.0113433934549203,1.8672850976474409,-1.147111718354913,-0.3521980072221259,-0.08869632061873152,0.15239664101397732,-0.1815033265932446,0.38370376559714797,-0.6919367194030671,-1.0012851773337883,-0.05339270468365991,-0.9307828539968583,-0.8018924173522003,-1.0038065828400098,0.10240003647701124,-0.7664746836670105,-0.4382250476426676,-0.47080972540569727,-0.514902405953023,undefined,1495052538486
903d185fccf839df,-0.09710225631644971,-0.7412904057689571,1.0918700635951002,1.1632206036242685,-0.12231870486153824,-1.996317471468456,1.9156919355699695,-0.7901192919933548,-0.3692091995930819,-0.11175572567692671,0.16291418910730618,-0.23670383262405115,-0.3038937165775401,-0.6613842104489588,-1.0118115041095748,0.07794672929100989,-0.8235984797747752,-0.7815446690122234,-1.0048980862298622,0.33590206173018367,-0.7074544212087648,-0.44974970480350657,-0.45465324934666773,-0.4802768102709659,undefined,1495052540030
903d185fccf839df,0.19396081235213616,-0.40903956609634384,0.3517767598124155,0.3596438673372369,-0.45767357068965925,-1.9048505768058555,1.9666049746220704,-0.4183171610166904,-0.6320055686948197,-0.34059935948036696,0.1590842793700679,0.07481888350170009,-0.5737104500891266,-0.8095176368407865,-1.031811520198117,-0.03722785605465343,-0.9942291298519556,-0.8435441872041775,-1.0280505341364834,0.14944228666922577,-0.7813829083795683,-0.47178665849528834,-0.5115000985157566,-0.4992174905928632,undefined,1495052541480
903d185fccf839df,-0.289758277295488,-0.34094578247227436,-0.07888066503708467,-0.13975527348712757,-0.776509610276834,-1.7135408427585317,1.924614865531012,-0.4844589127899927,-0.5375381263122591,-0.6603006622638604,0.03748386790554404,0.05279147201124886,-0.20815229500891266,-0.6993434163004383,-0.9876009455311439,0.051678938596129154,-0.8441990153965618,-0.779917101916857,-0.9708935863051215,0.3670377187995198,-0.698306896086813,-0.440192890544136,-0.5067337357361956,-0.43250914129602996,undefined,1495052542985
903d185fccf839df,-0.37707721859930954,-0.33801073670965975,-0.07760438927708035,-0.1356451118345802,-0.872022591923779,-1.6912686566914221,1.9357678688292261,-0.398850720703805,-0.5235744340971663,-0.6855292922338468,-0.018607094580654016,0.10116710531511677,-0.147225935828877,-0.700269228320484,-0.9991799134510778,0.10017351274787015,-0.8802607866737879,-0.7440853060254333,-0.952268076375347,0.46939118530404156,-0.6579496296372345,-0.4412831599704865,-0.5241672800563777,-0.42859425609257507,undefined,1495052546361
903d185fccf839df,-0.13868272427374176,-0.38732002577984864,0.03915120802701797,-0.10395648686920206,-0.7450559465426265,-1.694524933546551,1.911739336250262,-0.5450052720161317,-0.4433365344373813,-0.7571730576691962,-0.029831586324217813,-0.07662084980060378,-0.45185773172905525,-0.727118405014375,-0.9728640799465857,0.27192502589797385,-0.7370342923741825,-0.73119143272041,-0.9288847340645853,0.8792516082459554,-0.5569238355445334,-0.4383352931045777,-0.47531865757824854,-0.32370202995933994,undefined,1495052547488
903d185fccf839df,-0.4089556624799108,-0.5064841580824673,0.0857263784739456,-0.06605791594221223,-0.3277549301284326,-1.8597006035423236,1.9639094286906378,-0.37347418620514644,-0.3683956008146164,-0.7458306679019889,0.05184818811126049,-0.14375671919979927,-0.36917195855614976,-0.7428575978783883,-0.9686535521811647,0.8659838701687379,-0.44605765821834115,-0.7453708929220074,-0.9227205434987209,1.1575477219106758,-0.48770019085658567,-0.41328301862001915,-0.5147150746575474,-0.3776024164066222,undefined,1495052548985
903d185fccf839df,-0.3632171546279715,-0.4841775735398584,0.08827842172005537,0.08571096343358596,-0.3637960115389628,-1.8880777246639402,1.9569798908025606,-0.4529632253078303,-0.3197013048580684,-0.6963277579157873,0.08662970073108252,-0.10076280001706361,-0.5214878565062389,-0.7261925800435547,-0.9654956471543067,1.0336942912866565,-0.44036324925680015,-0.7226989543963809,-0.922202779322569,1.130523450623624,-0.4811384602977729,-0.4167457906624866,-0.5400957932798591,-0.36637476469129426,undefined,1495052550481
903d185fccf839df,0.024866982937355963,-0.4965049031144037,-0.2970801084425215,-0.4037291547806134,-0.8010924205933138,-1.8665415779812815,1.9128649078455289,-0.8090635460988993,-0.34844795054034444,-0.7608382067416892,0.06128884952955591,-0.14547910325613236,-0.517135973707665,-0.6743458895481879,-0.9476008839051242,1.0518797565935594,-0.3876767886064354,-0.7284429351533486,-0.9264008649799527,1.063955969599634,-0.4971342508726382,-0.41797185243286433,-0.513624583429698,-0.35483717934346465,undefined,1495052551980
903d185fccf839df,-0.3909373515814671,-0.4213668372149044,-0.29452857347031053,-0.39953019485799296,-1.1033376336921774,-1.819931172057503,1.93257793870202,-0.6743272603590563,-0.433158900028725,-0.5901291086862729,0.011640014339174875,-0.06362826770201714,-0.7521376448306596,-0.7215634163371298,-0.9781272672617388,1.0781476603473263,-0.39809910972108414,-0.758733404718021,-0.9659888209568945,1.0281237872211348,-0.5229381100026373,-0.4428534322404223,-0.4923010709814971,-0.37782361974429834,undefined,1495052553530
903d185fccf839df,-0.774863483757557,-0.5751649128626697,-0.3474835978955632,-0.41176939440636273,-1.406847982611492,-1.7966760490147464,1.9291828629542145,-0.7530864257893096,-0.3453673576386265,-0.6637199401208854,-0.07902503378069867,-0.0369510385298089,-0.517135973707665,-0.7382284406473507,-0.9570745621745294,1.2377756430183808,-0.40039435377810256,-0.7707469995107501,-0.9555006013365313,1.1427344168797804,-0.5087545244271686,-0.4249136227655187,-0.41014415088640976,-0.4154639337338318,undefined,1495052554991
903d185fccf839df,-0.46716818649956265,-0.39201614576481975,0.05637813528063255,-0.08387782909878048,-1.0689319786108937,-1.7873148373515566,1.9312972197013767,-0.6129501464209662,-0.36530158530492257,-0.47799001172107203,-0.13612818237633711,-0.035754772453011126,-0.7129706996434938,-0.714156751816695,-0.9718114645702565,0.86396322522612,-0.5325614147716355,-0.7640847423524205,-0.9796605890490151,0.9147758261446286,-0.5667649571043805,-0.415949402845604,-0.4212198432675682,-0.42376307171306393,undefined,1495052556499
903d185fccf839df,-0.39925356939240053,-0.4237149556633747,0.10678060818587658,0.06738221618240839,-0.9546681649551778,-1.7286948748051423,1.8457101732713412,-1.0691305516092087,-0.2946341226425374,-0.40424106540803034,-0.08706291368194245,0.040112581964253644,-0.7564895276292335,-0.7215634357632916,-0.9697061896441953,0.10421466130949832,-0.7706832476428674,-0.7529387619397538,-0.9839076531655193,0.3654978737567857,-0.6923867917968727,-0.4316410554286039,-0.5033794923574951,-0.4034119138213106,undefined,1495052557994
903d185fccf839df,-0.2869862161936467,-0.38379787733513565,0.17249584884167812,0.2301971718777752,-0.7231988376331769,-1.7433504478914224,1.9099379245439907,-0.5899809037706479,-0.37012436955317185,-0.17144121263635922,-0.18577368066992783,0.014383399775101014,-0.9436204879679144,-0.6956400581386718,-0.8749692228942991,0.5507689120646492,-0.7302302413202809,-0.6437778113296154,-0.9175918791686568,0.45417751879335716,-0.6039226452546667,-0.4014997816642036,-0.5510480324885565,-0.41151110150143666,undefined,1495052559483
903d185fccf839df,-0.3105485457795437,-0.5599025813674983,0.4500306789245915,0.5056931008695885,-0.7401599499510652,-1.8734733958488898,1.9473390208296164,-0.5425636530525653,-0.33556937715709606,-0.34495946167304503,-0.06356840012923681,-0.02035252195970618,-1.0088987299465242,-0.7011950727174661,-0.8981271440096994,-0.1746291824600947,-0.8792314327134592,-0.6696668855201904,-0.9305709626597821,0.0545570621809222,-0.699890189039313,-0.39372827619768613,-0.541905070557651,-0.4088291567721293,undefined,1495052560996
903d185fccf839df,-0.20659741039172336,-0.5945364808706562,0.5712529872517554,0.5816611154445372,-0.6850903308598473,-1.9359762001972964,1.968514226601982,-0.46327542086807244,-0.3593890596519633,-0.4212599454232664,-0.07089356703247804,0.0032659539689731234,-1.017602495543672,-0.7048984114530708,-0.9023376717751205,-0.23928866177028524,-0.9208664949834547,-0.672396383503233,-0.9334886329666342,-0.13355034502154745,-0.7380934840852051,-0.4017134304153251,-0.6291687508571803,-0.44953780226640017,undefined,1495052562978
903d185fccf839df,-0.30639050588489647,-0.7365942711699899,0.631863887278388,0.5418588063665204,-0.6946251778500279,-1.9754288540829705,1.938250417964213,-0.7284487579180694,-0.36488887331160613,-0.5743999462624352,-0.0007296900812414488,-0.016772923831496443,-1.017602495543672,-0.6965658960602666,-0.9602325040125563,-0.2211031823310216,-0.8774131420459167,-0.6767154510856778,-0.9547729320449782,-0.12243266828437879,-0.7407319391248114,-0.41704750408987373,-0.610589157869426,-0.4690116817043059,undefined,1495052563984
903d185fccf839df,-0.3937094816941278,-0.7137006424012673,-0.12226540022095093,-0.10885809911157351,-0.9471184706888588,-1.961786499303076,1.9221980819092912,-0.9044662699417247,-0.3099654731449745,-1.0138241557654826,0.12258417656854048,0.02966433253222608,-0.9392686051693405,-0.6873075815981914,-0.9349692932466273,0.03753462185085445,-0.8233554331009579,-0.6938523972635869,-0.9420527298650619,0.11251681257738252,-0.6911257808103224,-0.3863495567532357,-0.6878328353792885,-0.4809133148978995,undefined,1495052565493
903d185fccf839df,-0.27867023992058143,-0.7248539712075621,-0.1962751626320334,-0.298539280702039,-0.7862604536539755,-1.9754078914269797,1.8954345505855694,-1.061427146633817,-0.3328798467859135,-1.069470330858208,0.13739200508733493,-0.012134105149468269,-0.8870460115864528,-0.6780492477099543,-1.0191799221773863,0.6194696529953541,-0.6397186470447135,-0.7314764154184327,-0.9682627839718644,0.7016459413224965,-0.5875343947293431,-0.3877809205514198,-0.6324579962933542,-0.5642896176310189,undefined,1495052567043
903d185fccf839df,-0.3479709738421885,-0.7354202119457548,-0.06994876781264986,-0.11604656741824879,-0.9128465244157072,-1.9519524523572727,1.9302400324238602,-0.8356873427358417,-0.39468780325837155,-0.9750250165652039,0.16342045923118437,-0.04685236915209005,-0.852230949197861,-0.6567550726440831,-1.0486536496653858,0.5527895852719886,-0.6553722183672936,-0.7298108511980586,-1.0189756697687904,0.659300213800832,-0.6087256639641879,-0.42274136604847895,-0.6434366004518834,-0.517242145088894,undefined,1495052568487
903d185fccf839df,-0.39370944718871803,-0.6990252528342364,0.37921135177657034,0.39779406599084716,-0.8860728538922785,-1.955185435675878,1.8890151924743968,-1.1021690007741758,-0.4103592270448899,-1.0193099053213646,0.19924708863457352,-0.07450903350515793,-0.7869527072192514,-0.6604583854781386,-1.037074678064335,0.2638426439805529,-0.6827512674360777,-0.7535277258844614,-1.0334870553006874,0.4969236055466049,-0.6630945511093241,-0.3991881627255269,-0.596526611694005,-0.4747885591182581,undefined,1495052569982
903d185fccf839df,-0.4671682210049724,-0.6602822337302325,0.5935834927236907,0.5466491218528112,-0.8025118453502489,-1.9556442947086434,1.9509444965673417,-0.6584351733122911,-0.41975209650408024,-0.8916887072876595,0.13585254848693903,0.08007145003138393,-0.8043602384135473,-0.6234250240236412,-1.0412852131919899,0.33052273996863984,-0.7092534636573035,-0.692402151572441,-1.028638266121666,0.47551976624164377,-0.6442758761996843,-0.4289289610757534,-0.5711496244616995,-0.48516511728211914,undefined,1495052571489
903d185fccf839df,-0.2772841576115462,-0.6121469892702825,0.5355243818062185,0.5223299055189136,-0.7747918981152129,-1.9391136835142453,1.9444909462972926,-0.6561048140741838,-0.3937164412125825,-0.9709232768532159,0.10071032313062396,0.03635428414562893,-0.5345435049019608,-0.6289800321270482,-1.0307588790539697,-0.12411401989517885,-0.8747282289959374,-0.6691539160303551,-1.0295058708600027,-0.08435231678825442,-0.7558007209124551,-0.448190429851064,-0.5821303931773559,-0.476174756531303,undefined,1495052572980
903d185fccf839df,-0.3313387797581897,-0.6262353346111997,0.3938857275101763,0.429165303664119,-0.856758624142417,-1.9114306759395876,1.907113514576513,-0.9020789453720227,-0.42965742432191817,-0.7733376793040246,0.05687203150243028,0.05202622454446499,-0.5475991532976827,-0.6474967063789095,-0.9854956853295502,0.017328525733694422,-0.8478044849169748,-0.6305166270919833,-0.9909464458066647,-0.04180640679678853,-0.7171986268981158,-0.44724924673208416,-0.5815660918017804,-0.4080542080970411,undefined,1495052574491
903d185fccf839df,-0.36876113881001504,-0.6608692195003616,0.5986870709420115,0.6265058294319076,-0.9022625492649728,-1.950650407280676,1.9384608074789136,-0.7223813024968361,-0.45198251245478116,-0.8631700016956189,0.019641797243864202,0.07109833623449431,-0.8913978943850268,-0.6761975524406029,-0.9623377421274486,0.19918330599397005,-0.8555244872958581,-0.6001628281459036,-0.9767219294289553,0.030550888489935,-0.6825715690275734,-0.45490814730222323,-0.5879029659258905,-0.4117410196044665,undefined,1495052575992
903d185fccf839df,-0.3812353275047763,-0.6103859004339299,0.6669548631178217,0.7356624775467933,-0.8163975451944846,-1.9529866347856422,1.9803010203913485,-0.4381234506621987,-0.4585694276800195,-0.6645359369913705,0.04782569395616593,-0.024186205403376855,-0.7913045900178254,-0.64564503053572,-0.906548217946126,0.1203795099385048,-0.8907292244766057,-0.615349227588126,-0.9511066045219381,0.04149918251566699,-0.6764346437550988,-0.46508993344845473,-0.6144089289654673,-0.40790843514825437,undefined,1495052577494
903d185fccf839df,-0.5198367263371709,-0.6426717545585986,0.8934488282785393,0.9172885363808176,-0.7901998698822147,-1.9761695526933507,1.8915766273331183,-1.0556935536087277,-0.43653106814665615,-0.6490347941790647,0.1084197722271958,0.02624787175433378,-0.6650999888591801,-0.6595325605073183,-0.9012850563987912,-0.004898158796640457,-0.9246360155860457,-0.650364073036473,-0.9453482291581987,-0.058328935758559,-0.7065196616689239,-0.47708425301126745,-0.6043313213147907,-0.39833204433249847,undefined,1495052579031
903d185fccf839df,-0.6057696888481866,-0.682001810581718,0.7862630119419286,0.8467807913741779,-0.8450637742404563,-1.9863017429662142,1.8899750754524751,-1.1053927943869228,-0.40447007956927905,-0.5871584893141117,0.13311522781878343,0.08314799994361148,-0.44315396613190733,-0.6882334130443989,-0.9654956545165404,-0.02510421251671818,-0.9655234180219333,-0.6834030393598536,-0.9520371803073657,-0.07472828338980844,-0.7286080624743508,-0.4957356014159282,-0.6239082943047648,-0.4388051153497047,undefined,1495052580492
903d185fccf839df,-0.7526872364806952,-0.6027547346863442,0.8239057768905226,0.847917792056588,-0.9672475756440612,-1.9694753173378619,1.9079340226848664,-0.9950432173764369,-0.41852322268781617,-0.5519349158171539,0.12249447745034982,-0.01886277071348748,-0.5563029188948306,-0.7400801100151531,-0.9570745842612307,-0.17058799150138423,-1.004811391149898,-0.7275119929975118,-0.9429413262105047,-0.12432667605113662,-0.7570050281468452,-0.47653598310241696,-0.6331148875272028,-0.4634752334823854,undefined,1495052582343
903d185fccf839df,-0.6404200213035803,-0.553445416388163,0.8685662795604943,0.9449360040306755,-0.9964692393799466,-1.9506294431047817,1.901530450727128,-1.008599491397518,-0.442510956287989,-0.41220944948358923,0.049909522632494055,0.07811401865571942,-0.5214878565062389,-0.7243409301019141,-0.9644430244157436,-0.22918562077788562,-0.9713079042020784,-0.7079241979707985,-0.9410241998834856,-0.1206772444938288,-0.7468971072491872,-0.4665063286419077,-0.6241841523741714,-0.4771582454329983,undefined,1495052583485
903d185fccf839df,-0.44776403482995186,-0.6133210192665254,0.8028512930416422,0.7686685063725807,-0.9754658500324369,-1.9400337331783555,1.9729586143584577,-0.51671503358807,-0.41851189842709247,-0.2646229303890116,0.020694050927922022,0.23147251181952633,-0.7260263480392157,-0.6660133935815455,-0.9844430552287534,-0.30192751027021864,-0.9804142454941046,-0.6660191095633726,-0.9619446638236296,-0.20613861546872425,-0.7487694442687,-0.47319437044018214,-0.6032464914312932,-0.48706594192187985,undefined,1495052584981
903d185fccf839df,-0.3950954259815241,-0.6039287354545947,0.6720586954730918,0.6426349426547352,-0.9449996105752352,-1.9300459560495873,1.9691506537054895,-0.5270226313206019,-0.386673279688099,-0.06858303548776723,0.0687089676255905,0.16115004980172193,0.727502506684492,-0.6632358927675357,-1.0012851736526716,-0.3241542089329143,-0.9512923083817696,-0.6650755013706912,-0.9490775287070592,-0.15652482582934174,-0.7398717936061733,-0.46056411013957343,-0.5720594199831266,-0.47549387822199135,undefined,1495052586495
903d185fccf839df,-0.601611683458949,-0.7442254807595641,0.47810315463179903,0.4416560880923985,-1.0513434301014004,-1.9727502283409482,1.9380189931643688,-0.8180951206662074,-0.29238479317159627,-0.167937004580746,0.17648924495246654,0.1636663491171137,-0.28213430258467026,-0.6724942201803855,-0.9876009381689101,-0.3059686870965683,-0.9671491687700937,-0.6774247414031889,-0.9668914088504068,-0.21687133447570014,-0.7630955681702537,-0.44685419238743457,-0.5595687937440309,-0.4592479053223674,undefined,1495052587997
903d185fccf839df,-0.5766633060694265,-0.7882516202326644,0.5916695873575831,0.5179574645420744,-1.0401937373044279,-1.980513582659053,1.9299901942859221,-0.8858887064386949,-0.3225191944723431,-0.27611613662594076,0.13874236478333452,0.05880844130491303,-0.6825075200534759,-0.6641617242137432,-1.0118114893851071,-0.33021605896660344,-0.9316732407358456,-0.6826684169575796,-0.9892392229067378,-0.20204263336872505,-0.771859445938501,-0.45569412733106324,-0.530664514635841,-0.4535218623921925,undefined,1495052589480
903d185fccf839df,-0.5586452022034413,-0.7365942565559938,0.8200774578844084,0.8353154812491789,-1.0003572341568254,-1.960603246038629,1.9191895856993584,-0.9426890918749291,-0.3199092904855143,-0.4511757863241648,0.08798304969058719,-0.1717137779112029,-0.7782489416221035,-0.7095275881102702,-1.0233904867539763,-0.2251444156868144,-0.878453281626371,-0.7197668006432485,-0.990155805192753,-0.15253663061272293,-0.781157281838274,-0.4597105367939793,-0.512589944219021,-0.45483301284953903,undefined,1495052591045
