UUID,iqrAccX,iqrAccY,iqrAccZ,iqrAccXYZ,meanAccX,meanAccY,meanAccZ,meanAccXYZ, covarianceAccXY, covarianceAccXZ, covarianceAccYZ,pressureDerivative, pressureIQR, iqrGyroX, iqrGyroY, iqrGyroZ, iqrGyroMagnitude, meanGyroX, meanGyroY, meanGyroZ, meanGyroMagnitude, covarianceGyroXY, covarianceGyroXZ, covarianceGyroYZ, class, timestamp 
903d185fccf839df,-0.4061836013780696,-0.48887376659481036,-0.22370924632228942,-0.3806719260402532,-1.0753177366020943,-1.3640520904611277,1.7547342627531768,-0.9351108858260436,-0.4227163536863479,-0.477505046911233,-0.32034090462324116,-0.5343286710309232,-0.19292070521390375,-0.16513731200736897,-0.669705786346918,0.5911811608284123,-0.6805644030334301,-0.3532205475739698,-0.7429544756660963,0.5121482711180577,-0.38894443753551927,-0.31132586579240046,-0.6430386747799853,-0.44639640668876096,undefined,1495275629223
903d185fccf839df,-0.2169926136445707,-0.04420940864198964,0.4714041046449982,0.4591826833644147,-0.7418525607976759,-1.6491345646972149,1.7777748715164705,-1.2802782275705498,-0.577046819283249,-0.2712986479559411,-0.02299811859285327,-0.6808199071049861,1.7088520777629235,-0.44010991849589304,-0.7170743102141519,0.46590343556382396,-0.6889936243792076,-0.495197743980613,-0.7913687722515723,0.6121606739225568,-0.4528686594808173,-0.41306616485315484,-0.643999661082818,-0.4549957673488961,undefined,1495275630732
903d185fccf839df,-0.34935698714040425,-0.2616986408139177,0.7537243334855542,0.6020778786056804,-0.8674010031207182,-1.7279824788379352,1.8491638790447626,-0.9886740802420171,-0.48490961723298615,-0.41458886380110127,-0.06539176947262319,-0.4128476508548615,1.637046011586453,-0.3614140059789243,-0.7686533103111703,0.4497385869348175,-0.6246249928630255,-0.48433282395599797,-0.7494397771187048,0.33690347574899354,-0.4885544627475858,-0.4797676576070921,-0.569430318755401,-0.42640144638122535,undefined,1495275632254
903d185fccf839df,-0.2883723330080917,-0.40258238650301237,1.1371692124189727,1.1236217224935643,-0.9544624549994464,-1.790512881762058,1.8775860561461735,-0.9176452884956543,-0.4536905265552589,-0.35261261808094263,-0.053668062337556784,-0.27918945980448845,-0.26907865418894833,-0.4002990562273858,-0.7939164769036967,0.0739055524646602,-0.6678235523809825,-0.5295016622391568,-0.7597319804445154,0.23039374182289657,-0.5337190743351745,-0.49960162459033985,-0.5485046997477602,-0.4705997850418817,undefined,1495275633752
903d185fccf839df,-0.2856003064116602,-0.4876996781425829,1.1958664612164471,1.2511476435425806,-0.9311344935000392,-1.8773445915816402,1.9879800554091296,-0.34132500527208437,-0.43879446727541066,0.03500744466400536,-0.012550822689134638,-0.0006012438644207158,-0.5127840909090909,-0.40955738364023564,-0.7360216667529622,0.12644141650163704,-0.646360385254657,-0.5158400784150348,-0.7251840622845711,0.2700953600566572,-0.5124026835835832,-0.5068227665917283,-0.4920667532995762,-0.4801910148364777,undefined,1495275635237
903d185fccf839df,-0.1289806656916412,-0.41197468492893924,1.3917359074238476,1.3503964941601012,-0.7367759623171519,-1.854513388020247,1.9132883082982195,-0.7385271233919517,-0.46289820403087706,0.23066315255500006,0.005968617185906042,-0.08180499320192912,-0.5301916221033868,-0.4215932507194189,-0.7360216962018974,0.011266718097087564,-0.6972066200406736,-0.5511838409587476,-0.731098882153459,0.20258231886187847,-0.5428557038835417,-0.5053897117284584,-0.49756172335263904,-0.47249752280521623,undefined,1495275636737
903d185fccf839df,-0.1289806311862315,-0.41549677491766757,1.4517089237074274,1.6037266199637188,-0.4786563974473852,-1.8469200676970694,1.8691180900407556,-0.9497802800847823,-0.4755852157030836,-0.06345378096530613,0.05457681676612535,-0.1368985250028227,0.22703598484848486,-0.46695907576362217,-0.8286533659390309,-0.22918564904260716,-0.8544530748350704,-0.5777885362844314,-0.7745770655711883,0.03145939424035169,-0.6078746179582564,-0.5346675435250131,-0.4806860216659967,-0.46621415383546155,undefined,1495275638232
903d185fccf839df,0.12466014744134854,-0.44249940637526675,1.3821653640455118,1.4644689852966182,-0.1460272436390584,-1.8380969099751807,1.8684948208585013,-0.8431873467246642,-0.563188120116268,-0.39480632271717836,0.17710630572323338,-0.23276034285920666,-0.11676275623885918,-0.5252865993332163,-0.8054954742725658,-0.17260860817928061,-0.8528334340341196,-0.612588061033177,-0.7723100995689581,0.06952434986233103,-0.6195627671331498,-0.5014369232570169,-0.43687048262486505,-0.46162530646022987,undefined,1495275639747
903d185fccf839df,0.006848741049731715,-0.5088322473029452,1.3572828153274668,1.3039873476452293,-0.24820536001572527,-1.8728095627936643,1.8582227938641955,-1.007670376580249,-0.4654775202271209,-0.6903996392751187,0.21415442521655106,-0.196229153406703,-0.47361714572192515,-0.48917908227570095,-0.8297060034020616,-0.12209341734964324,-0.8155252423650913,-0.5960907433902876,-0.8023054267084363,0.19693108748490568,-0.601009422504099,-0.45983423901603415,-0.41646683971291315,-0.48628267124872,undefined,1495275641252
903d185fccf839df,0.0013046878568687057,-0.6608692487283538,1.2775315909550107,1.1651523216466602,-0.20548885246294613,-1.9450415998166986,1.8488133439772476,-1.1122383856865103,-0.4822839537759321,-0.9055518569058257,0.17743108913007882,-0.04234962659901811,-0.4823209113190731,-0.515102440474159,-0.8318112636036552,-0.07561948814052016,-0.8067415814896381,-0.6035952828217702,-0.8185170374607609,0.21887387470946668,-0.60106445580726,-0.4771378774477217,-0.43364047608342154,-0.5104420133019548,undefined,1495275642730
903d185fccf839df,-0.047205708569863156,-0.586905271281082,1.1263229015545315,1.1398706494764548,-0.39134111262913296,-1.9086053100535614,1.8589722878513344,-1.0585384696364017,-0.5518106512663984,-0.5164730268051674,0.04265881243306825,-0.0718142231688956,-0.5998217468805704,-0.4558490660321955,-0.8970745212711364,-0.027124885724057638,-0.7952728252518858,-0.5842354737286862,-0.8454897439959406,0.24247969017854376,-0.599955110973769,-0.4699246278308574,-0.42131133315365155,-0.5373875879483473,undefined,1495275644223
903d185fccf839df,0.13159007591078836,-0.6256483196130783,1.2749798018458505,1.2410471728265213,-0.2980189820967686,-1.921122640636325,1.9203177766228714,-0.6315408863142044,-0.49580280481489697,-0.3062514692826785,-0.07056776533738945,0.005877125069591568,-0.8739903631907309,-0.4604782362140077,-0.8897060737543897,0.2315129184578184,-0.7381601081601941,-0.5287145561878643,-0.8431388146482861,0.20398357723594301,-0.5831640966558765,-0.43387916445365277,-0.3853751022543338,-0.5391245682208562,undefined,1495275645741
903d185fccf839df,0.12050196952506234,-0.5094192623010666,1.2328705800111401,1.3644895506478683,-0.4033959514707162,-1.8667698436266815,1.8465043875351455,-1.0943670989929881,-0.5413825681294133,0.003690322720060463,-0.14129383901242593,-0.028896185671534427,-0.9392686051693405,-0.4465907580455075,-0.9191797828368047,0.025410865254033056,-0.7240024961672774,-0.5376313413396389,-0.8665641374695183,0.17973102581958927,-0.6019331538776159,-0.4391603528494922,-0.4235876471907193,-0.551354002042833,undefined,1495275647251
903d185fccf839df,-0.00839740523064156,-0.579274076305504,1.3815277344394084,1.4632060485002036,-0.4081582266528639,-1.8908797987802461,1.8237302643994489,-1.28605824539876,-0.4090364932911244,0.29658543553083255,-0.10559248639195432,-0.02622287858283704,-0.9610280191622104,-0.44751662186865143,-0.9370745460859871,0.015307923188158802,-0.7560377263847639,-0.5147630827448596,-0.8870927802391337,0.08433765602406051,-0.6117207748299296,-0.44499402774985447,-0.44402405777946397,-0.5262606188036989,undefined,1495275648732
903d185fccf839df,-0.19550933851140706,-0.5845572405165889,1.2583912666091874,1.2961224131380007,-0.4057307999031996,-1.8759144378198327,1.8357800385351797,-1.1883239126186205,-0.4777287238241328,-0.06706353753103157,-0.04003523773932984,-0.000962154814154643,-0.9305648395721926,-0.45214578557507634,-0.9549693166974034,-0.07561940334635556,-0.8223489832597863,-0.5053839913924457,-0.9096435023675411,-0.008330190933360015,-0.6337477111682268,-0.45404425642536295,-0.4405066284539294,-0.5273641375527135,undefined,1495275650235
903d185fccf839df,-0.14838488637207148,-0.5968845700911342,1.3643010613227433,1.3690527545370297,-0.46899812454138096,-1.9037348711140403,1.8382257536613267,-1.2308529067138516,-0.3963516773359274,-0.44663402915309747,-0.007846179356481811,-0.03652551803877468,-0.8174158868092692,-0.4845499833231488,-0.9339166484213629,-0.06955760984210947,-0.8192802108188192,-0.5348828436729174,-0.9249105434313,0.01690786218970153,-0.6523930937770512,-0.42344538503039875,-0.4668217004095957,-0.4821849661000615,undefined,1495275651732
903d185fccf839df,-0.0624519238610559,-0.6514769795304194,1.219472734174488,1.191169354972122,-0.3231778050469448,-1.9061689270784103,1.9115763025770598,-0.6866605061197634,-0.40648630880093106,-0.5620159326363712,0.055683601782444296,-0.0026796715713733217,-0.8391753008021391,-0.4502941097318867,-0.9423377113144388,-0.0938049251827015,-0.8048803114106512,-0.539784542555372,-0.9220838332012272,0.0688314188479617,-0.6451732253880538,-0.4293148754635193,-0.4592801910511371,-0.4783153452955967,undefined,1495275653227
903d185fccf839df,0.266033538364765,-0.5516843713937988,1.455536988576592,1.4386170185805145,-0.3004464116031508,-1.8936306330975987,1.9228607981434997,-0.5765247215170057,-0.28698870927468545,-0.1083712144946248,0.10123903070299042,0.01171784694955059,-0.8348234180035651,-0.4345549298186479,-0.9328640477695013,-0.06753696489949156,-0.8176275606268099,-0.5031357972673015,-0.9076564089533046,-0.05526465239785732,-0.6358001780125556,-0.41814079994649384,-0.5359044638853508,-0.4962367527194486,undefined,1495275654753
903d185fccf839df,0.3713707905670303,-0.6233002596205928,1.5269939453307164,1.5598809749098095,-0.13220326372255,-1.8880963612342299,1.9344082719612605,-0.42814808082232314,-0.3448469370676773,0.11066663654250827,0.11621412721118318,0.08739484738734164,-0.9392686051693405,-0.41696409996376854,-0.8949692389828414,-0.04733093944413536,-0.7244365038606743,-0.48355433306372253,-0.8852876047457282,0.02813332869118519,-0.6030088843412138,-0.4455904844665543,-0.47688187691295586,-0.44197131552055136,undefined,1495275656220
903d185fccf839df,0.28127965013972855,-0.6279964088335562,1.6507682969039903,1.6791787257893231,-0.2531939101620179,-1.9013241102545708,1.9632861720786454,-0.3055594674787139,-0.37578706547282825,0.1792971279617196,0.04208924878987221,-0.03656459717005898,-0.9914911987522282,-0.36882072230245727,-0.825495490361108,0.03147277181716529,-0.5896968765151276,-0.45679764705656134,-0.8046633530260111,0.03789594482730649,-0.5590045436500342,-0.4424471271339547,-0.4991481359852661,-0.3831710194722302,undefined,1495275657731
903d185fccf839df,0.3450364688901116,-0.6503029787621689,1.7809227565925385,1.8070982793709733,-0.24789677642526844,-1.8997402271696429,1.8901275941019098,-0.7700909028828116,-0.3644713914003393,-0.278300093759858,-0.06452359070256092,-0.0194457473111516,-0.7521376448306596,-0.37437572393047697,-0.8076007271119257,0.09209090471267692,-0.673218879148499,-0.4228594023212778,-0.7886056717398328,0.060162097481129086,-0.5327476203262861,-0.48549410919115266,-0.5283464479813519,-0.42571862141611133,undefined,1495275659233
903d185fccf839df,0.23415533602203192,-0.6191911546337431,1.6820309537373097,1.7183870773606325,-0.21026141547268723,-1.8751830585175309,1.9318757654643999,-0.4526868359914554,-0.3558985322960084,-0.5848485807239389,-0.062139779473853615,-0.10700190475995444,-0.6302849264705882,-0.4336290918970531,-0.8212849699579208,0.10825578160640494,-0.7377357639276716,-0.4429348330588436,-0.8071262300508754,0.08002609047789931,-0.5423625213251879,-0.4955696170300312,-0.5552338864374895,-0.4368883706623664,undefined,1495275660740
903d185fccf839df,-0.0430476686752159,-0.5751650005466467,1.6967050753339663,1.5929557388120397,-0.4558632900014072,-1.8511429802695925,1.9409275573664435,-0.427947146188989,-0.3353077719192741,-0.9645887226152099,-0.0250308983782507,-0.029527393626703657,-0.7390819964349377,-0.4799207548628512,-0.7981270267558191,0.0981528395405307,-0.7471137425395836,-0.5002289745857221,-0.7911315202644502,0.27389251981786766,-0.5323497282849367,-0.4815898445148372,-0.5591560693967,-0.4704682900626213,undefined,1495275662229
903d185fccf839df,-0.1289806311862315,-0.5469882514088277,1.597813526615687,1.5823531571728295,-0.5668665375458896,-1.8546042285594946,2.0210156737550165,0.046358700042825024,-0.4091400068249563,-0.7801885421578232,0.020417147714990622,0.004042362957774653,-0.8174158868092692,-0.5178799542389433,-0.7844428133587592,0.09007040109366668,-0.853762382853404,-0.5096017317874655,-0.7638509547847441,0.2549524315016037,-0.534471371071896,-0.44725739935703085,-0.6151159224000269,-0.5439443187920221,undefined,1495275663732
903d185fccf839df,0.005462831267745166,-0.5006139788732611,1.659700194128425,1.4378155310149479,-0.6485761139392546,-1.837209468585542,1.9673387107388631,-0.2960228505614915,-0.41989045845164585,-0.5035206286298345,0.0413460677674099,0.041013833187426636,-0.8391753008021391,-0.6012050175115624,-0.8265481351863725,-0.09784604547960814,-0.8819902185288013,-0.5630707756653991,-0.8236876810840003,0.21845811444767363,-0.584176108962376,-0.45351524443305574,-0.6559705279535711,-0.5784501590883522,undefined,1495275665227
903d185fccf839df,-0.20382538379529183,-0.4830035581576118,1.9748780432968818,1.9073631451196496,-0.6120207466325289,-1.8245314199209497,1.9069031386795958,-0.6572585757497987,-0.41699928007381526,-0.3734221181408621,-0.0268560711308867,0.2592594621977684,-0.36482007575757575,-0.5919466641971636,-0.8044428368095352,-0.16654689946919915,-0.8828392125108051,-0.5676114955291025,-0.7898441072160681,0.20958860997831089,-0.5786316105054733,-0.4155132697045053,-0.6610679479556365,-0.5992881294228553,undefined,1495275666737
903d185fccf839df,-0.1636309636416253,-0.46598003552811457,1.982534173035211,1.9129427513645685,-0.6882583274401888,-1.8168821985451438,1.8271463770036809,-1.1948565417616162,-0.4551022207761067,-0.19267691105197743,-0.0009933772616533625,0.17767868548509003,0.5142602495543672,-0.6243508489944615,-0.8044428368095352,-0.10996974554698645,-0.9076256564878964,-0.5790424608378482,-0.7830432069766501,0.2383529110799535,-0.5801075119114298,-0.398377684556543,-0.6570595611579992,-0.5745086130532493,undefined,1495275668234
903d185fccf839df,-0.2675821335348554,-0.38790695309399303,1.643112167165661,1.6314486549927611,-0.7177268474288733,-1.8319616934363596,1.86726669740337,-0.9658479393791745,-0.36206943183059226,-0.38818378670523274,-0.05480528829721698,0.15182282394289093,-0.5388953877005348,-0.5863916496183693,-0.8065481117355965,-0.18271169156876255,-0.8823721218798328,-0.5924683012788924,-0.8108275424663363,0.17571203258124413,-0.6054348144031831,-0.40235667060054725,-0.5784418547998543,-0.5633324834916641,undefined,1495275669736
903d185fccf839df,-0.11789259381132493,-0.24584920663664792,1.1193049096962044,1.2067288590193255,-0.624723577311693,-1.8077306180627313,1.8760844357496274,-0.8834678306816112,-0.28893569419320025,-0.48795019619866226,0.04346084275487482,0.026564937317375522,-0.6825075200534759,-0.6132408716399712,-0.82233758533425,-0.18675284013039073,-0.832325204107487,-0.6375715270739012,-0.8835174098811518,0.2441119269036288,-0.6317082271543559,-0.3867606636482992,-0.5532834130702003,-0.5654171287559266,undefined,1495275671226
903d185fccf839df,-0.0846282056433274,-0.11729279052209854,0.7403262335119526,0.8658815590563476,-0.5402265790274257,-1.8065543525462906,1.9306318778537916,-0.4975439872049179,-0.21122357217276705,-0.9707644579434547,0.05526598146602834,-0.08009845705108924,-0.6433405748663101,-0.6308317014948505,-0.8739165927935023,0.10825580987112648,-0.7979794643853814,-0.6326064998453959,-0.9056553194460218,0.3573982892711449,-0.6186143859674464,-0.3863701193420906,-0.4833142971305039,-0.5296523419671176,undefined,1495275672740
903d185fccf839df,-0.12620867360061944,-0.5317258322296793,0.42514838434349583,0.45728835211384483,-0.68164462615095,-1.8563930845741827,1.8717137055356132,-1.0260948478821061,-0.1655342365388906,-0.8647835560064552,0.09713795619233176,0.03167799755499759,-0.8304715352049912,-0.7354509204071791,-0.9707588123827583,0.556830846892503,-0.6695164338264769,-0.6956952844439847,-0.9462648090279748,0.8051234867114675,-0.5483877676978427,-0.3901071565669796,-0.5500771309909656,-0.49101970270599216,undefined,1495275674229
903d185fccf839df,-0.2370898064686991,-0.28341828342838604,-0.10695314074429225,-0.18684307998805846,-0.8370615084382194,-1.7768868326397558,1.909895861306356,-0.7092572785935672,-0.2727969870750849,-0.7706348810634549,0.04943087744199367,-0.09093479787497698,-0.8261196524064172,-0.7261925865189419,-0.9707588271072259,0.726561884688318,-0.6707943599993242,-0.726226405353488,-0.972173999655374,0.9209659896633743,-0.5402880737003829,-0.3983886621340948,-0.5899601355353237,-0.506381431534537,undefined,1495275675728
903d185fccf839df,-0.561417194294463,-0.16953725688086754,-0.23072698404366718,-0.43611676966966806,-1.005212083311022,-1.5993196107080738,1.8416760579006737,-0.9185447611210952,-0.24132688153312126,-0.5099906315628311,-0.0006396581568311493,-0.023063777365055566,-0.8174158868092692,-0.7382284276965762,-1.0107588592843104,0.5891604593563513,-0.6700364039809279,-0.7466311499484849,-0.9980202196332915,0.7706771633596126,-0.5905858500713893,-0.3979751235253741,-0.6392445404481649,-0.4350505339635298,undefined,1495275677262
903d185fccf839df,-0.6182438775429479,-0.6884589828680514,-0.523574581877138,-0.6062513667657329,-1.1284758790766691,-1.3674438465132028,1.8165955986986417,-0.7196149230950805,-0.3988852639361029,-0.5530303332339143,0.027701941550729837,-0.058020201085211075,-0.8000083556149733,-0.7826684277699592,-1.056022078776548,0.2719250824274169,-0.7001181965196894,-0.8025573750984534,-1.0221522212216907,0.5265502086753063,-0.6781895587452943,-0.40720746323091156,-0.6061729586742076,-0.3855399985673782,undefined,1495275678763
903d185fccf839df,-0.7734774359539315,-0.6426716961026139,-0.55292333334435,-0.6265493060866217,-1.030926326899452,-1.374743682284488,1.7957754326304565,-0.8138453413108597,-0.47077801464164204,-0.48809903145433164,-0.00646572469392724,0.02574782634026622,-0.9784355503565063,-0.7623000906256827,-0.9823377876649261,0.3648730539045492,-0.6286113565058813,-0.8130510614873854,-0.9863145560031061,0.8357509979350861,-0.6114598879974057,-0.3495586681080763,-0.41612974171016215,0.02014551590452301,undefined,1495275680221
903d185fccf839df,-0.4186576520511919,0.18560722617446457,-0.5184704953849185,-0.5938489593026283,-0.7380616706599741,-1.6445767278330947,1.8643476297002668,-0.6748388071310037,-0.8394854211376963,-0.4395641243838821,-0.026255416991623787,0.06194398586836749,-0.3909313725490196,-0.779890965808273,-1.020232559640417,1.2155488878262422,-0.44663781981773826,-0.8028296911948912,-0.9934792913990752,1.0184689543739578,-0.5650239767847263,-0.3617496185891014,-0.3074828449581668,0.022839150724423527,undefined,1495275681722
903d185fccf839df,-0.17194714694714902,-0.4096266249364537,-0.4438233575046821,-0.49091062474009095,-0.680585193920572,-1.8131577459468244,1.8831954431707183,-0.839432412870868,-0.530636371546574,-0.6432137471462017,-0.015343917909182452,0.06401424088354411,-0.35611631016042783,-0.8187759707290235,-1.0212852044656813,1.6802887734766252,-0.3151201101520799,-0.797396025619349,-0.9945008257993043,1.143827700784985,-0.5261225112347883,-0.36360381365739103,-0.37175662153095257,0.028002228533039922,undefined,1495275683217
903d185fccf839df,-0.23015973997762035,-0.5528583867760454,-0.2932522977103062,-0.36799546333236455,-0.903877389942429,-1.8754183104059834,1.927460333829113,-0.7053280749479265,-0.5737103067314869,-0.8507762110654379,0.05223714640768864,0.06414822897715444,-0.8870460115864528,-0.7511901132711925,-1.010758837197609,1.6863506235103143,-0.2904779766005007,-0.7521661428055754,-0.963413994535926,1.1880058413627226,-0.48656712437342314,-0.3758760944338082,-0.39164549677169547,-0.018506274842431704,undefined,1495275684714
903d185fccf839df,-0.6515081276893064,-0.5346609364482786,-0.21286318959479755,-0.25391332719393794,-1.2813419031770124,-1.7605122804715947,1.9245307390557418,-0.7098363988145967,-0.33388043365042175,-0.8511087829569882,-0.0016626197258867398,-0.05655841962369881,-0.9566761363636364,-0.5456550077067527,-1.0076009689819199,1.611588117340085,-0.44396373046451004,-0.6975065062028387,-0.9209993264387394,1.270002562866093,-0.4237947715726241,-0.3916545548326368,-0.5033474319638865,-0.15211750309933492,undefined,1495275686211
903d185fccf839df,-0.3382688807546782,-0.5058971723123382,0.03596128103785545,0.010980459751887313,-1.12356959606188,-1.8253326782988741,1.9521962966338202,-0.5827814558513269,-0.3125958765494517,-0.8341028159084978,0.017634176008426653,0.051933568778587215,-0.8826941287878788,-0.6382383660152853,-1.0454957409574108,1.603505678893221,-0.6245715279701983,-0.742362746419296,-0.9584532548107928,1.0373628444056369,-0.48635602627939084,-0.45772534068561765,-0.8867874026613664,-0.6234350891894408,undefined,1495275687711
903d185fccf839df,-0.33688276394023325,-0.631518454980296,-0.24986756252643996,-0.23249634495573993,-1.0919925062458053,-1.9089919633061694,1.938497634155101,-0.7650627270502028,-0.29616959406553883,-0.7175961289862925,0.03956395158528651,0.09030204655566966,-0.5519510360962567,-0.6669392120769785,-1.028653615171259,0.9104372109646861,-0.5449756615232411,-0.7559342445759937,-0.9733354715577194,0.7227418002621067,-0.5701077244974037,-0.4476920690432291,-0.8091422396818052,-0.607641593260727,undefined,1495275689230
903d185fccf839df,-0.439447868777133,-0.8598675084594583,-0.6071541252557081,-0.6386313241421766,-1.3370492385134038,-1.9679799468603978,1.9450353203281159,-0.847443387717387,-0.2952010948984002,-0.7643483903958396,0.10269152291488885,-0.017064930073104022,-0.5127840909090909,-0.7215634195748234,-1.033916802486412,0.6679643402059812,-0.5249355221920058,-0.844215479150931,-1.02721791236981,0.35693632884004367,-0.7125672695226023,-0.43283122069465824,-0.5897112156592423,-0.5239720623187268,undefined,1495275690774
903d185fccf839df,-1.065926552426143,-0.9226782009424237,-0.8074897742122753,-0.8306972006483313,-1.629389320769025,-1.9583438842944918,1.9213460203494608,-1.0603641478105403,-0.3639017947205865,-0.6843331364973525,0.09981483865873494,-0.013270418398638765,-0.4823209113190731,-0.8789551766171945,-1.0897063377110854,0.5204598880139757,-0.4668902518990178,-0.9509699094860508,-1.100061711000251,0.15777283472427128,-0.8215718497773936,-0.41319262584789346,-0.5259045954480844,-0.4405973149498664,undefined,1495275692227
903d185fccf839df,-1.1823517816188478,-0.6831759063409436,-0.801747803977003,-0.8436052288849542,-1.8613729322627723,-1.7542210058664989,1.9121469584059314,-0.8625513556610287,-0.25172486632711494,-0.6409280031676144,0.040582085189216514,-0.12226825552117473,-0.5911179812834225,-0.8835843500367003,-1.1381274419840381,0.45580040870378513,-0.48373318074329913,-0.9421354528290856,-1.124039782192711,0.0906818085475295,-0.8394127929175312,-0.42704406742383405,-0.4847120567227383,-0.40383964538017303,undefined,1495275693713
903d185fccf839df,-0.9633614562155955,-0.14370853850754184,-0.5229361898601864,-0.7273392563229697,-1.7084760456519024,-1.5174398642222124,1.8314197961093661,-0.9783716358037629,-0.1612189477976188,-0.686958589262766,0.02005117016778187,-0.01647863615869649,-0.8261196524064172,-0.9308018768256423,-1.2139170025000459,-0.8192031257001512,-1.0211130095647734,-0.9775872722272092,-1.1790417124636852,-0.7672579712470029,-1.063648207070845,-0.44149973276468707,-0.5427271218600664,-0.4750945445489163,undefined,1495275695229
903d185fccf839df,-1.0049418810411255,-0.22236860671179243,-0.49167429543771524,-0.6788995750471805,-1.6285356075567392,-1.5041259322313827,1.831101590414026,-0.9546437951672542,-0.20991507740668186,-0.6614263328823689,0.02261882207565036,0.11566345152473026,-0.678155637254902,-0.919691863856522,-1.2486538878542632,-0.9283159599386507,-1.133047881628912,-0.9743891359691061,-1.203964352592312,-0.9958016988838829,-1.1193654063536738,-0.43702661069414017,-0.5651293559645537,-0.4985612068019311,undefined,1495275696707
903d185fccf839df,-1.0451363529529065,-0.5986455712435098,-0.7328421280581401,-0.8316227831112593,-1.5758111251136993,-1.6576647220129082,1.876357917501976,-0.9683873318977664,-0.18790336312360578,-0.6971573256686612,0.0441986839146154,0.19835774336233103,0.3575924688057041,-0.9122852058114745,-1.2339170333130558,-0.8980068369614518,-1.1349291008660987,-0.9549469987687795,-1.2009977047255476,-0.9699939040466605,-1.1034517722399975,-0.4354996685670813,-0.570013198234224,-0.5016042078081875,undefined,1495275698215
903d185fccf839df,-1.088102765197595,-0.7377683011662327,-0.8279061201811535,-0.9002099732528275,-1.6330921709166688,-1.8190716844265218,1.9231053583428792,-0.927444982710873,-0.2554607897014561,-0.6535909670926393,0.06601300148076994,0.21572621343780113,0.7710213346702318,-0.9113593678898797,-1.2718118108102219,-0.8757801312325758,-1.1558716870441128,-0.9898035204092616,-1.2342885309746505,-0.9641270956181229,-1.124422833070923,-0.4563087228513441,-0.679271798024092,-0.536388359445918,undefined,1495275699718
903d185fccf839df,-1.114437035116399,-0.7119395827929069,-0.8432183796578122,-0.9162863410279685,-1.612603063296269,-1.830105290425289,1.9124704331358948,-1.0079937000918024,-0.2560281328144328,-0.648253257822264,0.067167150393176,0.1551215887246293,-0.7260263480392157,-1.0169044311991904,-1.3023381656381805,-0.9768105270242113,-1.2053573190719467,-1.048509908115975,-1.2728409586604592,-0.9948623924462024,-1.1735736264144174,-0.46416392483636737,-0.6850515503720859,-0.5334293770440357,undefined,1495275701255
903d185fccf839df,-1.1684916400103378,-1.0424293482431637,-0.8808611446064062,-0.9190399175331332,-1.7314645784408556,-1.903592788420102,1.9257246530678882,-1.015480936473978,-0.27232851981629536,-0.6366173179308117,0.07796878743506432,0.014461690497826689,-0.7260263480392157,-1.1020811476511436,-1.307601329946353,-1.0232845127627774,-1.265477221641516,-1.1078812547427148,-1.283741989963503,-1.0072427430831221,-1.2115376011117274,-0.4725396826094621,-0.6728388669581357,-0.5312905907599385,undefined,1495275702715
903d185fccf839df,-1.1379992956914766,-0.9678784142537552,-0.7947295579817264,-0.862158942089887,-1.6477698630211965,-1.8437220233214513,1.9466079511795502,-0.7414188321075807,-0.25286342837476283,-0.5968582364594671,-0.02596265041600837,-0.022934535817227084,-0.7913045900178254,-1.0391244312358818,-1.286548667191988,-0.8717389332076849,-1.161827994655894,-0.9949965350662962,-1.2338057512688423,-0.7826410182613055,-1.1051324714403674,-0.39018273654219937,-0.41120472597402485,-0.4041594564122918,undefined,1495275704211
903d185fccf839df,-0.7623893640736152,-0.7248539419795698,-0.15735612192343512,-0.3450008648995192,-1.4228833831161576,-1.8142245382397881,1.853646937932495,-1.234427323441332,-0.34175283693094555,-0.564460901225341,-0.051670405206544125,0.004235101366965804,-0.9697317847593583,-0.7511901132711925,-1.2076012108519143,-0.6009774784216932,-0.8883920710962488,-0.8501684458090395,-1.164789209062683,-0.6569589067710363,-0.9880823303241709,-0.3402607504198764,-0.3724460795539221,-0.3675321016676691,undefined,1495275705729
903d185fccf839df,-0.3881653594904453,-0.39553814806957105,1.5174239102262796,1.4822529215611906,-0.8624877548721874,-1.7754590099655136,1.9124678043799535,-0.6335749823064386,-0.4452470183906892,-0.19608393123688378,-0.021513799746021443,0.14152113216245268,-0.8130640040106952,-0.547506641459925,-1.108653720017714,-0.30798929670828434,-0.5026498092760459,-0.7058976557282732,-1.0808624625480039,-0.47996917784043863,-0.8628664143618034,-0.28526255363294867,-0.20775807772526647,-0.3273301413803294,undefined,1495275707224
903d185fccf839df,-0.15254292626671875,-0.4066915207178544,2.2249782814156407,2.1325186813269905,-0.6500161158217594,-1.8095637304366474,1.9129437977593513,-0.6260571670625787,-0.36665088491007497,-0.03124906025433401,-0.013271734611048644,0.04728708512988751,-0.5475991532976827,-0.3512298406444797,-1.0012851736526716,-0.11603162384539716,-0.522202753428858,-0.5597079841340438,-1.0176112924614074,-0.23009860256041156,-0.7274388262274768,-0.3115062135641715,-0.2390901831393535,-0.36203907598844165,undefined,1495275708708
903d185fccf839df,-0.045819695271647407,-0.3755796965894286,1.9525477919618959,1.9707018795413755,-0.3559171823633391,-1.809437951677442,1.96790148082367,-0.1711369148336431,-0.3043119461283826,0.28187335192312,-0.1117806942570359,0.08977545017590392,-0.6563962232620321,-0.4021507061690263,-0.9454956163412968,-0.09986669042222605,-0.6422647369481883,-0.39884488030632065,-0.9473073360568589,0.06937036719835525,-0.5729371550526141,-0.36866851175097565,-0.3360973549737971,-0.4435921268472365,undefined,1495275710246
903d185fccf839df,0.04011319822854871,-0.420192836446654,2.0546295218062873,2.007060656946846,-0.33122122487626315,-1.8005309398500826,1.8906483056629295,-0.6636473891765614,-0.27630961526012915,0.2352492761641903,-0.12976314313136472,-0.1405620947588335,-0.7260263480392157,-0.4725140903424164,-0.9181271748227092,-0.10390792377801883,-0.84745327942622,-0.3905423898275333,-0.9244627479511528,0.04736598877677265,-0.566735100522036,-0.3775931146301554,-0.4320769208449648,-0.4674992337687024,undefined,1495275711715
903d185fccf839df,-0.03750368449317236,-0.4783074381726407,1.7949589944461424,1.6816585225034144,-0.1428078219924154,-1.8187642235613575,1.8722265140684586,-0.743033082001805,-0.3270722929466216,0.218870571381252,-0.0684983897388974,-0.19510186887975808,0.48814895276292336,-0.42899991523985365,-0.9149692845203188,-0.09582554186059788,-0.8506760457370324,-0.36576158155563526,-0.901149372972291,0.25951037159602597,-0.5112946198257594,-0.3600683506617559,-0.42481320313983595,-0.4537425572772286,undefined,1495275713263
903d185fccf839df,0.12743196700532164,-0.5393570564332497,2.300263557175879,2.1619172751390936,-0.10030731847658993,-1.8459301403204933,1.8945298950515106,-0.6216503662227447,-0.24564752214417854,0.5714506082111735,0.06509163316141464,-0.241174179385782,0.4141669451871658,-0.4002990562273858,-0.9086534597421352,-0.045310322766238975,-0.8252231658223805,-0.3476746938371905,-0.8918855958425842,0.21171359846545582,-0.5004707782153944,-0.35343464271038383,-0.5802753364057879,-0.4618713444458871,undefined,1495275714731
903d185fccf839df,0.18564473256284164,-0.5786870466933864,2.2013720084575996,2.1373754466279427,-0.3418257667978703,-1.9075338600242193,1.951567762083269,-0.4094964259684875,-0.34494870413222706,0.5981361639487653,0.011668666016013794,-0.19986423122484775,-0.7303782308377896,-0.3845598892649215,-0.892863971419014,-0.13623767756547486,-0.8240648742419341,-0.34245001575734874,-0.8556281212067662,0.24643709076593784,-0.48236851951750076,-0.3628448507559659,-0.6220698365123469,-0.504304637833479,undefined,1495275716212
903d185fccf839df,0.279893740357742,-0.43604228523792,2.524844125244388,2.571003703871968,-0.457508995542003,-1.8577533605854701,1.9029531670683075,-0.6596806385476862,-0.30015705612511634,1.0482841668878822,-0.05227614302643383,-0.015162278118683831,-0.6259330436720143,-0.3678948714300879,-0.8570744670073505,-0.05541346268516398,-0.8072490569459414,-0.33264661952055935,-0.8268502390864252,0.14861076518981536,-0.4838838868561693,-0.3600132445890906,-0.6604703605990343,-0.49422526616617285,undefined,1495275717723
903d185fccf839df,-0.059679897264624394,-0.3773407123558004,2.512083909013839,2.457895280931834,-0.6702994990266619,-1.8210445510067288,1.854117670657444,-0.9718628967538635,-0.38016471180836303,0.4878434176710287,-0.07575384201015696,-0.013322992791027156,-0.6476924576648841,-0.34104570121158423,-0.8097060020379869,0.01126660503820142,-0.7645212929138798,-0.2861438131617735,-0.801311880646668,0.2294680031706277,-0.4450575997775273,-0.3385479183436148,-0.5818515486265567,-0.4454402045692215,undefined,1495275719223
903d185fccf839df,-0.14006880658277696,-0.4002343265105268,2.880854412213652,2.6780393597001377,-0.6146847355297639,-1.807255454481835,1.8443242726073696,-1.0064926989494645,-0.27148981972003267,0.5730448830849588,0.00033510234575882423,0.10243336164850408,-0.4823209113190731,-0.37807904971530704,-0.8297060181265291,0.0476375639167287,-0.7528026758217625,-0.2857828357320455,-0.8252199834917958,0.19808596981639248,-0.4537944363026473,-0.3890680397124972,-0.6151697448735362,-0.4674815998021573,undefined,1495275720720
903d185fccf839df,-0.2204576813955198,-0.5058971138563536,2.336630808775317,2.230956356897239,-0.786764448019613,-1.887120406580239,1.816272128682526,-1.3635837309237855,-0.25566508029924445,-0.0036142218734776673,0.05302056503760771,0.07016303404155147,-0.6433405748663101,-0.39289239170695106,-0.8391797111204019,-0.0190425038066367,-0.7954739046259992,-0.3402841494072474,-0.8543826908281773,0.21816554285336004,-0.49454045078721703,-0.4101778959468616,-0.5702248460307822,-0.45230263561337425,undefined,1495275722214
903d185fccf839df,-0.25510801385091364,-0.5968845262491457,2.0431450730618437,2.139610808613685,-0.8091358408327389,-1.9157933413602284,1.8871953669062709,-0.9829605562460524,-0.2636293278484716,0.2305687727386767,0.07935468120678764,0.011900649528321742,-0.6389886920677362,-0.38363405134332673,-0.9276008751788157,0.07592611261311351,-0.854702462978333,-0.385324044575099,-0.9056833083900716,0.19164942178727645,-0.5336773221568959,-0.41087780040731653,-0.5580728187828927,-0.4078695868536225,undefined,1495275723715
903d185fccf839df,-0.47964240969973365,-0.6203651554019934,1.6507680427670408,1.7275969504300368,-0.931268208151693,-1.9082698988632265,1.9513731482467849,-0.6084680387431234,-0.34823696644200514,0.04237294945675142,0.1169834742354535,-0.030318385730914575,-0.8043602384135473,-0.3928924046577256,-0.9476008691806567,0.0678437589604141,-0.8598697553071519,-0.4318965129101594,-0.9282410265463718,0.20193558422044605,-0.5619280536939981,-0.4296264358744874,-0.5261223930792431,-0.3997344869844981,undefined,1495275725259
903d185fccf839df,-0.42697383535671557,-0.6667393987095678,1.654596361773155,1.6376792268674991,-0.8875745670762639,-1.9100587549947958,1.9726666899374057,-0.45322876069156126,-0.39324710322189554,0.29809087656842675,0.023429121098366524,0.02942199490636914,-0.7347301136363636,-0.39289237875617655,-0.9423377113144388,0.09209107430100613,-0.8733364546305021,-0.4490714573591662,-0.9367211612493828,0.1615916528432362,-0.568010911084019,-0.4782952780800711,-0.4920618750471272,-0.46536840734097373,undefined,1495275726715
903d185fccf839df,-0.3923233993850926,-0.6508899937602903,1.336228839752485,1.4489618812968381,-0.8345003645002406,-1.8940079677905277,2.017901986977821,-0.1354782407026887,-0.35976535249284014,0.3443728621534398,0.11161432624445464,0.05697011152735118,-0.5650066844919787,-0.44010997029899124,-0.9065482216272429,-0.006918718945093771,-0.8550355576511175,-0.5136991473820945,-0.9429623171080314,0.10708115815773847,-0.6134198534350973,-0.4729705336135378,-0.4912414604634949,-0.4615719632828498,undefined,1495275728214
903d185fccf839df,-0.29807446060101167,-0.6538250687508973,1.3898214937838411,1.450325165548522,-0.7926272945933477,-1.9101938516042403,2.0070855922378223,-0.2185669930849715,-0.2711066025685392,0.5033315667017818,0.17398209289952693,0.08970899887521994,-0.9392686051693405,-0.4956599606776391,-0.8991797888349639,0.005204924592841477,-0.7916009774070615,-0.5272199840600862,-0.9338594661513573,0.07385131336929518,-0.6258588711037543,-0.46622511859725907,-0.41429723999079165,-0.452253842042242,undefined,1495275729713
903d185fccf839df,-0.33133881426359946,-0.5898404047276736,1.42363644800022,1.6322745078769474,-0.7879061583463504,-1.8871786390334742,1.9284780614844126,-0.7283373993780617,-0.27066655056858074,0.21203232300980632,0.20522492320903093,0.029479481729624436,-0.8739903631907309,-0.47714325404884134,-0.8960218838081058,0.07592614087783504,-0.7608198257495818,-0.5043770569078165,-0.9280940939155705,0.1274071047602188,-0.6028311034890931,-0.4692638537306176,-0.441506919565319,-0.45826193987615493,undefined,1495275731215
903d185fccf839df,-0.36044509352613024,-0.6291704096018066,1.7113794510675724,1.7558356382923963,-0.8010409973514871,-1.9243556256981762,1.868699945528666,-1.1631118587110092,-0.23670712850908993,0.10571130227547633,0.18716595343360032,-0.03257332791931283,-0.8087121212121212,-0.5095474776984629,-0.8781271131966896,0.08602919600259544,-0.7336077098835262,-0.5281002646763134,-0.9110288717102241,0.15065875667060905,-0.6046267972343121,-0.4928475363995837,-0.42603988554727407,-0.4366531589727894,undefined,1495275732713
903d185fccf839df,-0.12482266030240369,-0.5751649713186543,1.6514064347839925,1.7617267878106546,-0.5750745239146221,-1.9053699962512747,1.913703817245476,-0.7822598590301318,-0.16421546034742077,-0.036051748492854814,0.21054813566110087,0.014895224370434427,-0.7782489416221035,-0.5382483367109308,-0.8833902784251412,0.021369660162961816,-0.7359155394493724,-0.5639193934401692,-0.9080342368935718,0.07830146318783496,-0.6373986783931943,-0.467104212174567,-0.5089788487132174,-0.3776655670447287,undefined,1495275734218
903d185fccf839df,0.04288515581416075,-0.689632998250298,2.0099685108624166,1.9408605100990304,-0.5099660608329002,-1.9307680201427937,1.9049439345754187,-0.83346457430174,-0.1680180370955849,-0.3128428676514749,0.17725794417587515,0.03839640817525161,-0.8174158868092692,-0.48454995742159973,-0.9286535126418464,0.13048250853382212,-0.7069221767417564,-0.5019452077925213,-0.888233261488635,0.21168279608194096,-0.5813506424454569,-0.4648958314989351,-0.4687614900571733,-0.3984945670003956,undefined,1495275735734
903d185fccf839df,0.037341102621297736,-0.632692499590535,1.9806200135321541,2.103821200964611,-0.4445284549658226,-1.915199385781442,1.8816201835633415,-0.9432570416754811,-0.14626534241991487,-0.3471930539017209,0.1955998515381323,0.03903977903391513,-0.691211285650624,-0.4521457726243018,-0.8697060503036137,0.3870997525672449,-0.7461338579804335,-0.488931009277394,-0.8809425850383853,0.28481001583533533,-0.5501631306030388,-0.48884789465926076,-0.5416236529679477,-0.37497586149421525,undefined,1495275737258
903d185fccf839df,0.05951738440356924,-0.6473678745435697,1.666080556380649,1.706563998061726,-0.4868438105455516,-1.915560417733816,1.893049314653956,-0.8569349555588731,-0.24302954965638515,-0.5826485700646685,0.2032688592969382,-0.02876652018418616,-0.7564895276292335,-0.46140413888947523,-0.8876008135527961,0.3567905871929637,-0.7209867604152757,-0.5002796428025507,-0.8737498630412008,0.3420460380169008,-0.5417443544056689,-0.5082735534317302,-0.4928430940025256,-0.4064789238980888,undefined,1495275738723
903d185fccf839df,-0.20243937049707608,-0.6784797278999879,1.3164503775266596,1.3280121967858034,-0.5686562477302965,-1.945437570540816,1.9036447954277895,-0.843296975059183,-0.3506270634998638,-0.43922738078519163,0.19727544254525534,-0.014737763417278846,-0.6346368092691622,-0.40215073207057545,-0.891811348680451,0.4254913563883901,-0.7134117495604042,-0.47315564391387427,-0.8630867231061012,0.4604138869643597,-0.503489781021924,-0.4473642692290173,-0.47554311345645567,-0.4091730663425762,undefined,1495275740221
903d185fccf839df,-0.3992535348869908,-0.7530306911173887,1.0963360122073176,1.0572776026600257,-0.6719040744624076,-1.955723490292641,1.901391049669358,-0.9102026521306832,-0.3984514058583344,-0.4397684118861776,0.12982885595284682,-0.06320686249370093,-0.7695451760249554,-0.44936827181029193,-0.891811348680451,0.3163785362822513,-0.7511130813411451,-0.47515052163733273,-0.8683973026104357,0.5257494913564359,-0.4991130285864823,-0.4582687226659158,-0.5593349243291361,-0.4142036272120706,undefined,1495275741714
903d185fccf839df,-0.3576729979188793,-0.7007863124425967,1.237336782760307,1.1690541426369383,-0.6533486785014,-1.952336777719322,1.927292010694612,-0.7296618206895568,-0.339074250481711,-0.09185535470944631,0.07127706276237947,0.02730716669793655,-0.9131573083778967,-0.4577007483507724,-0.8897060737543897,0.29213127747110235,-0.7655889754633647,-0.5210896929304443,-0.8600501072773792,0.5703125946319587,-0.5108893727083302,-0.43421554991728967,-0.5486469928907937,-0.42366578370339764,undefined,1495275743199
903d185fccf839df,-0.2897583463063074,-0.657934173737747,1.2698754612166814,1.2554734388807895,-0.7181691391612882,-1.9297128766041591,1.8979328643997946,-0.9207807131737978,-0.27019430800470046,-0.22326707822898936,0.0014684795073177843,0.028272153561473896,-0.8696384803921569,-0.45307159759512206,-0.8844429232504056,0.1527092354612393,-0.8030527997668835,-0.5453765315346025,-0.8657665015862298,0.4916727308433767,-0.5400013428649493,-0.42111061842641184,-0.5465919807277002,-0.4154088280611711,undefined,1495275744709
903d185fccf839df,-0.15115691296850298,-0.6356276038091342,1.5914331643634632,1.6542102758048902,-0.5699625341289309,-1.9181505328789052,1.8981800601640069,-0.8545528346486998,-0.2517716329840646,0.08292415831840778,-0.07149125340396095,0.05966321861211061,-0.9523242535650625,-0.4151124111698044,-0.8570744670073505,0.1426061803364789,-0.8149089500216854,-0.5309437533589062,-0.8774651695188435,0.39868151646427297,-0.5532996326667615,-0.40126238741722686,-0.6029097292480445,-0.39631795022280636,undefined,1495275746219
903d185fccf839df,-0.1899652508131343,-0.6062767954470802,1.847914018871395,1.9477292329393683,-0.667275510543031,-1.9145239075911153,1.9055487804681217,-0.824533386487139,-0.3060094359623189,-0.1539657716883169,-0.09034500035502664,0.042938045291945344,-0.8609347147950089,-0.46881080340990994,-0.8960218985325733,0.025410950048197663,-0.8760243523371125,-0.5553572505985356,-0.9098324169524393,0.2690266100471679,-0.5940535944965745,-0.46251416148657204,-0.6583012428833173,-0.40610172578379805,undefined,1495275747761
903d185fccf839df,-0.17749120014001202,-0.6461938737753192,2.016987010994643,2.1041049580099545,-0.7583862140495615,-1.9387410067411706,1.9669705256836914,-0.4642347559745508,-0.3009932043144613,-0.003711747128841385,-0.12109017750467485,0.011005746454488275,-0.8609347147950089,-0.4391840676235237,-0.854969199443523,0.06380249733989979,-0.860078128131768,-0.5295125083646489,-0.9094895730726726,0.27161354873405846,-0.5801985889088944,-0.47577488390070727,-0.6385376070906099,-0.3933501295368922,undefined,1495275749220
903d185fccf839df,-0.16224495034340955,-0.6479549333836795,2.180955916625671,2.211420095396272,-0.7157519956580239,-1.9334955596941095,1.8411080135436344,-1.2633995096254473,-0.3327296607679842,-0.3826912813042455,-0.12383870889317013,-0.10306914098520732,-0.7608414104278075,-0.39659567863945755,-0.9328640477695013,0.025410893518754592,-0.8386045608448283,-0.5081578221183832,-0.9370360174696825,0.2578781345343833,-0.5766837864070965,-0.4797185359077114,-0.6661942813744125,-0.42457806256292063,undefined,1495275750731
903d185fccf839df,-0.012555376114469349,-0.6297574099859319,1.7381756510147754,1.8389982104833014,-0.6968468869699618,-1.926368088066193,1.8323875758304882,-1.3052035521259289,-0.3220494475350839,-0.5207940355027525,-0.07974922326109941,-0.01128210331350074,-0.9044535427807487,-0.4197415748762293,-0.948653514005921,0.0052049528575630125,-0.8216714077104266,-0.4833136840110712,-0.9492174649979974,0.20272090566517148,-0.5794945823244921,-0.4901786127721751,-0.6346150660215876,-0.42663025142648775,undefined,1495275752217
903d185fccf839df,-0.1968953518096228,-0.6332795438166486,1.9468055675896743,1.9194297597255585,-0.5753830935094332,-1.9042962175992832,1.7895638132800844,-1.5435758577033725,-0.3683344499380956,-0.5283600879866425,-0.028349204485557337,0.025009845786736155,-0.8609347147950089,-0.3651173706160781,-0.9370745387237533,-0.03520721111203551,-0.8282533380166337,-0.4752075170009494,-0.9379386061522956,0.29766772322175755,-0.5602361204516745,-0.44090689563392554,-0.6139862412558601,-0.4037513388088612,undefined,1495275753718
903d185fccf839df,-0.17471910453276104,-0.6015807046901014,2.0080543513593594,2.102212597703143,-0.5728836688070013,-1.902379253706224,1.8889862620174922,-0.8670601138604015,-0.3107130380747315,-0.26357702941873773,-0.002059267627518727,0.10497228965822868,-0.6955631684491979,-0.3567848940755976,-0.8949692684317765,0.04561697550355385,-0.8314373741343049,-0.43956570950289753,-0.9433331475217256,0.2965128393421052,-0.5438225665815107,-0.4585374383954414,-0.6163264066853257,-0.45264717963492757,undefined,1495275755213
903d185fccf839df,-0.19689528279880333,-0.5927754651042845,1.9231990404946842,1.9751514625499969,-0.570116815745508,-1.901694456487336,1.8886496442934604,-0.8511901141820711,-0.35108252425578046,-0.3861254602938034,-0.03029506006928159,0.16679764772736422,-0.4649133801247772,-0.3864115262557875,-0.9054955841642123,-0.027124772665171496,-0.8265896617318236,-0.4494957650783148,-0.943759952899564,0.37307390758358994,-0.5407430968011812,-0.44937249240436433,-0.5929165071840975,-0.43279072889020753,undefined,1495275756737
903d185fccf839df,-0.1844212666310908,-0.5898403754996814,1.5773971806468088,1.7111946633518984,-0.6797109123870092,-1.9244744171161927,1.9207332743092684,-0.6942678202178096,-0.28767132842216286,-0.574216630364071,-0.0019331760717676292,0.07492264950501829,-0.34741254456327986,-0.39937321830579103,-0.8728639553304717,0.01126660503820142,-0.820947820973719,-0.43787481386216043,-0.9324601031624528,0.29337155503059575,-0.5459313910165084,-0.47300568665853693,-0.5576177617046617,-0.46346025231217153,undefined,1495275758221
903d185fccf839df,-0.4228157954620683,-0.6162560796431361,1.515510004860172,1.671287167016733,-0.5158083298849622,-1.9242508104810814,1.971283409387321,-0.36251838871694947,-0.3427018106440438,-0.6982481533495867,0.009322650845076202,-0.08865409868900233,-0.4300983177361854,-0.36604322148844737,-0.8728639700549393,-0.031166119079850414,-0.8137394768553599,-0.4103835073518016,-0.9174589414319577,0.3172237448056124,-0.5262085749386262,-0.4406048665152766,-0.5387088235184503,-0.4256078493667688,undefined,1495275759765
903d185fccf839df,-0.42974586195314707,-0.6526510387546545,1.5608088995470952,1.6711557582564893,-0.5053272038005537,-1.9462388288390076,1.950765672550618,-0.5560725123598862,-0.2811866468088427,-0.42066750280477655,0.13060172891384023,-0.13766263644652488,0.0007380793226381577,-0.41233493625734363,-0.8928640008679491,0.0011637477664917756,-0.8239603315457594,-0.4206365430824493,-0.9431022533867356,0.2721986883282488,-0.5452565118007052,-0.46598303669962626,-0.5153540318376049,-0.42988378141394357,undefined,1495275761216
903d185fccf839df,-0.4408339683388731,-0.6825888328868376,1.5097680346248996,1.5108027670004511,-0.4976437923839301,-1.9532498381916306,1.9100536510854569,-0.8408613650615381,-0.25537442340418187,-0.39459853449770566,0.12263788870931426,-0.10309498716308507,-0.4823209113190731,-0.4077057596001442,-0.9086534707854859,0.10219404463160192,-0.8281839723897745,-0.456683658516311,-0.9495183288077219,0.26981192854364744,-0.5648943994820339,-0.4621456646293631,-0.45783144565395667,-0.41136129308207314,undefined,1495275762726
903d185fccf839df,-0.3812353275047763,-0.6303444542120455,1.5537906535518187,1.6411813439524934,-0.7031314470062435,-1.942216231844939,1.9059222272252645,-0.9058854308492271,-0.24366455195489872,-0.35189594719844414,0.12316332786699971,0.07693808783764829,-0.7651932932263815,-0.40400239496299045,-0.9339166778702981,0.025410921783476127,-0.790525932473062,-0.4627252873105262,-0.9442007529451734,0.1957454081952149,-0.5824991768703789,-0.452181554572377,-0.42627804497584176,-0.4246277593832303,undefined,1495275764232
903d185fccf839df,-0.35074296593321025,-0.6332795438166486,1.7388140430317272,1.7077882763649779,-0.7596616408264212,-1.9396121422752441,1.91204440811735,-0.8624261339938845,-0.2531980653121254,-0.6693381364245694,-0.0029238309174317977,-0.009467229279197284,-0.8130640040106952,-0.3734498989596567,-0.9465482611665612,-0.06955760984210947,-0.7961640962107509,-0.4733392999116986,-0.9280801008932892,0.13872496551535443,-0.594497551956142,-0.44900779062976254,-0.431936815516084,-0.40819183281726845,undefined,1495275765731
903d185fccf839df,-0.19412335971860104,-0.6397366795679916,1.734985724025613,1.7635410893387975,-0.7050651604921118,-1.9261072129901988,1.906868948615764,-0.8256360100383388,-0.21962755164266642,-0.9038781090880988,0.14007540099191018,0.07553652443016427,-0.6607481060606061,-0.3308615488279142,-0.9328640330450336,0.0739055524646602,-0.6849593092974833,-0.4435871308364378,-0.9132748493229227,0.21667189497783904,-0.552743670430887,-0.46600035588349703,-0.4885160433728104,-0.3982912197317959,undefined,1495275767222
903d185fccf839df,-0.2939164207063644,-0.6749576379112595,1.4491566263243683,1.5860044422263635,-0.6310184300948493,-1.9273300638364401,1.8998499937435969,-0.8527206801430703,-0.19870677902061695,-0.9148173101906407,0.21895800590556155,-0.021844968212703382,-0.8565828319964349,-0.34197157798550265,-0.9370745681726885,0.10017345621842708,-0.7041160109140827,-0.4392427307982737,-0.9134707593362418,0.27640246493129605,-0.5417914139795714,-0.4748562065678863,-0.4637988997997816,-0.43083260244185273,undefined,1495275768729
903d185fccf839df,-0.20659751390795256,-0.680240772894352,1.4727628992824089,1.461383725038228,-0.5165489060592915,-1.9032434012444863,1.8952478423960646,-0.8177205678044367,-0.21774501652573222,-0.31892938140251476,0.28250553480649127,0.009682001447784774,-0.8783422459893049,-0.3012348648446261,-0.8749692228942991,0.16685343914762787,-0.7122277623786429,-0.39445615290690106,-0.8761497697836073,0.3123116407486341,-0.4980874805090827,-0.5154206497999697,-0.5078624386464095,-0.46076795359178846,undefined,1495275770222
903d185fccf839df,-0.2065974794025428,-0.6837628628830803,1.5212517209584948,1.5612067824054738,-0.5810402219633101,-1.9253641862228805,1.844108630818394,-1.2027856822808518,-0.20321850432071492,-0.028022997317981895,0.18063978878556675,0.04996110830227596,-0.7695451760249554,-0.28827317279462256,-0.8497060268528376,0.1426061803364789,-0.7057158214154643,-0.3374976569519911,-0.8633036245613654,0.38471512993122925,-0.4567201207132754,-0.512164547409731,-0.4979107929676201,-0.4652918668445704,undefined,1495275771776
903d185fccf839df,-0.027801522394842623,-0.7025473866649532,1.6373699427934392,1.6198764954560614,-0.5414505700712051,-1.9321609067326444,1.816198491042979,-1.404673117833431,-0.25698198280115503,0.30025452314059775,0.1737365424895109,0.11762293746005274,0.15740586007130128,-0.30771569144346606,-0.8402323191344973,0.17493590585921343,-0.7360180261794929,-0.32793491188839585,-0.8509892367944732,0.3771082970461003,-0.4477132952240011,-0.5012570958103719,-0.5342070568427515,-0.4654983579492931,undefined,1495275773230
903d185fccf839df,-0.24540588625799362,-0.7729892302815082,1.4950936588912938,1.5600310785653764,-0.7316639620727365,-1.935598863850821,1.8489895470944429,-1.284160630936124,-0.28553003135309923,0.08065140459829145,0.20966112614673252,0.09363246397452196,0.1356464460784314,-0.3901148908929412,-0.8791797580219539,0.17695655080183134,-0.7586761747956061,-0.3579340664037916,-0.8773462236605352,0.34688114903890926,-0.47982797015719986,-0.46539717978473766,-0.476536048393453,-0.5104066895553051,undefined,1495275774726
903d185fccf839df,-0.36183103781352655,-0.7301370915766585,1.1441874584142495,1.1654488755679342,-0.7914650071550441,-1.9499027225395937,1.9061168284914873,-0.9465917445944897,-0.29171916316968505,-0.21559207276534223,0.2991315930109794,0.13632234694016301,-0.7782489416221035,-0.4428874063591283,-0.8907587038551865,0.0011637195017702394,-0.757375312543342,-0.4024926575144249,-0.8920325296845636,0.20949622198463286,-0.5273149789636427,-0.436751500633259,-0.4730733489663157,-0.49343098036719746,undefined,1495275776231
903d185fccf839df,-0.2537220005526979,-0.6338665442007739,0.8877068580432671,0.8133979645121804,-0.7142297159092196,-1.9378046540859815,1.9491694012273377,-0.5958077661843459,-0.10585574933619149,-0.2590247165630827,0.3996926464309894,-0.07768268871825508,-0.9175091911764707,-0.4623299897618446,-0.9033902945136835,0.03753459358613291,-0.8025855656139413,-0.4441887577451404,-0.8914657879240309,0.199841394199284,-0.5447019266981825,-0.4259864103777091,-0.5204497124114745,-0.5180667628292507,undefined,1495275777732
903d185fccf839df,0.01932289523908322,-0.6180171246375002,0.9381093309485111,0.859259445167931,-0.5450197183445231,-1.9312408575741118,2.014470108123068,-0.11431625175682479,-0.05149267459227428,-0.4169433726452568,0.5425789695260638,0.06798715946455192,-0.9175091911764707,-0.496585824500783,-0.9360219233474241,-0.03520726764147858,-0.7836946456739753,-0.44536668625466186,-0.9103361872927407,0.1434830821292373,-0.5670335319069277,-0.36697661306983476,-0.5086572176948547,-0.4934576880477323,undefined,1495275779221
903d185fccf839df,0.16485439506796642,-0.6467808887734406,0.9208829119687953,0.9158862725040353,-0.439149041210213,-1.931124394689951,1.9596360163938442,-0.4477308398260458,-0.12330472779876775,-0.3483802150173186,0.5175275710458226,0.06164531407880843,-0.852230949197861,-0.5641716690078395,-0.9412851106625771,-0.13017585579650726,-0.810561995266125,-0.492838431545482,-0.9231403513805717,0.021665977470815813,-0.6184864973647598,-0.3699369778384946,-0.516179272564967,-0.4982219752119673,undefined,1495275780723
903d185fccf839df,-0.030573618002093596,-0.629757424599928,1.2775315909550107,1.2153289699022374,-0.3987879640827548,-1.9312734656832284,1.940151776867408,-0.5921981609962749,-0.26667616854130877,-0.3704676220100768,0.40043268301799195,0.005568138210601357,-0.9088054255793226,-0.5428775004173556,-0.9518114411194805,-0.22918562077788562,-0.7914443649769162,-0.5403418422966024,-0.9306689196269597,-0.03917328028552765,-0.6545579047406155,-0.38296366092444223,-0.5354076871915774,-0.4953619899533897,undefined,1495275782256
903d185fccf839df,-0.07492604354499767,-0.6649783244872113,1.3343149343863776,1.31259595982724,-0.43730789749730015,-1.9355150109173296,1.878196176311109,-1.0289720071204043,-0.29040788669158624,0.04625168978834188,0.3088011338853891,0.004403367343681283,-0.8261196524064172,-0.5669491439203004,-0.9486535213681548,-0.1988765119330475,-0.8149777522559837,-0.5250731149796771,-0.902660685277778,-0.01770784777766048,-0.6360204259989903,-0.39917638369858843,-0.5147538461568906,-0.5049199648561103,undefined,1495275783749
903d185fccf839df,-0.09987435192370069,-0.5798611205316178,1.7522121430053288,1.82817243299673,-0.4143810782043989,-1.9110207316484442,1.9255510907531357,-0.6991707094949909,-0.26632468669024495,-0.12857035518780452,0.3944166906085164,-0.007846207065483968,-0.8174158868092692,-0.5975016269728596,-0.945495608979063,-0.26959778474748414,-0.8363458632864943,-0.527118656346678,-0.8886040923488747,-0.03689431206919052,-0.6505287778979988,-0.4024686099054876,-0.46135589164528007,-0.4676495307100149,undefined,1495275785230
903d185fccf839df,-0.07354009925760138,-0.6056898096769512,1.6411982617995533,1.67844011613993,-0.5473854262827508,-1.9206055509723965,1.9916459993424087,-0.3182912021087409,-0.23186320503192,-0.2658847396955997,0.5156998352726776,-0.07516446774276866,-0.6955631684491979,-0.5206574550529531,-0.9454956237035306,-0.06955760984210947,-0.8121575998242165,-0.526225711531779,-0.8688940760909238,0.021327214673092555,-0.6324121408199904,-0.42329068500487643,-0.4866497960436874,-0.4401891962530926,undefined,1495275786726
903d185fccf839df,-0.04443368197343165,-0.5006140081012534,1.4395865912199313,1.5708369081134186,-0.4375238923998745,-1.9019995872421127,1.9615373449189073,-0.4515974823963203,-0.06946967535708909,-0.12671620945013123,0.6228595774778863,0.0073695194221498304,-0.7260263480392157,-0.5030666381488484,-0.9497061514689517,0.04763762044617177,-0.8188064427770729,-0.5371500386721235,-0.8609107142138754,0.10609565890117083,-0.6188077179137668,-0.4368881961355888,-0.4533493141573035,-0.4447627658816429,undefined,1495275788215
903d185fccf839df,-0.13868272427374176,-0.5628376563581052,1.412789882998829,1.450504634920156,-0.49460951061928543,-1.8944668272826621,1.9463212874129465,-0.544975817315871,-0.016883385589307343,-0.07806533973246323,0.5699281613989775,-0.06136433703897819,-0.8870460115864528,-0.46232995090952095,-0.9654956397920729,0.2820281658168989,-0.8599630862948414,-0.5006152876879726,-0.8679914878548562,0.265100004815963,-0.5716433410554569,-0.4371036153520083,-0.45342722633006916,-0.48591942002994226,undefined,1495275789732
903d185fccf839df,-0.1719470434309198,-0.5029620388657466,1.404495869517447,1.4773590365465126,-0.4488278695861464,-1.8987596144585308,1.9710125367498808,-0.35696365003660485,0.025571125803529823,0.20541690892754025,0.5407993304770529,0.02025191321449371,-0.9958430815508021,-0.39937321830579103,-0.9591798665495257,0.12442071502957604,-0.8410631147308706,-0.4321118370867868,-0.8602600119707032,0.3065064281077656,-0.5259571589858033,-0.4470958261394078,-0.46019321016203096,-0.4804829463860345,undefined,1495275791241
903d185fccf839df,-0.24401987295977787,-0.6861109521035582,1.9423393648405074,1.959371280624029,-0.6959726003550755,-1.9125463808839094,1.9247726615952443,-0.7409911212145506,-0.13410593542083127,0.20061523330972708,0.30482480288502695,-0.0622212959123026,-0.9958430815508021,-0.3790048876369018,-0.9560219394359664,0.06380249733989979,-0.8183063276186567,-0.4139806196207836,-0.8811105082119235,0.48406590540290534,-0.4899753307091201,-0.4524179078482656,-0.5193039307727348,-0.46812528974916395,undefined,1495275792720
903d185fccf839df,-0.21768562029367858,-0.720157851222591,1.708827153684513,1.7536193743203266,-0.7022160152345863,-1.9176613910235858,2.0007398633860225,-0.24827142117174084,-0.2251356161262278,0.05916840057189578,0.2734057444539103,-0.014834969276311418,-0.7477857620320856,-0.3614140059789243,-0.9739167321340839,0.09613227939207737,-0.8183843318091704,-0.4192179636045901,-0.9136666684014163,0.5490627410603797,-0.4833378401549988,-0.44297881399998396,-0.4838464334386841,-0.5192503587237368,undefined,1495275794227
903d185fccf839df,-0.21768562029367858,-0.7037213728192075,1.8109088835289042,1.735711526204611,-0.7226536953160408,-1.9418575287634727,1.9464527775861291,-0.6458800652157255,-0.24299419485744156,0.21405648633974148,0.2624042360905274,-0.026970384266713176,-0.865286597593583,-0.40955739659101015,-1.0160220392372297,-0.031165949491521197,-0.8310551699836213,-0.4581149044628748,-0.9231893284511195,0.5957816239251466,-0.4977011701089529,-0.4515142356975912,-0.47260460085734385,-0.5184633481055752,undefined,1495275795798
903d185fccf839df,-0.11373441589503874,-0.7859035310121865,1.0127569771026463,1.1145418602559123,-0.6623486602752434,-1.96525706658122,1.993260709144305,-0.35165603334531215,-0.20528707435143378,-0.3872054969550459,0.29554851986304725,-0.08148212252176709,-0.8913978943850268,-0.34937816480129014,-1.0539168112127206,0.15877105723020693,-0.7348637960492017,-0.4336950731777715,-0.9474822561513809,0.6272406474064929,-0.48179676316170333,-0.45003996009272906,-0.4484321897838965,-0.5114024985767726,undefined,1495275797199
903d185fccf839df,0.08169356266961154,-0.7688801399086547,1.0287073744593072,1.0456028821051473,-0.5276780383150136,-1.974469207476286,2.0014946436918946,-0.2553147608374167,-0.18534433099182981,-0.138027949596138,0.31350998041180284,-0.02228302770858048,-0.8043602384135473,-0.4271482393966641,-1.0539168112127206,0.3487081487460997,-0.7382028218984744,-0.47788635134598634,-0.9687665544589752,0.600555141946184,-0.5143670096333318,-0.4552501618679782,-0.4132743832382281,-0.5116140983446488,undefined,1495275798695
903d185fccf839df,0.1052558577500988,-0.7207448516067163,1.489351434519072,1.6440766495449242,-0.6384344204723177,-1.9624596498551803,1.9310763167341911,-0.708099419858647,-0.20165441703399029,0.168419340833736,0.20803596903994445,-0.08589179561579059,-0.6172292780748664,-0.35030404157520856,-1.034969425224975,0.02339038989974435,-0.6700278475757933,-0.3798270514231025,-0.9477271442078604,0.5275819099859052,-0.4823154907207322,-0.4462403116408401,-0.346709423247416,-0.5781414777300323,undefined,1495275800230
903d185fccf839df,-0.16917508584530777,-0.6861109082615697,1.7987868051783575,1.8411077343391753,-0.6683760795519976,-1.9396121426449138,1.9106874290063476,-0.8414251804715864,-0.11239587028351367,0.1686269962198756,0.21131439829086038,-0.04018492007230275,-0.9131573083778967,-0.3049381906294562,-0.9402324879240141,0.21938933144932624,-0.660013455456528,-0.34435623188729364,-0.9125961560987194,0.5935950464218742,-0.44656117519846245,-0.40302636721796287,-0.36428463402806716,-0.5503896670795909,undefined,1495275801700
903d185fccf839df,-0.16085897155060352,-0.639736708795984,1.7796464808325343,1.7973572103018893,-0.6130390256680427,-1.907836661224472,1.8802105989553706,-1.0346441712220353,-0.0625728098025766,0.16325548075170135,0.41924220058592215,0.006231823525068348,-0.9218610739750446,-0.31049315340515227,-0.8518113165033664,0.26990443748479903,-0.7209924371871044,-0.31979707575823774,-0.875233185509547,0.5768261352248638,-0.42584509704285217,-0.4061293271851661,-0.49746667707792214,-0.6073710570284834,undefined,1495275803238
903d185fccf839df,-0.07908415245046439,-0.5170504572766447,1.7286056159103387,1.8816483475412507,-0.6081944596222101,-1.8834798060895441,1.9481306047661964,-0.5532651417292334,-0.07874766282734208,0.1125180206371494,0.5538072155848855,-0.0004003027169375598,-0.9523242535650625,-0.26512730245939986,-0.7812849009696673,0.34870820527554275,-0.6478557049920816,-0.3503218645711736,-0.8588046739320156,0.5895760448772839,-0.43005728792716497,-0.3777337370765106,-0.5377965144701616,-0.5822658687966535,undefined,1495275806207
903d185fccf839df,0.044271203617786234,-0.5440531618042246,1.4721250155393562,1.5074143358014034,-0.5701682374569361,-1.911726490304229,1.8962392798731413,-0.9075444972311678,-0.130632909701805,-0.03595716055852878,0.5562596634615947,-0.04460890292794449,-0.7086188168449198,-0.3771532247444868,-0.8497060342150714,0.417408861412083,-0.6876774919807223,-0.39893354113577423,-0.9096854829024799,0.627564010802946,-0.4574624251047365,-0.39884965158161273,-0.6008238110473049,-0.5958633166985898,undefined,1495275807624
903d185fccf839df,0.12466004392511934,-0.6649783683291998,1.3343146802494281,1.464807654128589,-0.6051396082679583,-1.9404227171080868,1.8915030059301587,-0.973759019838469,-0.12648617294787323,0.12592715263137622,0.5499314308340405,-0.016400638383748202,-0.5780623328877006,-0.4345549039170988,-0.8781271352833909,0.34870823354026426,-0.6896109250919473,-0.4246769594211856,-0.9413670429619172,0.4980938805616696,-0.5028241861933777,-0.404270510093829,-0.5775103054636405,-0.5977196921772088,undefined,1495275809123
903d185fccf839df,-0.03473169240215059,-0.7823814702514504,1.412151745118827,1.4657709917156947,-0.7890170127282711,-1.9783357442191338,1.87489050969098,-1.186643490557744,-0.1432907544172431,0.0877718268325682,0.4027627702149844,-0.038893269015963114,-0.7826008244206774,-0.45121994765348156,-0.9160219219833494,0.3466875603329248,-0.6923998388800717,-0.4612243765307681,-0.9180536687476882,0.4929200019089688,-0.5163649095606507,-0.42488897908673123,-0.5340965739679427,-0.5794458455378629,undefined,1495275810643
903d185fccf839df,-0.08740026674516865,-0.7360072415578723,1.4261884912463296,1.5154600821307045,-0.6965177390792759,-1.9499842441096267,1.948277865903747,-0.6622217680505437,-0.027286377400285354,0.3504414159151579,0.46072508861792705,0.025907726674897526,-0.6433405748663101,-0.502140787276479,-0.9623377421274486,0.27798690419638455,-0.7806708132912991,-0.4528015614952034,-0.9546819739990634,0.4502971077138079,-0.531276640148075,-0.45854714160862925,-0.4819434507848296,-0.49676577301464303,undefined,1495275812115
903d185fccf839df,-0.07492611255581715,-0.7465735261380535,1.3745092343071825,1.4350675885227218,-0.6676355104054988,-1.9349676390691608,1.9715279818950817,-0.47715968179285595,-0.060632255738962346,-0.03985460037382483,0.4685406561735945,-0.02741446240475004,-0.7564895276292335,-0.4752916300087499,-0.929706150104877,0.47196531386223467,-0.7717025039471194,-0.468918900336003,-0.9266107693184871,0.5033755498268108,-0.5206220205368076,-0.4014951775270937,-0.5396791931532784,-0.45928838205927963,undefined,1495275813623
903d185fccf839df,0.09832579125902004,-0.7148747016255024,1.238612804383362,1.2932716399199244,-0.5765453768086588,-1.935724642401634,2.0064334025501207,-0.22031766565638597,-0.04005916634768872,-0.05595637442580338,0.4481972771812534,0.008318953339532649,-0.8217677696078431,-0.46695912756672037,-0.911811372131227,0.4901508074338591,-0.7899286331069938,-0.4859291886148176,-0.9081042046720171,0.5912852777605947,-0.5063943461731373,-0.3926802601580279,-0.5612334350632497,-0.45098390546358863,undefined,1495275815164
903d185fccf839df,-0.20105335719886033,-0.7007863124425967,1.858760075598887,1.868952987431918,-0.6861394754186726,-1.9535922374054118,2.048920556542309,0.011648073253959534,-0.09871653984493066,0.13003939493773062,0.4512049059340877,-0.012106198620540198,-0.8043602384135473,-0.469736576577632,-0.8991797741104962,0.2537396453852356,-0.8274317884399252,-0.48033719833447064,-0.9047877171116901,0.5512031246139311,-0.5071034001022853,-0.39617374312977294,-0.5826279505118475,-0.49961849714275536,undefined,1495275816618
903d185fccf839df,-0.4588521757210876,-0.7084175074181748,1.893212659421369,1.9412543145276675,-0.8616957461256012,-1.969806071513489,1.9487512378598562,-0.7107594408269381,-0.17582343314414284,0.03020935500429861,0.31647404000253815,0.009486782289894772,-0.8261196524064172,-0.4428873934083538,-0.9349693006088611,0.07592619740727811,-0.8588253359663078,-0.49989966284329757,-0.9078103388721133,0.47197811890217944,-0.5404252703846724,-0.4111703902062969,-0.5825327030678547,-0.5180776658851033,undefined,1495275818106
903d185fccf839df,-0.37430526101369754,-0.7090045078023,1.6967053294709158,1.661240586513427,-0.9200362255453102,-1.9383916206279013,1.9166360423460713,-0.9213268226438919,-0.07708404173397625,0.5458182507007392,0.3760485682401577,-0.05471278754997894,-0.7956564728163993,-0.4984374744424235,-0.9402324511128451,0.025410921783476127,-0.8666386348329347,-0.5947354954365254,-0.9244487544884431,0.18747644284247358,-0.6379031360573282,-0.4492709712151667,-0.5952390301641008,-0.44886491249294463,undefined,1495275819609
903d185fccf839df,-0.36044505902072055,-0.7166357320058704,1.5448585021904344,1.5734653825576455,-0.941409901066486,-1.9278890815114815,1.971009911660265,-0.5516585425506257,-0.016773328863320076,0.7663004117899226,0.43971313926357497,-0.01887289295320781,-0.8609347147950089,-0.5095474971246247,-0.9402324363883775,-0.08168128164476626,-0.8723441666149723,-0.6122397528515598,-0.9529187772972341,0.044424887352396074,-0.6769281655357348,-0.4530321024120889,-0.566873239474562,-0.4330840166230359,undefined,1495275821114
903d185fccf839df,-0.49350250817648145,-0.6949161332333905,1.5212522292323936,1.5932394704926276,-0.9930543863427529,-1.9297128754407875,1.9981311156341957,-0.3714763443865794,-0.041091432850723406,0.7976511025038283,0.3631073248227891,-0.10326246893560809,-0.7521376448306596,-0.5743558343422842,-0.928653490555145,-0.08370187005794111,-0.8946165592650664,-0.620877887590126,-0.931361603518376,0.07009409739220966,-0.6718338629359172,-0.4672303027721689,-0.5158289032558654,-0.45366304383728595,undefined,1495275822607
903d185fccf839df,-0.4962745002675032,-0.673196563688903,1.4651067695440796,1.521335555756417,-1.0527937154583649,-1.9112699592965707,1.9891740029419738,-0.4018360591352904,-0.1628380491850473,0.5152237416369612,0.1926625313263684,-0.02201931316809409,-0.7303782308377896,-0.49195662194203443,-0.8697060503036137,-0.1079491571338116,-0.8753246364558931,-0.5938488843958037,-0.9190752048973966,-0.09856507555404208,-0.6708818370720846,-0.5240367293125843,-0.4635829158953052,-0.5411405369406772,undefined,1495275824118
903d185fccf839df,-0.4796423751943239,-0.6444327995529627,1.785388705204756,1.8622341925517665,-0.931432777835926,-1.9124042998815718,1.9685089777321534,-0.48088130129943024,-0.14510456326034502,0.445487933883417,0.25629851980865265,-0.1025262422351889,-0.6259330436720143,-0.24475899121667252,-0.8749692376187667,0.01732853986605519,-0.8029606636216311,-0.4792859325852365,-0.9105111087880698,0.09194448962269164,-0.5780424793200947,-0.528257252512889,-0.4230649380246681,-0.5159519488062071,undefined,1495275825621
903d185fccf839df,-0.3410408728457,-0.6555861283592576,2.0788741867812797,1.9738683884762231,-0.7839564542585098,-1.92746283110383,1.9001734619265493,-0.9161657176051902,-0.07122096102870272,0.6298579098576178,0.3343449696034233,-0.012180187175136796,-0.8217677696078431,-0.32345488430747943,-0.8665481452767556,0.1547299369333003,-0.8254580139179875,-0.4548471014946478,-0.9174869293666924,0.14916511448964487,-0.5548941686468087,-0.5134333291236091,-0.47936494255996087,-0.48724733431117445,undefined,1495275827154
903d185fccf839df,-0.3036184447830552,-0.669674502928167,2.2090283923328786,2.243519378427132,-0.7734856143892747,-1.9246328054935455,1.942189873242331,-0.6375354806793629,-0.06690352290372722,0.7121943437093201,0.37881091432543557,0.030858137145292126,-0.5432472704991087,-0.2679048162241843,-0.8844429306126395,0.15472988040385724,-0.7753164399941365,-0.4445940660076135,-0.9213561658854849,0.14075756186242988,-0.5507479261213855,-0.5184723968129433,-0.5090661938631905,-0.49002333801359593,undefined,1495275828639
903d185fccf839df,-0.4935024736710717,-0.646193859161323,2.2670872491134015,2.3674015943666133,-0.8180329749066124,-1.947648017710951,1.8885628691593341,-1.0188725039118693,-0.12300314012628437,0.4324745601503674,0.18808788022965836,0.0068995781886939484,-0.6563962232620321,-0.24105565895645514,-0.964443009691276,0.015307951452880338,-0.7892074821089737,-0.3494542539449706,-0.9229934190495065,0.281884311510174,-0.4900379371882086,-0.5049060281748268,-0.6393998399527643,-0.4403512663721001,undefined,1495275830113
903d185fccf839df,-0.2315457532758361,-0.5534454310021591,1.9742399054168798,2.0181299195154403,-0.8533026308897396,-1.9270785072195522,1.9565512433132044,-0.5505640302549285,-0.2844377510233201,-0.20871941151695317,0.1000404970828147,0.06023556042505352,-0.7956564728163993,-0.4447390692515434,-0.9391798283742822,0.07996726117474168,-0.8590669057266082,-0.4964672089370275,-0.9523660293052643,0.3548883400651743,-0.5640041481136703,-0.4839237936129308,-0.6293903190933023,-0.5207785788663836,undefined,1495275831602
903d185fccf839df,-0.16501697693984105,-0.5041360834759856,1.879176421567765,1.8785833791201616,-0.9196453736310395,-1.928310674364418,1.9113790725548956,-0.8848335022907,-0.23206732626541313,-0.1357665577669956,0.16047557507461893,-0.08739085753562272,-0.7129706996434938,-0.45399743551671684,-0.9518114263950128,0.03551389211407192,-0.8079627536870932,-0.544407592735448,-0.9668004498808157,0.36911650555572867,-0.5992866451629688,-0.4537843348910862,-0.555908397038037,-0.5315783587533688,undefined,1495275833116
903d185fccf839df,-0.3881654285012648,-0.5117673076795559,1.5289078506968241,1.6900284237921743,-0.869626026046215,-1.9248307897334578,1.8869981363603456,-1.041693836207597,-0.19704010331864774,0.1324261322884254,0.18842782757581905,-0.00946154961631279,-0.7869527072192514,-0.5530616657518002,-0.943390363501937,0.009246101419191178,-0.8475585804330502,-0.6575772957189225,-0.9194740211721418,0.3851770851524164,-0.631611360243264,-0.4611384367311615,-0.5760763849522075,-0.47484832201701915,undefined,1495275834603
903d185fccf839df,-0.2980744260956019,-0.6209521996281072,1.3336767965063754,1.4044409502219588,-0.7082845790839594,-1.8897780698864413,1.9254038186166063,-0.737794797487521,-0.28514507287022467,-0.28181783898340695,0.21689571477472208,-0.06124003496712566,-0.6563962232620321,-0.6289800450778227,-0.9286534979173788,0.5224805329565936,-0.8472003069633328,-0.6520613032320571,-0.8935998159204113,0.5184968271591339,-0.5693153187882181,-0.4645308011718173,-0.7471367228837669,-0.5655797026115471,undefined,1495275836110
903d185fccf839df,-0.04166179339863908,-0.5634247005842189,1.5021116507496208,1.6718044321451502,-0.4616027095810374,-1.8261246211533024,1.9407382267061268,-0.45989817797537413,-0.21596401146896996,-0.05020271311205454,0.34005220288383453,-0.07456415137644636,-0.9044535427807487,-0.4502941097318867,-0.8360218281802452,1.0296530014014207,-0.7725265439774074,-0.5647806726397413,-0.8190138130210499,0.827143268761486,-0.4447123027638473,-0.4595606372363437,-0.7291138461015867,-0.3705478399481124,undefined,1495275837615
903d185fccf839df,-0.13313867108087873,-0.29633264261504894,2.166281540892065,2.141154529792962,-0.6298664308162257,-1.7175541227830442,1.9323281052779302,-0.3283777846616813,-0.41532954943572203,0.473965455979293,0.08394317261227159,-0.045143372988071924,-0.8957497771836007,-0.4558491113599064,-0.8718113031429735,0.6477581451622958,-0.6457105348134989,-0.45757660157608687,-0.8080987873805567,0.5026826212760441,-0.4780542180871728,-0.4721262142041048,-0.5321456341625047,-0.3276276547102162,undefined,1495275839105
903d185fccf839df,-0.2717401044186832,-0.427824031422232,1.9748780432968818,2.0476980263959272,-0.7016811600368591,-1.7956465258793537,1.9140430587497204,-0.5744832098156064,-0.5522835272836456,0.3381373829435546,-0.08464476346158314,0.08703217713223121,-0.8087121212121212,-0.38826321504975164,-0.8465481586371485,0.627552034912775,-0.6707970442831211,-0.45211127292654735,-0.8117931039332854,0.45099003673575533,-0.4832249911303826,-0.45471421160985936,-0.46643221182735217,-0.42999864541502303,undefined,1495275840611
903d185fccf839df,-0.162245019354229,-0.7342462111775043,1.8504660621175046,1.9236575522511743,-0.6746914903317415,-1.9359785298075427,1.9587944714290644,-0.517643528823359,-0.33813375622049807,0.18119108669865588,0.14552409621309992,0.008403832735597229,-0.5127840909090909,-0.3780790108629834,-0.826548083650736,0.3992233961051801,-0.7275321608945641,-0.5100893713573742,-0.7885846813622562,0.5174805252498053,-0.4893452591830993,-0.46250925589009184,-0.4558306340770227,-0.452984868384144,undefined,1495275842131
903d185fccf839df,-0.029187535693058375,-0.7054824178135717,1.826221143005563,1.9236575522511743,-0.6366138406435257,-1.9668153273357316,1.9995827545758664,-0.2821446914849953,-0.29259801473618074,0.6929861818645955,0.1700699365217736,0.017691128525195037,-0.7434338792335116,-0.40122492005052973,-0.8254954829988743,0.207265687911391,-0.7447053301646664,-0.48144546795717696,-0.7921950358174411,0.6368184773642898,-0.4596164800245173,-0.4392820313420013,-0.386595281914705,-0.3539971735666208,undefined,1495275843663
903d185fccf839df,0.11357190303398358,-0.6585211887358684,1.8402573808591667,1.875519874269904,-0.6468789706970657,-1.9676864627628912,2.0289050857172373,-0.09747134010098259,-0.2764950859686243,1.0555827572455128,0.13993162515784643,-0.025298871632579042,-0.7086188168449198,-0.3641915197437087,-0.8402323485834324,0.19514198784401268,-0.7610749183318948,-0.4199715837028798,-0.8481765190850826,0.6366336945380803,-0.44997061583365444,-0.47530742169388834,-0.3921872113676179,-0.3874248698471404,undefined,1495275845130
903d185fccf839df,0.2701915437540025,-0.5622506413599838,1.7873026105708636,1.775851687650353,-0.5542665507457007,-1.9364164250136973,2.031342924527016,-0.011014795876755112,-0.2295938018761859,1.3677449543061377,0.11334249083781586,-0.047764342398628,-0.7347301136363636,-0.38178237550013716,-0.8897060663921559,0.03551406170240114,-0.8217002536647067,-0.37624260588304853,-0.869656727607859,0.5123682445791301,-0.4581628348007737,-0.5023381645586215,-0.36936021818251025,-0.3824928695794762,undefined,1495275846627
903d185fccf839df,0.3672126126507441,-0.6156690354170223,1.713931494313682,1.7440749421265485,-0.4441890241808281,-1.9389506380265966,2.00815593010394,-0.13369162225904183,-0.12064446257861194,1.662536750189053,0.16238680188407456,-0.031793225428810724,-1.013250612745098,-0.363265707723663,-0.8360218208180115,0.2699044940142421,-0.738083170996658,-0.32354618221340664,-0.8511291737827565,0.6739903296796045,-0.3985111128121375,-0.46834236989162553,-0.3278599723850293,-0.3268039302137668,undefined,1495275848131
903d185fccf839df,0.07753559178578376,-0.6596952187321111,1.7388140430317272,1.8702937600028917,-0.3143321004885321,-1.9003830948697464,1.9290382153835395,-0.5869784962334418,0.140066494275684,2.012629603132842,0.4708405133340488,0.016950296293509172,-0.9218610739750446,-0.3169740318070904,-0.8654955372626602,0.6073459246632542,-0.6503590472716477,-0.2883476808724321,-0.8691109775706563,0.8309774827815206,-0.36014220098518873,-0.40397548689509527,-0.10943813264355864,-0.2641819229700274,undefined,1495275849647
903d185fccf839df,0.21613695611276873,-0.7072434920359282,2.2045621895837115,2.339038582665639,-0.29283499960367615,-1.904829614446144,1.8869586814519774,-0.8994817787722631,0.2874473789012399,3.205416364504687,0.6555565030036695,0.0012677517861035164,-1.02630626114082,-0.19754147090311783,-0.7897059565005095,0.6497787618401921,-0.6098893769058635,-0.2109147785289605,-0.7984361918963039,0.6770546227466312,-0.315993813366202,-0.38458652184343023,-0.2683677453030915,-0.4127055149732909,undefined,1495275851107
903d185fccf839df,0.11495784732137987,-0.6726095486907816,3.203049999103486,3.3923009094118375,-0.17014719975137055,-1.898785237718557,1.835898363585396,-1.141206889919864,0.19700235813020103,3.2611859173749775,0.48289733032435295,-0.032445808599423615,-1.0088987299465242,-0.1068097172085149,-0.6170741929602717,0.8538602548955242,-0.5736761541810017,-0.1686423797149093,-0.6252021527831092,1.1539444732639954,-0.16231870843945867,-0.40903022341928846,-0.33532022385550114,-0.3466578597081897,undefined,1495275852644
903d185fccf839df,0.15931047989674235,-0.6174300950253827,3.5501283888483153,3.629862318461949,-0.021426301436894196,-1.919764694934757,1.9129885040254124,-0.5826008716395762,-0.10640675510191906,2.830776913773586,0.3060433370714959,0.012059959862929827,-1.0045468471479502,-0.00774551287498061,-0.5728636109310647,0.7366649398130783,-0.6033476128476679,-0.011306725338320252,-0.5822417324221095,1.285462595807266,-0.05046619688045727,-0.4772509213402149,-0.5455492793488251,-0.3595433562205517,undefined,1495275854103
903d185fccf839df,0.30345593192200004,-0.5957105400948914,3.1794437261454456,3.164526875520811,-0.01893716234147753,-1.9447178351735488,1.9623867809963014,-0.2975841450952935,-0.12598933189580458,3.1396379665934946,0.409302447485411,0.013206083386872796,-0.9653799019607844,-0.011448864561359804,-0.7012847924420955,0.5669338172230988,-0.5858628996455001,-0.023852284399077252,-0.6405741451903321,1.5372271804829902,-0.03201956104948715,-0.5319271269514024,-0.6358842183398226,-0.34030138714376956,undefined,1495275855615
903d185fccf839df,0.7733147850712374,-0.5628376563581052,2.6907269362415236,2.8023490344209074,0.10015064331130295,-1.9297548029445106,1.9581554213309846,-0.3170991736204179,-0.026314346945108313,3.6546973652163786,0.3970329786706906,0.0089105786328232,-0.8739903631907309,0.004290315351879034,-0.8265480910129698,0.6800878989497519,-0.5186349292013513,-0.016113426859884372,-0.7787611588302308,1.576447020550039,-0.05058683253709358,-0.4675998565080599,-0.5637935248899092,-0.2827491722186793,undefined,1495275857110
903d185fccf839df,0.5972910961978369,-0.6908070136325447,2.30090220332978,2.4189284103143964,0.06600212075740289,-1.9077295159508996,1.9625682420182007,-0.28043650088298533,0.04713539994499151,3.222927611167245,0.3551643466510256,0.02098668649780845,-0.8739903631907309,-0.13921392790736192,-0.9728640799465857,0.9912615106391617,-0.5683796120153832,-0.13564773895336768,-0.8599241651954322,1.5425858356211528,-0.14234352289258742,-0.4803903527369837,-0.42371397124568033,-0.39260803075552136,undefined,1495275858608
903d185fccf839df,0.6111510911583555,-0.7506826311249032,1.7177593050458972,1.8280185213320657,-0.0972216141863051,-1.8957781892237124,1.9920483650337164,-0.16840322446292447,0.15197172541567333,2.839631587613539,0.5172548017757626,0.0016685489948635739,-0.8739903631907309,-0.18643146764707844,-0.9307587654812062,0.6760467221234021,-0.5588119913713884,-0.17671688076643086,-0.8691109775890075,1.2740985369829427,-0.2302350244480384,-0.42986859646981757,-0.23960270053961938,-0.3343793732197148,undefined,1495275860108
903d185fccf839df,0.3117719427004751,-0.7160486877797566,1.5703791887884817,1.6879828216221344,-0.317695527247108,-1.9025236666799814,1.9257535725258141,-0.6739488793193763,0.0700158463311772,1.9662443740318747,0.5151221578599663,-0.05491004665956764,-0.8217677696078431,-0.30123482599230245,-0.9118114015801622,0.65786108722817,-0.5915481647346236,-0.294135989893132,-0.8700835349553913,1.0543011273826888,-0.3323003241252246,-0.4902997171851566,-0.2121071220449203,-0.4095998086999311,undefined,1495275861624
903d185fccf839df,0.34087842899546433,-0.6849368928793231,1.3745094884441318,1.4841148861122098,-0.24324764592506876,-1.8960367352358105,2.044736515138647,0.13256437159991427,-0.021950027037872008,1.7992658190608672,0.44282673590103805,0.017092833232410072,-0.8348234180035651,-0.29012482273626305,-0.8591797051222427,0.8114273894538647,-0.5915481647346236,-0.30882208787002696,-0.8399902516623045,1.0547784786934182,-0.3330134925534053,-0.43646333114754277,-0.15267429371736888,-0.360270537619987,undefined,1495275863126
903d185fccf839df,0.5238323223815825,-0.726028001203805,1.7451938970100522,1.8935487097567503,-0.270741310225884,-1.8864449280288498,2.035258702408145,0.07757468857683962,-0.040273870062045795,2.28234732920872,0.4175143602460423,-0.06813280761114941,-0.6128773952762924,-0.32993571090631935,-0.8718113031429735,0.8599219353408841,-0.6086764569931542,-0.32326119836375744,-0.8368276930665245,0.9733361018992298,-0.35014735955633963,-0.484251395828364,-0.2781856496004194,-0.3690509009419739,undefined,1495275864622
903d185fccf839df,0.4226531100739645,-0.7201578219945987,1.8383434754930592,1.8087593738254502,-0.40088623519571565,-1.9093017518897417,1.95853674073817,-0.465803357536724,-0.07198789103641307,1.7380903234666778,0.3201780847536923,-0.026896811431390413,-0.5084322081105169,-0.27994065740181845,-0.8854955386267349,0.6497787618401921,-0.6112134760499324,-0.3330139307742946,-0.8401161938849439,0.8235708208155317,-0.3801879303208708,-0.466769920547687,-0.27995913435908354,-0.3844534765864794,undefined,1495275866118
903d185fccf839df,0.30484187620939635,-0.6755446382953848,1.73689988352867,1.7857840798087117,-0.2929789957092633,-1.9546101130866607,1.9586235315851226,-0.4628668889732415,-0.05772148592999881,1.3810477293441075,0.3940462364029204,0.0018397443448321732,-0.0775958110516934,-0.2234648032000267,-0.8518113091411326,0.6598817604355095,-0.5719861927839187,-0.22853935891728597,-0.8566636520487139,0.8540751436274542,-0.327235596573438,-0.4404702946937853,-0.0536129044259636,-0.4034132920327834,undefined,1495275869450
903d185fccf839df,0.25494532846280976,-0.6602822191162363,1.7426418537639423,1.7857840798087117,-0.2771390270152577,-1.9590543017933988,1.9441911586538942,-0.5634326521873654,-0.05859129903346189,1.3598953915158762,0.39481291754948505,-0.13961933539054058,-0.15592970142602494,-0.2382781063393471,-0.8718113105052073,0.8195098279007287,-0.5493924033765711,-0.22800105901476095,-0.8423901578419413,0.925354549011857,-0.30897056917912247,-0.4573485548202344,-0.11259580113445675,-0.417489730985868,undefined,1495275870669
903d185fccf839df,0.19534668762871296,-0.6825888182728413,1.5773971806468088,1.7750074166920402,-0.11901700819133586,-1.9406020693011778,1.9013726625193093,-0.7848489204053033,-0.01544364269877381,1.5058455363670569,0.42338114838774626,-0.053357986074321566,-0.4213945521390374,-0.2540173380556841,-0.8570744743695843,0.6457375850138425,-0.5745517903085081,-0.28585249833396337,-0.8657105281941703,0.8646692774735387,-0.353912457300332,-0.4388749809985927,-0.08709263190062824,-0.4488220496327068,undefined,1495275872120
903d185fccf839df,0.17039858628246837,-0.7113525970227779,1.8172892457811283,1.924200880470294,-0.3059389832061374,-1.89252424251023,1.9089044269718438,-0.7376939417425395,0.11775238774163224,2.0762193503998723,0.4555440877790371,-0.059960883501605416,-0.5824142156862745,-0.21420647578717691,-0.833916516443015,0.6578612285517778,-0.5584452475549537,-0.2674173002247719,-0.8581539713157025,0.9055213548849388,-0.33398749939380457,-0.3954545518460742,0.015145301480585155,-0.40771589517995616,undefined,1495275873641
903d185fccf839df,0.3450363653738824,-0.683762833655088,1.4548985965596406,1.5483702945058138,-0.29469671466865505,-1.883638194707001,1.9765272477071683,-0.29071165786271136,0.23908455253502997,2.196967571942289,0.5787594564740349,-0.07040039774467848,-0.8739903631907309,-0.230871480671236,-0.8286533733012648,0.5891605441505159,-0.6313286352656876,-0.33840960059792224,-0.8561388894223129,0.8732462160296827,-0.36560526740042815,-0.4626017580900085,-0.13645761477915488,-0.4415018384365076,undefined,1495275875128
903d185fccf839df,0.11495788182678959,-0.647954889541691,1.2953961478147287,1.3352819340402666,-0.4906495215886026,-1.9193151520932485,1.9627260202745624,-0.4744774877909303,-0.04530521687971307,1.097007868804898,0.42025402407618145,-0.015330511873744413,-0.847879066399287,-0.4188157110530854,-0.8497060342150714,0.6356345016243605,-0.6512037041114808,-0.4221184490128194,-0.8387378202581837,0.7884931729798994,-0.41785957160734405,-0.43666608346818986,-0.3724455701377111,-0.3545844104652486,undefined,1495275876624
903d185fccf839df,0.2577174585754705,-0.664978382943196,1.4057716370035525,1.5125980496694207,-0.38886226355188036,-1.9067256135186526,1.9409117853545537,-0.5782309205024133,0.1346030443999721,1.2913235171670538,0.5953886459766071,0.08596718800301473,-0.7913045900178254,-0.3123448551498909,-0.8002322722329452,0.5790574324963125,-0.6555903672964105,-0.3641213522935535,-0.8120449863171147,0.7191385763053019,-0.3998934868078346,-0.3350547329756555,-0.09894883042184849,-0.21031215527460145,undefined,1495275878128
903d185fccf839df,0.24385722207708377,-0.5417050579697505,1.4785051236546307,1.5626223883585617,-0.22076311429152165,-1.8763872728215705,1.9230685552359326,-0.6017588930199707,0.12442749116805261,1.216390623081087,0.6090136902698161,0.12404003064304885,0.009441844919786108,-0.3151223818654499,-0.8086533719371901,0.7447472934657777,-0.6580117916371991,-0.36866840522827776,-0.7728978304347186,0.806078196656423,-0.3691283027226855,-0.3978724829739855,-0.20198421302401173,-0.23363080489250454,undefined,1495275879640
903d185fccf839df,0.40324902741517316,-0.5692948213374405,1.9978466866488194,2.206990265979777,-0.2075768485956598,-1.8484620242522807,1.9135986251069297,-0.6206710021815952,0.23698483692013148,1.8665237805205466,0.6579217231615573,0.18709480617852575,0.0007380793226381577,-0.29105064770708333,-0.8139165298034079,0.6720054322381662,-0.647493262628417,-0.345838144063023,-0.7849113560924291,0.866686478538811,-0.35422648699431547,-0.4320994936636312,-0.19866353782240018,-0.24618639730850406,undefined,1495275881159
903d185fccf839df,0.06644741638923826,-0.592775421262296,2.1413987380370707,2.3279946526854522,-0.4113570756411008,-1.8881825411676296,1.9263978895634737,-0.6384758699149093,0.1424645573631925,1.6459078305571926,0.48842306328631024,0.060823198091966034,-0.6389886920677362,-0.34011986328998944,-0.7939164916281644,0.6255315595584863,-0.7117413103172449,-0.3475797031590558,-0.7679440893066438,0.8160563877036017,-0.36369693475237225,-0.4441026217569345,-0.21794614515200786,-0.23255278143642721,undefined,1495275882671
903d185fccf839df,0.09693970894998481,-0.6244742896168355,2.036765473220468,2.153022837928074,-0.4823489585571204,-1.9104221175114895,1.951502010711547,-0.5400792272652535,-0.01893906822362899,1.5465972162527692,0.3821142005359686,0.015573945798608541,-0.678155637254902,-0.32623235921994015,-0.7739164681773882,0.6174490928469007,-0.6571711467773266,-0.35607851365162924,-0.7421258568842031,0.8168109110727511,-0.35688654791454805,-0.45749794700351837,-0.2400665109012119,-0.23543977151505624,undefined,1495275884134
903d185fccf839df,0.26880563397201596,-0.6209521996281072,1.9659456377985483,1.9935112552818917,-0.40993765639960233,-1.9018924438064686,1.9462897365802745,-0.5508957099872922,-0.06232035403055198,1.6238138339736263,0.4543988997582125,0.0025635912882648595,-0.6041736296791445,-0.3271581841907604,-0.8149691230930358,0.6033048608957906,-0.7030403902249941,-0.32176029155378877,-0.7245288774620723,0.8067865193850835,-0.3334457827445945,-0.4489218596972559,-0.5414571639486717,-0.48615846555712255,undefined,1495275885639
903d185fccf839df,0.0013046878568687057,-0.6561730995153905,2.144589427437081,2.174874034252218,-0.4113982203257486,-1.8983752929780113,1.9180350951699259,-0.7237848251202819,0.008286481724192428,1.5525852326721736,0.4728213038955656,0.08608812075349305,-0.5475991532976827,-0.32808406096467885,-0.8012849244204434,0.4840889291354484,-0.7064306486401063,-0.34481220851054856,-0.7274465469859406,0.714626823092888,-0.36773549846213377,-0.42701759810605017,-0.6417212940608316,-0.4660021287367022,undefined,1495275887139
903d185fccf839df,-0.05274986527895537,-0.7019603278248434,2.361513357493362,2.4388467704612036,-0.6004184736933967,-1.9200768139440234,1.8804446477973087,-1.0495275953992556,0.05659905256620813,1.5502690440275677,0.588610330585903,0.09971202445573647,-0.9610280191622104,-0.3243806833767506,-0.7223374533559022,0.47802705083703767,-0.6806726784677102,-0.26693599890820313,-0.6987036486018957,0.6954711566211498,-0.3239601909323718,-0.3858636925014021,-0.6397567619236835,-0.41973648834321164,undefined,1495275888627
903d185fccf839df,0.09416775136437279,-0.7917736809934003,2.4074498817863885,2.470025119627359,-0.47175468099099305,-1.9583764946646633,1.9588786109983565,-0.5571915483581751,-0.04813268413181592,1.3744132768036152,0.5161205819868573,0.018494146692481714,-0.9566761363636364,-0.31419650509153146,-0.7412848687925828,0.546727763503021,-0.6983364372083681,-0.22530322816409165,-0.689565813364507,0.8946192495720892,-0.2665421749020813,-0.38423467353464563,-0.6828920873365626,-0.39561733581033803,undefined,1495275890134
903d185fccf839df,0.32563217919886184,-0.7559657953359881,2.480183368437467,2.6556429892774185,-0.4309924709554509,-1.9290630188746083,1.9684484867529999,-0.44088436125298613,-0.046444266298605194,0.923154505439961,0.5729186532862353,-0.046747238693702314,-0.9218610739750446,-0.2660531533317692,-0.7349690587388668,0.4578210253816815,-0.7288917504930053,-0.25874116981734124,-0.7090239444308973,0.8903230868331627,-0.28936094787798505,-0.36930581637096466,-0.6662782540907064,-0.23914925227363856,undefined,1495275891642
903d185fccf839df,0.21752303842180395,-0.7354202119457548,2.016986756857693,2.0601116473010954,-0.3265926460850132,-1.8922004787346254,2.0633266246300095,0.23812198287696304,-0.09639026992232771,0.9471699053026095,0.6056297342482055,0.0340530254573343,-0.669451871657754,-0.326232307416842,-0.7770743658420125,0.5002538342938979,-0.6908190144905789,-0.26378852553511944,-0.7691055593738708,0.9064298648086715,-0.30709951300690347,-0.4470521807190824,-0.6286948169186936,-0.19561287394871874,undefined,1495275893183
903d185fccf839df,-0.033345644598525105,-0.7448125103716816,2.0744079840321126,2.166993131547671,-0.546624280980935,-1.9326733387462696,1.955962165766065,-0.550373928871167,-0.1169225583822787,0.739437253832012,0.468766765502695,0.027049546028452935,-0.5737104500891266,-0.3317873608479599,-0.7823375605193993,0.42953261800890435,-0.6617375723256161,-0.2808621414180715,-0.7940351958117755,0.8342727524494675,-0.3401600083429095,-0.4473969447682838,-0.542530590387663,-0.18094795041917788,undefined,1495275894636
903d185fccf839df,0.031797118439254195,-0.7800334394869572,2.6192699794873993,2.734488900226267,-0.5116734809378267,-1.9669364479318072,1.8979828275230384,-0.9594029120267453,-0.09769089866174305,1.5547570734057865,0.4254807378763532,0.01459481140496199,-0.45185773172905525,-0.3928924305592747,-0.787600725747851,0.5386454098503216,-0.6646599708245934,-0.2858461684908189,-0.8005072456219023,0.89618990481994,-0.3330967451433273,-0.42976541547165953,-0.5616187118050776,-0.21072594878187592,undefined,1495275896131
903d185fccf839df,-0.08462813663250794,-0.734246181949512,2.5599348469468723,2.6244964625238154,-0.5470459933191891,-1.9707074862767118,1.8783671067273542,-1.093414263336139,-0.15670494036062022,1.1859131023216916,0.399118312881616,0.04290393170130425,-0.7782489416221035,-0.4021507579721245,-0.7791796260436061,0.4275119165368434,-0.6578090498963804,-0.2875053994353157,-0.7961832163288382,0.8221695781654449,-0.34644076960126297,-0.44912032355214776,-0.5741510956946985,-0.21495783890449707,undefined,1495275897636
903d185fccf839df,-0.2384757507560954,-0.6902199986344233,2.1988202193484394,2.3381613094258786,-0.8137746866241579,-1.9480696102019197,1.9316995738699445,-0.8045095949678764,-0.19488150792004844,0.20298494758711447,0.4332877584747302,-0.02241593655184268,-0.7782489416221035,-0.44196162024063174,-0.7928638468028999,0.30627542462804785,-0.651968102008204,-0.340037167671142,-0.8098829718479773,0.6433628298451002,-0.4124194169941532,-0.47065119305438835,-0.5275747795733965,-0.29808647703281493,undefined,1495275899127
903d185fccf839df,-0.44637798702632636,-0.7272020165860515,1.8077189565397418,1.8999783201158489,-1.0087709306333286,-1.952432275512022,1.9588733618666472,-0.6865790134085026,-0.21037997514765125,-0.09164161658286304,0.39970943193148095,-0.049264009412979974,-0.9784355503565063,-0.4280740384659352,-0.7633901450827187,0.2880899875858665,-0.685824909205135,-0.4346450124538106,-0.8046283666838469,0.45553259060850854,-0.4858382336990438,-0.45554580591307686,-0.4618036187192965,-0.3322746231377707,undefined,1495275900622
903d185fccf839df,-0.43251778503334937,-0.705482447041564,1.7911309295769777,1.8894267346657858,-1.0478874406537142,-1.9346392166751356,2.016268875884331,-0.29895675905625435,-0.12833649632742938,0.08676945960085126,0.4690100181237617,-0.10200457989894823,-0.7434338792335116,-0.4762174549795702,-0.8654955299004264,0.16281226232127816,-0.6905521696748886,-0.5054726528973725,-0.8159771952532195,0.41107727491640644,-0.5390402904201663,-0.44623159190955897,-0.40156959421781224,-0.335653801449194,undefined,1495275902135
903d185fccf839df,-0.3590590802279145,-0.7412903619269686,1.6214195454367784,1.5416069584002616,-0.9734601385337854,-1.9278331804153623,2.0028963158439956,-0.3419272840931595,-0.13716668138345842,-0.06733422953115027,0.40247658302798317,-0.10802706092883095,-0.10805899064171122,-0.6224992379051446,-0.8528639392419294,-0.07157822652000585,-0.8172166326751937,-0.6001184958237955,-0.83085241535443,0.15130549712775918,-0.6303090681104511,-0.46492488752688005,-0.5101218088243052,-0.35095528880033233,undefined,1495275903625
903d185fccf839df,-0.16917508584530777,-0.744225466145568,1.236060761137252,1.2856386214016255,-0.9446910445353498,-1.9104826765125127,1.9257719958153647,-0.8199328551053839,-0.14698106896165172,-0.0969177914203099,0.38919361612533887,-0.12622102811233074,-0.517135973707665,-0.6373125280936904,-0.949706173555653,-0.13623764930075333,-0.8576267639085082,-0.646450311933695,-0.8644930823125275,0.09151333246361777,-0.6730924215120782,-0.4594726861780325,-0.5209036688127175,-0.4117383588060085,undefined,1495275905172
903d185fccf839df,-0.23154568426501662,-0.7301370477346699,1.3107084072913873,1.317532228500295,-0.9780475524751353,-1.9081278156736778,1.9351314773414596,-0.7651996871770048,-0.13574381569577365,-0.11403828237028538,0.2972507080224089,-0.13311020536285373,-0.9175091911764707,-0.6215733481804516,-0.9560219394359664,-0.18877342854356557,-0.8906328223434813,-0.6610350814884887,-0.8893457550236157,0.11470338794014796,-0.681253161818883,-0.46583159234522975,-0.5900032722001017,-0.4396567153118773,undefined,1495275906629
903d185fccf839df,-0.4948885214746972,-0.6966771636137585,1.2047983584408821,1.3111298668362386,-1.0324280324854582,-1.9104756892111905,2.045207269337793,-0.061032239890363806,-0.17828222689286433,-0.03989462214753287,0.3346199473547222,-0.13539166421528587,-0.3517644273618538,-0.6030566868793648,-0.961285104664418,-0.025104269046161254,-0.8817937264645125,-0.654752800613066,-0.8788855231055388,0.394939691555288,-0.6132202312151228,-0.4650663464629604,-0.636106784506462,-0.4357948805036679,undefined,1495275908119
903d185fccf839df,-0.3410408728457,-0.6379756638016197,1.214368393545319,1.139960629990099,-0.8967494016487063,-1.8397506705333768,1.9490878542744858,-0.5298663273225305,-0.22792444272535295,0.21690528750243715,0.16072431478566357,-0.23513611354586192,0.37064811720142604,-0.5660232800971564,-0.8623376248735684,0.06582305748835311,-0.8106899500920008,-0.5724561982783439,-0.8231979062189217,0.49995709310686115,-0.53570529202166,-0.38281909546399157,-0.5973661788410792,-0.3082422622999829,undefined,1495275909627
903d185fccf839df,-0.0430476686752159,-0.4166707464579257,0.9923403769968187,1.1252859577648435,-0.6572263742477675,-1.7210200299056486,1.9253880455571941,-0.40335843175275504,-0.2694851034368778,-0.21922207325462256,0.11779253408141073,-0.3067946093572944,0.23138786764705885,-0.516954103366574,-0.653916327472732,0.2133274814156371,-0.6253651636734497,-0.473282299343616,-0.6979549901500613,0.5053619500163465,-0.4371608708248498,-0.28590709203507797,-0.5645567299096348,-0.296318774207231,undefined,1495275911144
903d185fccf839df,-0.016713519525345808,-0.3550341131991953,0.6950270846880798,0.6374453608131365,-0.7224068388591883,-1.6264156481188659,1.8645211831110844,-0.6760119764594752,-0.43881464275466703,-0.29086580324581685,0.01782993362122694,-0.1960642238137915,-0.20815229500891266,-0.560468330272235,-0.6686532004195239,0.08602922426731698,-0.6150917276394376,-0.5027304873216819,-0.7110670136595497,0.3878256177018662,-0.4784604536368511,-0.273993833248732,-0.5175913174470647,-0.27417952994802636,undefined,1495275912650
903d185fccf839df,-0.07631205684321342,-0.2810702234359005,0.5227641655756696,0.5552364289715546,-0.7689290451898236,-1.6238232052521968,1.8718057418479488,-0.6284609552383291,-0.39546051377449554,-0.3667778200868444,-0.005208823132816579,-0.07767307161808994,-0.5606548016934046,-0.5808366868426732,-0.65707423249959,0.12442074329429757,-0.5870762250739612,-0.5217166526768963,-0.7202818137003576,0.363034119187114,-0.49428820176647587,-0.25678949694512043,-0.5040920374754734,-0.2620834001940915,undefined,1495275915086
903d185fccf839df,-0.35212901373683575,-0.29868061492355746,0.4844835168840229,0.48405024459989443,-0.9791275529487696,-1.6473927770444852,1.90956713011203,-0.4690893744420189,-0.2570919662280761,-0.536434134118561,0.019603665569987945,-0.052343057458297176,-0.7521376448306596,-0.5650974680771108,-0.6465479020426866,0.26182211209682116,-0.5513040832775492,-0.5202157452080645,-0.72331842927828,0.3162074453194995,-0.4990829128966069,-0.2600737055830557,-0.4872720474119173,-0.2508610792202988,undefined,1495275915620
903d185fccf839df,-0.8497082363666174,-0.2452622500945112,0.12592118666864935,0.203117379081335,-1.277515628543917,-1.7147590316729175,1.9233367862852888,-0.6212094622827586,-0.43580287447514654,-0.4013869106389437,-0.054918705712648404,0.010942845304607879,-0.7651932932263815,-0.5484324890946007,-0.7644427457345804,0.08804981268049182,-0.47325196453933366,-0.5329322958575808,-0.7567491912616688,0.10095257856636743,-0.5576705053738984,-0.23825610797038968,-0.4089113443488648,-0.16760726181817734,undefined,1495275917122
903d185fccf839df,-0.8164438827040296,-0.2235426367080352,0.14761330012363305,0.22668086155279601,-1.3315361097840566,-1.7338960617727228,1.9434574351073624,-0.5196573664432057,-0.4207924098681158,-0.35463048024508004,-0.04833285054095166,0.012322106416102733,-1.013250612745098,-0.5734300158468513,-0.9286535126418464,-0.43528761745222794,-0.6653371434682815,-0.5871802916417337,-0.8566426589429281,-0.3713639365209213,-0.7043904088416321,-0.24102000970041093,-0.38322647540932203,-0.22224701816749023,undefined,1495275918676
903d185fccf839df,-0.7582312724208534,-0.3479899916777234,-0.017631627130449936,0.09597604905236863,-1.338705239329533,-1.6880775976528042,1.8469225142393646,-1.1160433957383358,-0.41825834027202724,-0.5060558757411886,0.011130224140425962,-0.1443825558876146,-0.9262129567736186,-0.6808267161470277,-1.0065483241566555,-0.5807714105692547,-0.913192563675438,-0.712357257531763,-0.9259110867810759,-0.5406852424598156,-0.816007369464445,-0.34679517122779685,-0.5512645596610957,-0.37877119318610397,undefined,1495275920160
903d185fccf839df,-0.675070371011679,-0.34270685669463086,0.23948685698358516,0.2105473301469027,-1.3303121114483778,-1.6605925774516423,1.8498284496854975,-1.0517022738320059,-0.29750324650742155,-0.707415989682735,0.04884177399879153,-0.2594158023281763,0.12694268048128343,-0.7548934325806352,-1.031811520198117,-0.6171423835801427,-0.9856895304389717,-0.7782705352983753,-1.007067097081682,-0.5645374358292691,-0.880086896430272,-0.4569376883574039,-0.673169682414018,-0.47733561941565533,undefined,1495275921643
903d185fccf839df,-0.4172717422692053,-0.3597302916401511,0.20758657054416232,0.20190891163299476,-1.1167193278158178,-1.6783739891315708,1.833428983239701,-1.1329746920577115,-0.37369186484571,-0.5907035217145609,0.000641779587394635,-0.16942549654450845,0.03990502450980393,-0.6632358668659866,-1.0423378580172542,-0.5969362874629828,-0.9127279445316352,-0.7307734573414423,-1.0196333692632678,-0.5700346818767288,-0.8603408686697676,-0.4692558783876094,-0.6657693115171152,-0.4718609670929251,undefined,1495275923130
903d185fccf839df,-0.5406269948212268,-0.4025824449589971,0.7377741902658428,0.7028578083588296,-0.8521506278981487,-1.719818142489167,1.8941038674141604,-0.7110295543436921,-0.3304369442179205,-0.5437108190028833,-0.04896375084198132,-0.1462096299320427,-0.7695451760249554,-0.5752816593131045,-1.0254957285499855,-0.6454308616147237,-0.8652308512970441,-0.6722633898035414,-0.9953054579979876,-0.5103041103077947,-0.8124419506245861,-0.4306726300473814,-0.676094228719928,-0.4601445090331909,undefined,1495275924635
903d185fccf839df,-0.3756912743119133,-0.47243728819142683,1.6424740292856588,1.4233424197235218,-0.7668410535782876,-1.7662398798174879,1.938197822418701,-0.4276750421317612,-0.42514186932848114,-0.4388032092806827,-0.03107642373859058,-0.06370467792831497,-0.8348234180035651,-0.5141766284541133,-0.9876009565744946,-0.5969362168011789,-0.8429073198414914,-0.5785864866562628,-0.9829630829631205,-0.3383958666243714,-0.7327160076869091,-0.4160244974758808,-0.5920968004526791,-0.43850709526541554,undefined,1495275926139
903d185fccf839df,-0.2537220005526979,-0.5328998329979298,1.5761209048868046,1.4866712778897455,-0.7956410041737098,-1.7946938662151948,1.8692863890822542,-0.9219130886284291,-0.43610019309360565,-0.8006730916919965,0.03856844517466892,0.020085805709823008,-0.9044535427807487,-0.48454994447082517,-1.0223378272042443,-0.39285482267237226,-0.8217378813751913,-0.5240281771523644,-0.9518902455845295,-0.20322831361423985,-0.6758821023417413,-0.4517258438367652,-0.5923038865965076,-0.4719375122071297,undefined,1495275927640
903d185fccf839df,-0.1262086390952097,-0.6555860845172691,1.5869669616142963,1.5248901647070137,-0.7829073129645349,-1.8837034143614397,1.915084461968846,-0.7662662165611158,-0.3817503124783114,-0.9216034163446917,0.16385439155464496,0.02798274754481675,-0.9349167223707665,-0.47899494284280547,-1.0012851736526716,-0.3140511538081539,-0.7917509848647394,-0.4980061113106642,-0.9722439683513786,-0.06307166784702353,-0.6463530559063038,-0.42999691076835533,-0.6177547443150339,-0.4749600319865774,undefined,1495275929134
903d185fccf839df,-0.26342409364020813,-0.7506826311249032,1.412151745118827,1.3882470216896425,-0.6673989418442577,-1.909413556606243,1.966728594764015,-0.47246850327598094,-0.22717307206847712,-0.9404497291145755,0.30759473955432487,0.03191668661538857,-0.9653799019607844,-0.46047826211555676,-0.9939167261359249,0.043596443619822074,-0.6651696534435206,-0.4419595602308253,-0.9696341579922511,0.2659161197590788,-0.5591641271829202,-0.4349545047452205,-0.6095004821075921,-0.4845272564656035,undefined,1495275930629
903d185fccf839df,-0.39786752158877503,-0.7248539419795698,1.5965372508556828,1.569444311164065,-0.7233531337415288,-1.88488666765035,1.928741039211973,-0.7135494793235722,-0.27443047640967067,-0.593537549342103,0.29486303024163163,0.2351017068861908,-0.8043602384135473,-0.4910307581188906,-1.001285158928204,0.10219401636688039,-0.679554688006786,-0.4725350136728302,-0.9864964725414814,0.26882642500606535,-0.5789708547381925,-0.4403550284516774,-0.5866704853665502,-0.4893393834466675,undefined,1495275932196
903d185fccf839df,-0.33688286745646245,-0.6943291328492653,1.229042769278925,1.3061773911911703,-0.7953632995780737,-1.9027193230266173,1.8856358913572855,-1.0161321338903913,-0.2552047897222452,-0.7501037257460466,0.26243599787342653,0.2686691022923566,1.0190786541889483,-0.5197316171313584,-0.9960220084242198,0.476006575482749,-0.6654905291591033,-0.5002543085917079,-0.963665879966052,0.529953263786167,-0.5365190873141855,-0.4408100255178026,-0.6105999668070629,-0.4845219514124555,undefined,1495275933648
903d185fccf839df,-0.5101346677550704,-0.74187737692509,0.5106418330881735,0.4008215589514509,-1.0731799765831085,-1.9245932084223116,1.9229870208533417,-0.8584403375321611,-0.2133683068311626,-0.5776988620522756,0.19324699971069684,0.18676289020258924,0.6752799131016043,-0.5678749688911207,-0.9928641033973618,0.3264815914070117,-0.7233743307360979,-0.6195226363475843,-0.9793947111654947,0.42302646033032903,-0.6120439778663893,-0.4287354418140455,-0.6202665125681919,-0.4982563129969613,undefined,1495275935132
903d185fccf839df,-0.5323108460211128,-0.7107655820246565,-0.11652342998567863,-0.07028368717726981,-1.227393424836929,-1.955744453190095,1.9243282269049315,-0.9395013183557644,-0.24721633314118002,-0.8087860349225371,0.12877101581449696,0.18074662736216782,-0.5954698640819964,-0.583614161755134,-1.0076009984308552,0.47600649068858436,-0.7162072131411157,-0.6646068621433243,-0.9921638914742102,0.45436229503649733,-0.6213940919486202,-0.4242031533083578,-0.6470339510834379,-0.5047376077428561,undefined,1495275936640
903d185fccf839df,-0.48795838597279895,-0.68200180327472,-0.19053268412286228,-0.2347380094516749,-1.2374939774682203,-1.9387596412973047,1.9486434138228033,-0.778502332920093,-0.19200425037084137,-0.3492825251400483,0.1549073947665846,-0.05387361929125306,-0.691211285650624,-0.5697266576850848,-1.0065483609678245,0.48004778057382025,-0.7133727124850388,-0.677823715802898,-0.9918840193082937,0.49793989632260366,-0.6128919728526371,-0.4259350326716674,-0.6962267605893376,-0.5449906750438183,undefined,1495275938150
903d185fccf839df,-0.3895514072940708,-0.5810351505278605,0.023201064807306552,0.022230085699072765,-0.9689241439272446,-1.865884734193513,2.007472177013305,-0.2373499612558789,-0.2329533798631494,-0.36714475114600653,0.19108773204590246,-0.07673348447914285,-0.7129706996434938,-0.6280542136316152,-1.000232528827407,0.5830987223815483,-0.7152592540004962,-0.7267773697702747,-0.9860276883965349,0.6311056488803413,-0.5978362374613436,-0.42289430139466383,-0.6995190904268533,-0.5778357667490727,undefined,1495275939640
903d185fccf839df,-0.36876124232624424,-0.33859775170778117,0.2662830569307884,0.22460972138248023,-0.8643906069198081,-1.7141813837106097,1.9322097557418918,-0.4564538281090822,-0.312614753312718,-0.30458145928140473,0.07716629020697356,-0.29645451565454456,0.21398033645276296,-0.6947142525940134,-1.0076009616196862,0.627552034912775,-0.6702959972665817,-0.7638250900670877,-0.9839146509918282,0.6070686763868136,-0.6210351372495222,-0.4220063168421944,-0.6517537454298787,-0.5747591780774067,undefined,1495275941112
903d185fccf839df,-0.28005621871338743,-0.36207829317665197,0.2771296219321791,0.23743911612105167,-0.6722743579593767,-1.7624967923051431,1.9853160498351512,-0.09614853900438787,-0.42200246065818353,-0.5242070254352376,-0.1253620964888863,-0.2497972748384335,0.8232439282531195,-0.5447291115066725,-0.9612851267511194,0.3062754811574909,-0.5875215318444892,-0.6010114406553043,-0.9337475161068447,0.4896093351821932,-0.5603036287636948,-0.43456087774117785,-0.6251819169841258,-0.5937014634586498,undefined,1495275942614
903d185fccf839df,-0.026415578107446342,-0.633279485360664,1.0861280933598279,1.1303769185222985,-0.44747016715556337,-1.8937936769552588,1.9365147387742714,-0.4977143291188501,-0.4519719068093898,-0.8041384528397911,-0.04459491326184255,-0.15560085470150603,-0.499728442513369,-0.35863655696801267,-0.9497061588311855,0.1749358775944919,-0.6638629659087357,-0.5412347855556983,-0.9209503485179202,0.43576097542791037,-0.5507166540154802,-0.45591928806945586,-0.5763125967650334,-0.5715174097749854,undefined,1495275944161
903d185fccf839df,-0.32856668415093876,-0.6074508546713153,1.3706811694380177,1.4659015040227372,-0.6149624497679115,-1.947324252998035,1.9099878887147559,-0.768264128020151,-0.47221672624517036,-0.8101661705679689,0.02255598131786841,-0.02998930293705452,-0.5214878565062389,-0.2540173380556841,-0.9328640404072674,-0.015001157391957782,-0.7817005831451368,-0.4315988663124451,-0.9047317413278597,0.33725712418902987,-0.5355595086234817,-0.4566849415747698,-0.4760313736268867,-0.5235823775732971,undefined,1495275945614
903d185fccf839df,-0.3341107718492115,-0.7383553015503579,0.870480184926602,0.7753921991353518,-0.9477458864791505,-1.9680381773293774,1.9416533825986488,-0.7409056944564625,-0.36099676994236,-0.7418747666914782,0.0830462781687269,0.015745735396091226,-0.6650999888591801,-0.45770073539999784,-0.9076008590902735,-0.025104240781439715,-0.851848543048438,-0.5142817785215413,-0.9811719008345517,0.3979116024982037,-0.5923905522837996,-0.44102973985121174,-0.5290568040142756,-0.4996923096871779,undefined,1495275947110
903d185fccf839df,-0.6002256356553236,-0.7964698302063637,0.6886472307097548,0.6331887116140507,-1.1560929732203309,-1.9780143089252868,1.9178089383571832,-0.9622930941146908,-0.31891313666404225,-0.9496164777556967,0.016825931810152194,-0.07955562434101175,-0.7216744652406417,-0.5317674583089925,-0.9276008457298806,-0.16250558131924175,-0.8530702323424918,-0.5349398408414872,-0.9789888956452826,0.2779423126395673,-0.6227343328927365,-0.4287546766396413,-0.544122915706777,-0.5154332717419919,undefined,1495275947647
903d185fccf839df,-0.6154718164411066,-0.7753373195019861,0.6886472307097548,0.597123373325191,-1.189017491118906,-1.9516123826350447,1.900323362033379,-1.0750299785837747,-0.29054769894732,-0.9064881011873507,0.040722623282412794,-0.02794544724008591,-0.7303782308377896,-0.6160183983555301,-0.9276008383676468,-0.12613459417599293,-0.8263572484663242,-0.5638623931378465,-0.9847262803928802,0.4179141806424025,-0.6048402300759044,-0.46268434422744853,-0.6220579446442368,-0.5529405245713462,undefined,1495275948783
903d185fccf839df,-0.6556662365947731,-0.7283760611962905,0.5559407277750967,0.46464382308533303,-1.1833603576037108,-1.950757552622655,1.9302479234055339,-0.8924993315347881,-0.33752985337827135,-0.7470514066973113,0.07276345751477141,-0.00505656656441571,-0.8304715352049912,-0.5567650433397285,-0.966548255168402,0.31031677104272676,-0.7525549341506848,-0.5639447212727726,-1.0091031690100927,0.8309774776119938,-0.5186729139541927,-0.4676407156041878,-0.5861356107608389,-0.6018068131532327,undefined,1495275950287
903d185fccf839df,-0.5752774307928498,-0.7500956161267818,0.17504738381388907,0.17567234582860525,-1.1802849328188516,-1.9907389438701295,1.9657897418334707,-0.6865990796010655,-0.3168304056861105,-0.8623706433646873,0.09343289793082567,-0.10155540234643053,-0.6215811608734403,-0.4817724436568153,-1.0139167643111684,1.4499395462558555,-0.4013740186539483,-0.6178127400321054,-1.0283513954320957,1.821236106638435,-0.28245472948143424,-0.45659984756862104,-0.823185033133789,-0.7964400205423879,undefined,1495275951818
903d185fccf839df,-0.7804075542031249,-0.7377682865522365,-0.1949988868720291,-0.2566615746033302,-1.3349612442791847,-2.001271763178832,1.951538830055082,-0.8185658245955418,-0.3047660203576146,-0.9405341062958783,0.08007266444738476,-0.01426553712823008,-0.6346368092691622,-0.6086116949827717,-1.0476010085212382,1.6782681285340073,-0.24485044942661255,-0.7123509238350991,-1.069849480552039,1.5277263406523047,-0.3916630649036895,-0.4577324442880483,-0.6961748412886506,-0.7211560906243545,undefined,1495275953390
903d185fccf839df,-0.763775377371831,-0.6186041250216255,-0.10440109749818247,-0.08809631609694038,-1.4281393719422002,-1.9196761834716376,1.927573420091898,-0.9275057296957085,-0.28663920324616887,-0.9026772321622758,0.08661620117409065,0.042066100340079716,-0.6389886920677362,-0.659532554031931,-1.1002326571246381,1.7853604167564143,-0.31303205483351126,-0.780100755583745,-1.083584220743385,1.201756645513127,-0.4911206337699577,-0.45982106875138606,-0.7136642241836186,-0.6717883004551612,undefined,1495275955319
903d185fccf839df,-0.4740982702433463,-0.5581415071451418,0.5833748114653527,0.49525403607657575,-1.2129008783198856,-1.8943224134825845,1.9431366106075376,-0.7494612641190552,-0.3100023051380814,-0.9852105983894073,0.030156744717202835,0.10309709972931193,-0.6172292780748664,-0.6493483563205501,-1.1012852872254348,0.5346041764945288,-0.5187079952342454,-0.7545029971400666,-1.0629366318157252,0.90181033015165,-0.5472469811636914,-0.4411909837862723,-0.733241465118707,-0.6815315638981929,undefined,1495275956814
903d185fccf839df,-0.4311317717351336,-0.7043083878173289,0.5699767114917511,0.6180034219305276,-1.1464449849590912,-1.9077132111481683,1.9070767036131528,-0.996697287552854,-0.3619444036294364,-0.930632165900584,0.05648040766531885,0.03925201679113804,-0.7651932932263815,-0.5956500158835427,-1.017074654613559,-0.1039079803074619,-0.7883516432291788,-0.686981150632967,-1.015547231595064,-0.08405974411695613,-0.7626341622926646,-0.4192335298624891,-0.5639758049336955,-0.4858333887037067,undefined,1495275958298
903d185fccf839df,-0.42835977964411187,-0.7401163611587183,0.46279140342903924,0.48500162221861354,-1.1090153324658514,-1.9183345433986683,1.9449853388732403,-0.7528765607766853,-0.3956733319622073,-0.6209578504720702,0.03498822310660487,0.03219579284119437,-0.8826941287878788,-0.5076957759537242,-1.0065483241566555,-0.031166006020964268,-0.8351840028801376,-0.6570326603258537,-0.9977543418904634,0.1367385664297282,-0.6922000172282493,-0.4177944193923846,-0.6847036399782157,-0.49454922169375026,undefined,1495275959875
903d185fccf839df,-0.4131136333637386,-0.5422921606518489,0.15144161912974716,0.2081528301659891,-1.0442360133137838,-1.8100668455532003,1.8717163149124016,-1.081339324160415,-0.35066948881442583,-0.6189909600146304,0.005627693023521867,0.006877022414705207,-0.9001016599821747,-0.5641716625324523,-1.02128518237898,-0.14634064789607065,-0.8685362933157103,-0.6907999172816042,-1.0045062648391196,0.2127144974463892,-0.6994379642275101,-0.4069308370505617,-0.6648869629766959,-0.49029249487939186,undefined,1495275961305
903d185fccf839df,-0.43667585943340637,-0.5012009938713825,0.21715635151164986,0.19394540629587578,-1.0776336767050214,-1.8159318688971429,1.94060408839785,-0.6336877681762662,-0.3519612890196244,-0.6206965293187958,-0.03018701263912358,0.07096292677166002,-0.843527183600713,-0.6891592315398318,-1.0465483784204415,-0.1261345659112714,-0.9525098078828403,-0.7020725587658749,-1.019682347789676,0.16681173039978808,-0.713574888665244,-0.4194549189754083,-0.6931796783247149,-0.4980772401629305,undefined,1495275962811
903d185fccf839df,-0.3147065684214861,-0.5328998914539145,0.34348274633103343,0.29790117466623006,-1.107205056636865,-1.8316239538897552,1.8949506667482592,-0.9491174104209916,-0.2708062587093192,-0.5904366835404486,0.027356130601277725,0.11635371422558442,-0.8130640040106952,-0.6743459024989623,-1.0528641884741574,-0.21100018373570428,-0.9501975583709543,-0.673713637172297,-1.0094110301261758,0.2126837003266372,-0.6911006460858504,-0.4279903638669161,-0.7045717102748424,-0.49664932944396706,undefined,1495275964312
903d185fccf839df,-0.4907305333381645,-0.756552781106117,0.8385796443502297,0.8731658971183361,-1.182763786413281,-1.9303836964949959,1.9563855656949949,-0.6827423888652565,-0.3375922995472019,-0.5988149766586444,0.07502115829274632,0.1491256247252077,-0.6346368092691622,-0.5975016787759577,-1.0697063068980754,-0.09986663389278298,-0.9075207436657519,-0.6502057516259846,-1.0002941857496115,0.19223456660484298,-0.6854856330192266,-0.437460786139309,-0.6683840096800743,-0.481627272841626,undefined,1495275965818
903d185fccf839df,-0.4865723554218783,-0.7442254953735603,0.8704804390635513,0.9379991811321154,-1.1652369529622466,-1.9480276832952852,1.934850085752045,-0.8410099282684901,-0.28805273656538566,-0.48713213622419155,0.11648738826756726,0.11608292387034926,-0.2647267713903743,-0.5975016917267323,-1.0507589282725638,-0.08370189832266264,-0.841225410415972,-0.5938742178370496,-0.996438942730231,0.12891615520065303,-0.67772857553115,-0.4588267566540132,-0.5225297468263674,-0.4623382816759464,undefined,1495275967314
903d185fccf839df,-0.4976605480711287,-0.726614986973934,0.8864308364202121,0.9501213480307144,-1.1101570447230915,-1.9458708086085867,1.9232315941467433,-0.9021493689411287,-0.2679781223518706,-0.5453574498051456,0.058111044807561726,0.15672232101284717,-0.44315396613190733,-0.6178700741987198,-1.0549694413135173,-0.01298051244933986,-0.8200917963023198,-0.6013280928720033,-1.0210467260023839,0.1483797910121107,-0.6862942326840313,-0.460152471677914,-0.48805437707529015,-0.4741795220845651,undefined,1495275969913
903d185fccf839df,-0.46994031661222335,-0.7066564478098144,1.0382774095637441,1.0495557642523683,-1.086541086339293,-1.943886296579331,1.9338560106150908,-0.819035686929404,-0.28854532317724896,-0.6336542029747649,0.04384743592995539,0.00871872988698873,-0.8130640040106952,-0.55583916656581,-1.0697063142603094,0.007225484741294791,-0.8077306904399869,-0.5708476352240125,-1.0299186822062447,0.18679891424493203,-0.667756686263004,-0.4598897556404824,-0.4779661822801748,-0.4756914182166081,undefined,1495275970745
903d185fccf839df,-0.4325178195387591,-0.5945365100986486,1.3483511722399812,1.4104055576373664,-1.079485098294936,-1.92404583653926,1.8442059162624396,-1.377602851312106,-0.3258296368326544,-0.816907900834467,0.007624338628525394,-0.1056411639474967,-0.691211285650624,-0.5206574809545023,-1.0476010085212382,0.08602925253203851,-0.7416610820618408,-0.5239395210567602,-1.0133922143405294,0.25427489956540916,-0.6333150321494824,-0.46931288843886676,-0.4488418250514434,-0.4539461382860302,undefined,1495275972254
903d185fccf839df,-0.4269737663458961,-0.5763390305428895,1.818565267404183,1.7244173819386879,-1.0733136839128552,-1.9302020158414392,1.9134276753115316,-0.9052255422388087,-0.29235783230127593,-0.9869994771484768,-0.06551843810413151,-0.13526689151016358,-0.5432472704991087,-0.444739108103867,-1.0602326212664366,0.09411163444945946,-0.6633818580369114,-0.4992917025922776,-1.022390112614103,0.29224746683022795,-0.6173358247422032,-0.4797334874478871,-0.43562878068023037,-0.42239852747749074,undefined,1495275973752
903d185fccf839df,-0.28560034091706993,-0.5757520155447681,1.8549317565927728,1.8143821701398404,-0.916590518491802,-1.9231770296663424,1.8990978736193203,-0.9458568099662534,-0.3166123323758017,-0.8377081386222909,-0.047731604640448476,-0.16348948609485237,-0.7173225824420678,-0.4354807547894681,-1.0812852600935419,0.029452268198155045,-0.6082934692713058,-0.4525799107088444,-1.0406447921668858,0.3460804307911393,-0.5906838266700728,-0.4610721871830801,-0.4454769666115727,-0.42891905330612545,undefined,1495275975288
