UUID,iqrAccX,iqrAccY,iqrAccZ,iqrAccXYZ,meanAccX,meanAccY,meanAccZ,meanAccXYZ, covarianceAccXY, covarianceAccXZ, covarianceAccYZ,pressureDerivative, pressureIQR, iqrGyroX, iqrGyroY, iqrGyroZ, iqrGyroMagnitude, meanGyroX, meanGyroY, meanGyroZ, meanGyroMagnitude, covarianceGyroXY, covarianceGyroXZ, covarianceGyroYZ, class, timestamp 
903d185fccf839df,0.40324902741517316,-0.3048443308598167,-0.30377966670322115,-0.5578241335021901,-0.6762296569384769,-1.2501410291213049,1.7004040663075153,-0.9057096355180527,0.36358979636927413,-0.8569455244190779,-0.0763379360115477,-0.577112445389903,-0.02102133467023172,-0.34660069636421664,-0.9012850343120898,0.6174490363174576,-0.3010943330369942,-0.3860839923844134,-0.6998695732843994,0.8984142734701382,-0.34665307645734367,0.25304450859144884,0.5593714829884419,0.4277368434768308,undefined,1495454198466
903d185fccf839df,-0.11165551671664918,-0.6139080196506506,-0.19308472736897206,-0.339123906437441,-0.9657954157310269,-1.4919795843238155,1.7757315745599522,-1.0877759472378077,-0.010655988338628419,-0.4766902286804673,-0.07633860358874572,-1.0851658322695934,3.005713151737968,-0.6234250110728666,-0.9644430244157436,0.7447473499952209,-0.48257144868090923,-0.5300611478513493,-0.8943015522033322,1.1556912792432952,-0.4169028770407541,-0.1236374449999055,-0.12946564519651227,-0.13581201034549872,undefined,1495454199948
903d185fccf839df,0.1565384187949011,-0.24702332431686772,0.22800291651304058,0.033894564853742135,-0.7287085414982533,-1.6306533117251767,1.869018732365819,-0.589147844102005,-0.38293535083305563,-0.365630450310647,-0.1370593426473444,-0.5112215249402167,2.7163129456327986,-0.4447390951530925,-0.8760218603573298,0.8215304445786251,-0.45875505913226744,-0.410359323316361,-0.8930451604824918,0.9969293234168866,-0.3771407479336062,-0.21875230698724893,-0.3978934879985686,-0.24318575580760673,undefined,1495454201456
903d185fccf839df,0.1357481158054356,-0.29163640571810845,0.8685662795604943,0.8413789394006683,-0.5927659143625847,-1.7956744747367188,2.024947233599493,0.19252265069613025,-0.5703192649129437,-0.3156540732934024,-0.12261272491818975,-0.27942940469991095,0.4446301247771836,-0.23920397016249098,-0.8686534349272844,0.37497605249986654,-0.46308347599963373,-0.30452872290985383,-0.8522967243112738,0.9920576892009765,-0.3236733202812756,-0.26005069471239844,-0.40859653889093994,-0.27875928187616955,undefined,1495454202946
903d185fccf839df,-0.08324205432347272,-0.47654633472229185,2.6122517334921227,2.5470398481402228,-0.02844114422045344,-1.8513945365122804,2.0344381979661184,0.4724593189344755,-0.46285725599528954,-0.8221835646871467,-0.2259160796299127,0.04155382066233205,0.07907196969696971,0.10335462329160969,-0.8802323660360494,0.4780269660428731,-0.22820378287597495,-0.03581906728186727,-0.8434251169606922,1.0429535117501023,-0.17296598326100932,-0.23748270721425893,-0.15454483270430294,-0.338412511011902,undefined,1495454204449
903d185fccf839df,-0.08740016322893944,-0.41843184990827453,3.120108847741868,2.9767844459982413,0.14122142440603763,-1.7888940613845175,1.898272105904039,-0.2134122750357343,-0.5632173039723478,-0.4023562304618897,-0.39974903101450454,0.08938248370783208,-0.41704266934046347,0.08854124244764201,-0.8560218295443198,0.5022744227070728,-0.4045929616827329,0.024949376926842185,-0.858811672217104,0.9233835492198025,-0.15853158269784917,-0.36137443774730266,-0.42741694843238226,-0.48271289247786076,undefined,1495454205961
903d185fccf839df,0.08307961047323703,-0.37029653237834376,2.79153264446286,2.8921656741983695,0.22965784524219104,-1.820266584969338,1.817800043447383,-0.769202768137366,-0.6379628305932887,-0.07892883542341333,-0.36279336509734195,-0.04971374264625454,-0.6476924576648841,0.16075628951344717,-0.8223375558853149,0.5103568328892153,-0.28344088369739956,0.16044904127124365,-0.8118000994228769,0.8854879748284057,-0.0879346696644075,-0.37405898900121537,-0.39790049482907824,-0.5098493670041603,undefined,1495454207463
903d185fccf839df,0.2882097856416268,-0.3133560483325768,2.5242057332274364,2.397923585156084,0.14031628093009593,-1.8332916890229614,1.7990337585981528,-0.9305419866738487,-0.595390467797804,-0.3591570175965236,-0.3491171628290633,-0.06698965195866143,-0.5954698640819964,0.2005671258804053,-0.9012850563987912,0.4052852744035908,-0.2918817105235338,0.19091683277165652,-0.8331123854816939,0.9192413721604088,-0.08245030464311169,-0.3606267017256206,-0.3248488361463552,-0.5077424882082422,undefined,1495454208942
903d185fccf839df,0.6236253488639362,-0.3415327974703958,2.383843100554449,2.257164233032605,0.08209924338236692,-1.8296673931225282,1.8138500755024212,-0.8822195726529419,-0.5982064476879272,-0.581944575767856,-0.26209474009876765,-0.043087750832742265,-0.6607481060606061,0.08854124244764201,-0.8528639097929943,0.6356345016243605,-0.34831731222147816,0.12721375147919767,-0.8315171116047305,1.0089527152900872,-0.09610308159540526,-0.34848733836245205,-0.3393128182977529,-0.5283073205887685,undefined,1495454210450
903d185fccf839df,0.36305457275609687,-0.316878123707309,2.2811237411039547,2.094401844308211,-0.06307308523873982,-1.8413042726427389,1.8100526366821121,-0.9798970348097539,-0.5168273350474949,-0.6086336912713196,-0.26276558224278257,-0.08515192000633649,-0.9131573083778967,0.03576867517835671,-0.8507586569536344,0.43559432671898585,-0.44417226226814804,-0.026448792801707834,-0.797351683806414,0.941091767931478,-0.18086316785378126,-0.3999922444729656,-0.41005962877551033,-0.5449829322437341,undefined,1495454211989
903d185fccf839df,0.27573552793604605,-0.39906035497026876,2.6569124902990437,2.4441225551420525,-0.1736546198628166,-1.8494472929556198,1.8326689695149467,-0.8861409010351603,-0.43306952759939304,-0.3641618036491939,-0.2616994276150894,0.10288904814035141,-0.9175091911764707,-0.07810885819604707,-0.8707586877666442,0.4760066037474705,-0.48144493292305257,-0.09590852009623604,-0.8272000791959476,1.0235504446829602,-0.21609334595279073,-0.37836040941629734,-0.3483836728392316,-0.6016784205403963,undefined,1495454213462
903d185fccf839df,0.04288515581416075,-0.5358349226025328,2.908927142057809,2.6816824716614462,-0.4518930079137689,-1.9114795918926022,1.8358484039975378,-1.0684033045864378,-0.34701672112290266,-0.3914036010176008,-0.277405031446007,-0.03910948464753638,-0.7869527072192514,-0.05403722764387687,-0.8739165927935023,0.6073460377221404,-0.4732081724051259,-0.004258159789442744,-0.8207770070191381,1.0809096472257607,-0.16838819368696037,-0.41000014265646567,-0.1087379128596262,-0.5527834200012091,undefined,1495454214944
903d185fccf839df,0.09832582576442978,-0.5687077771113267,3.127126839600195,2.958708504295221,-0.42344276962929295,-1.8937238004954107,1.8130006542212724,-1.1671027337459534,-0.3206558467535918,-0.46817408900338764,-0.3035192074396028,-0.08176160536157885,-0.6607481060606061,-0.06699890674310587,-0.8497060268528376,0.7043351860256223,-0.502045088707568,0.06580952788344874,-0.8011649461868655,1.0872846027520109,-0.12512920541328948,-0.39985365284408825,-0.11299939247530699,-0.5495662033778506,undefined,1495454216456
903d185fccf839df,0.06644751990546748,-0.6056897804489588,3.236864445045966,2.941485256200329,-0.4357444591822323,-1.8931717713557357,1.8398273008281216,-0.9562616358252042,-0.2649154949976787,-0.9064629826213054,-0.36510242304545626,-0.03317542105978001,-0.26037488859180036,-0.012374611827532772,-0.8707587024911119,0.7346442383410173,-0.5254205465007594,0.10487745968270262,-0.8453288164832714,1.151141953500309,-0.10456749151241508,-0.39379857427836606,-0.06551207197383753,-0.6189918704353284,undefined,1495454217943
903d185fccf839df,0.13852014240186714,-0.6097988854358085,3.1277644692062982,2.8224420514330224,-0.3870622518943257,-1.8890490177851915,1.8557034421460228,-0.8608784052358823,-0.31442794686230474,-0.7661835309198346,-0.3682760598509362,0.003199048203765948,-0.32565313057041,-0.030891292554781458,-0.9118113794934608,0.7124176527372079,-0.5151309326834262,0.11772700270311091,-0.8801379509128275,1.104854223136657,-0.12066039389639276,-0.3507264155160795,-0.22033004342945872,-0.5568683852773487,undefined,1495454219456
903d185fccf839df,0.1246600094197096,-0.6931551320810149,2.7015729929690155,2.5989724911069523,-0.5095443378418715,-1.9311267242680326,1.9249672644327496,-0.5546999130803594,-0.2594637291941671,-0.8018549552088354,-0.2387495531558447,0.06214947012427075,-0.321301247771836,-0.0012645826699442862,-0.8886534436535929,0.8680044303171912,-0.48618636802899057,0.16866287036691088,-0.8707972088267749,1.1772885110006317,-0.0786040792624553,-0.3474044436080268,-0.1553623627205127,-0.5265268172335763,undefined,1495454221021
903d185fccf839df,0.056745288796318266,-0.6731965783028993,2.5618484981760306,2.4799935263655413,-0.4751181107963626,-1.9289069596979662,1.9282334829534022,-0.5712246427673836,-0.276384950210582,-0.6429383259382947,-0.05193989023938412,0.06518415060522936,-0.691211285650624,0.04410120352193535,-0.8539165546182587,0.9084165377573467,-0.42751221775319437,0.2194530754926216,-0.8454547594827775,1.191978629033374,-0.04351022720503471,-0.2273394183771103,-0.10865756835659847,-0.45225424565136063,undefined,1495454222438
903d185fccf839df,0.06644738188382854,-0.611559959658165,2.473803006185243,2.3583948278209985,-0.563256251725783,-1.9059383320610561,2.016721188986056,0.027475256687921744,-0.34431352525762493,-0.6080301542192659,-0.12681671119825433,-0.08706096248622779,-0.6955631684491979,-0.017003840287830405,-0.8465481512749148,0.7952625690895797,-0.5107074916520471,0.09007103718778706,-0.8238835918191324,1.0677131711855106,-0.1221444822947862,-0.327398220081639,-0.2583286466706466,-0.4732441057159099,undefined,1495454223962
903d185fccf839df,-0.023643517005605102,-0.6074508546713153,2.627563738831832,2.5558426960298553,-0.5781190843564767,-1.8818446814791796,2.063187234571218,0.3807150147635593,-0.36235455582580084,-0.6189173882476606,-0.15676794005586744,-0.06671619878985754,-0.7826008244206774,-0.00774551287498061,-0.8402323485834324,0.872045607143541,-0.4870793162214107,0.07468198401850447,-0.8079728439834415,1.037563014261254,-0.1295255116495963,-0.3167470597004511,-0.2855317244557809,-0.4880207400645959,undefined,1495454225460
903d185fccf839df,-0.1885792720203283,-0.5804481063017468,2.6939168632306862,2.5462714171222145,-0.739069673903029,-1.8646968221951237,1.957642599180356,-0.342326720595429,-0.41139282831530843,-0.2308127594651293,-0.20475369546863242,-0.019831678571279203,-0.9175091911764707,0.054285304102507204,-0.8233902154350469,0.8215304163139036,-0.4537941180831877,0.12131778136955233,-0.7861148060523034,0.9800806192007537,-0.1120714452071213,-0.3473032473969263,-0.23187561542889956,-0.47482342820548995,undefined,1495454226953
903d185fccf839df,-0.11234843710223272,-0.5663597463468335,2.75516640941122,2.6683759505213374,-0.6908297538443643,-1.8742280682863335,1.9448459624322325,-0.4137624014217857,-0.37031486731936997,-0.2214615059214629,-0.33576757342766506,0.02793296697700556,-0.6302849264705882,0.09317047090793965,-0.8128638923403774,0.8740662520861588,-0.4764654318273635,0.07144584964986718,-0.7504030831114118,1.0297406058592637,-0.11879499796105174,-0.3539743734999771,-0.24071559917371504,-0.5230905575315232,undefined,1495454228451
903d185fccf839df,-0.08462817113791768,-0.524094608026109,2.4686989196930234,2.414893834997954,-0.6437109718561359,-1.866373873272234,1.8791008135135372,-0.8210331316005492,-0.3564097547517437,-0.18703186386477158,-0.3585616639755694,0.09572401798617572,-0.5214878565062389,0.0977995698604918,-0.8044428515340027,0.8801280738551265,-0.5308676685265074,0.04662704282450161,-0.7473594697805852,1.010138387081272,-0.13041153756460183,-0.370949372082826,-0.32445564958447715,-0.5982226249354377,undefined,1495454229977
903d185fccf839df,-0.013941389412685102,-0.45365274979555775,2.247309041024525,2.1519185118829953,-0.41804278162486297,-1.864272899605546,1.846257164535366,-0.9599701375647579,-0.37453121190219163,-0.11458511943905822,-0.3750010884814593,0.07302181498370133,-0.865286597593583,-0.0040421352870523225,-0.8233902154350469,1.0134882658313005,-0.614317614605142,-0.019773870442570007,-0.8096450808225888,1.021548642978572,-0.17495388646342505,-0.4254373714672343,-0.4411614575881294,-0.66374716102398,undefined,1495454231435
903d185fccf839df,0.012392863253414193,-0.39142904308272136,2.0182630326176976,1.9591265272875056,-0.43821303437152237,-1.8705152609920948,1.8317643061244735,-1.0558448315118125,-0.36006102534102136,-0.03370654314621214,-0.40049053224408343,0.0236114140837351,-0.9523242535650625,-0.06329555505672667,-0.8128638923403774,0.9225608545026214,-0.6385868783382319,-0.01730402323888695,-0.8032709858080828,1.0778453641746921,-0.1654624545206619,-0.4176326105077298,-0.4229020903422885,-0.6407454207153394,undefined,1495454232954
903d185fccf839df,0.02070894304270871,-0.38732002577984864,2.001036867774931,1.9161615514641472,-0.6160321679413922,-1.8840015561513812,1.8475904806528045,-1.0512234346450622,-0.3492307819684036,-0.24299960593349582,-0.3591919626297166,0.07488266409064112,-0.8000083556149733,-0.18087644011750964,-0.8149691746286724,0.9508493466695631,-0.627554093190295,-0.13505244547556913,-0.8034389101071604,0.9645743989871653,-0.2437899125862738,-0.41033946628384793,-0.41231194139873867,-0.633537010646668,undefined,1495454234454
903d185fccf839df,-0.2745122000259341,-0.5188114730430164,1.8319633673777846,1.793768670027925,-0.837688937632002,-1.9274791354490046,1.8613180772547546,-1.1243463605442574,-0.30928089711533874,-0.26799572912777464,-0.2731728980826455,0.184767592440033,-0.0601882798573975,-0.1836539409315195,-0.8728639553304717,0.9185196211468286,-0.6117062297237853,-0.14971954427262202,-0.8305725429927676,0.9754149032081952,-0.2563095155515746,-0.42270852825248195,-0.385974204095597,-0.6196663923218326,undefined,1495454235969
903d185fccf839df,-0.1774911656346023,-0.5094192184590781,1.544858248053485,1.5927572618164099,-0.7749976127441615,-1.924865727779,1.9313550790439034,-0.6680704674984785,-0.3702281702355497,0.05095095002655659,-0.24388710096620453,0.15549576433520368,-0.2864861853832442,-0.243833159770465,-0.8528639466041632,0.7831388407574799,-0.6765568209610404,-0.2595201209318173,-0.8282426059495639,0.8398315878899998,-0.33151275985355855,-0.42915927239382146,-0.39866549038492644,-0.6028290105662025,undefined,1495454237448
903d185fccf839df,-0.23431774536685787,-0.4653930497579855,1.3993920371621769,1.392308897039779,-0.7731256170034518,-1.9093413479810797,1.952117387340845,-0.5143936641172685,-0.3299966770971426,0.02698600714073395,-0.23961630676161688,0.11352951632614244,-0.7738970588235294,-0.18920895551031372,-0.8318112930525904,0.5851193107947231,-0.7485660872528017,-0.2975937787521577,-0.8141370352894703,0.6959485101800849,-0.3691217941858312,-0.4292238088862448,-0.5210157469218706,-0.6155771923820204,undefined,1495454238932
903d185fccf839df,0.015164889849845698,-0.4395644044546406,1.743280245780894,1.6438643493541638,-0.5903693466665472,-1.8984405095414512,1.946226626534756,-0.4569488452190158,-0.37884655740740236,0.24975004186521244,-0.3149651802930416,0.060578377764059936,-0.8087121212121212,-0.19198644337354903,-0.8739166001557361,0.6275520631774966,-0.7283602787796694,-0.26400384621811057,-0.835666223354087,0.6845536579785317,-0.35618186866561813,-0.4227449414248975,-0.5974075989151568,-0.6382243139175201,undefined,1495454240445
903d185fccf839df,0.1842586157483967,-0.39377717614518776,1.7483840781361641,1.7868508506663163,-0.4781729671539175,-1.8794269308059033,1.948827492732606,-0.3642652149493344,-0.3328955731548581,0.10255166867955105,-0.2559580600068347,0.06368230093703578,-0.7477857620320856,0.007067842067437976,-0.8128638776159097,0.6295727081201145,-0.6004285091211198,-0.18104228474743259,-0.8333362849773641,0.8433116349588459,-0.28455919889283676,-0.3892541995018735,-0.5396641657425106,-0.6680050864634419,undefined,1495454241939
903d185fccf839df,0.4337411819542808,-0.5176374576607699,1.885556783819989,1.9718251299566385,-0.44903358612559274,-1.9035694954797617,1.9398072631859737,-0.4499956602672336,-0.2806786410950688,0.10236786535494574,-0.13627409995903395,0.05086607164961885,-0.8739903631907309,-0.024410491857490606,-0.7949691070044935,0.621490297937972,-0.5935821196171599,-0.11373575812604417,-0.8181322145508525,0.8739391438265597,-0.24664868546284224,-0.3981611967510169,-0.4469868635153025,-0.640623955709966,undefined,1495454243533
903d185fccf839df,0.18564466355202217,-0.5287907572390724,2.1248109652112555,2.124224285273471,-0.48219467622235623,-1.9032014750645059,1.9926163900116023,-0.13724052640927406,-0.3002344869266316,0.2352948274158913,-0.11313903441663924,-0.022802384475043208,-0.9479723707664884,-0.005893811130241919,-0.7928638394406661,0.726561884688318,-0.5664373653461611,-0.10350805328423969,-0.8134583448913493,0.8643613116340194,-0.2449954311326192,-0.4062121676409521,-0.42052746361285365,-0.6287301265593893,undefined,1495454244939
903d185fccf839df,-0.051363817475329886,-0.5575544921470204,2.067389738036836,2.039239171206958,-0.6576480972688042,-1.9183275541855747,1.8668511805997003,-1.0481811134715113,-0.3001435980697089,-0.09101629366566918,-0.13151111447629346,-0.022633578202712556,-0.9784355503565063,-0.0318171693286999,-0.7760217357412157,0.7669739921284734,-0.5364861538209069,-0.0841292437157338,-0.8099669354870206,0.8344883272932135,-0.2464032700296835,-0.4194230164100425,-0.3362476430375221,-0.6004700819261651,undefined,1495454246506
903d185fccf839df,-0.1331387400916982,-0.5622506559739799,1.978706362302996,1.9484669639729009,-0.5922104938163553,-1.9380888209330553,1.8082459554174568,-1.4013805322830322,-0.42734850372030997,-0.20090755664353777,-0.22787806160457333,0.017285402168245617,-0.9131573083778967,-0.020707166072660505,-0.7623375149819219,0.7204999498604642,-0.48965530589801115,-0.08349594860608148,-0.7950147492305203,0.9091553882660464,-0.22967580450947367,-0.4292719358708559,-0.2676142728366659,-0.5708909380538223,undefined,1495454247932
903d185fccf839df,-0.21075551929719008,-0.5939494658725348,2.100566554373213,2.039326698261421,-0.6599520930513288,-1.946154975701654,1.812209079188628,-1.401762406751997,-0.4400788513189605,-0.3169268282738414,-0.2373403419131005,-0.001954776538125225,-0.9218610739750446,-0.11051306889489408,-0.8012849244204434,0.5022744227070728,-0.6197450969950461,-0.14520415113972537,-0.7892703679350797,0.8025519492163344,-0.28034582368090616,-0.43611071035720406,-0.3710160207253659,-0.5523805952538144,undefined,1495454249442
903d185fccf839df,0.01516482083902623,-0.6180171392514965,2.275381770868682,2.238971204367029,-0.6234995781457978,-1.9472380719664988,1.887818630327155,-0.8874002571741229,-0.41026795946106065,-0.4032119873525452,-0.20767349301231022,-0.07728576007511978,-0.7477857620320856,-0.1845798177054379,-0.7960217665542255,0.48206836898699507,-0.6416847323990472,-0.15752806153466667,-0.7612691316079526,0.7719398389690769,-0.287140240331437,-0.43330955348437084,-0.37168505593919604,-0.5404227394992928,undefined,1495454250952
903d185fccf839df,-0.027801591405662095,-0.5487492964031919,2.4355223574935962,2.5192422961011,-0.543857424910658,-1.9245769045496433,1.9210988219664433,-0.6154494137544441,-0.3909812713944467,-0.3892650508087117,-0.23476448500800398,0.01787411719098872,-0.6389886920677362,-0.10032889060967494,-0.7812849009696673,0.44165617675267504,-0.5619452682372029,-0.11759885352563992,-0.7664187838687686,0.7492733244450579,-0.26864192858378677,-0.3880438330687548,-0.4592722125440452,-0.4978797513888283,undefined,1495454252450
903d185fccf839df,-0.08740019773434918,-0.5910143762679317,2.460404652074692,2.4063031990049972,-0.6947486015572764,-1.9296872550176125,1.8834215806043075,-0.9086222614283657,-0.3405346583575701,-0.6684207271959094,-0.2166379629340169,-0.010761603829166088,-0.6259330436720143,-0.16328563616417938,-0.7623375297063895,0.5709750505788915,-0.605739939392189,-0.11429305749078139,-0.7333378623619259,0.8220463778261429,-0.24889545816950043,-0.3854508946707682,-0.42299223354779036,-0.5266383847296453,undefined,1495454253998
903d185fccf839df,-0.011169328310843862,-0.5534454017741668,2.391499484429728,2.3004507850161664,-0.6405224101313455,-1.8880101775008444,1.8222417715460237,-1.225748945571716,-0.3851692158229127,-0.7434429792908761,-0.28867279540043195,0.04198925131241769,-0.8000083556149733,-0.10218056645286454,-0.77707438056648,0.5871399274726196,-0.6101055350856399,-0.1504098345022777,-0.7559795431846567,0.7232961494676999,-0.28631714328821173,-0.3620213604201204,-0.4824379310442755,-0.5397067379031981,undefined,1495454255447
903d185fccf839df,0.11218588973576783,-0.5405310718154963,2.354494857361136,2.3070976531420984,-0.6426001195287503,-1.8987829090279542,1.7920384520542447,-1.4135106214888238,-0.27143439271318703,-1.1012855615052728,-0.28114267486737654,0.061069984575642465,-0.9827874331550802,0.016326195381836866,-0.7718111932513271,0.6376551748317,-0.5869054961043678,-0.13122734635387118,-0.7340025607409638,0.7474871064964643,-0.2630753415355653,-0.3853247035953932,-0.47165925707676276,-0.5281119148831391,undefined,1495454257004
903d185fccf839df,-0.17610508332556707,-0.5364219668286466,2.034213175837409,1.9925570323755109,-0.6554983804661697,-1.906187560112376,1.8183628192935597,-1.3168086484729593,-0.24255481641455645,-0.6399690612633775,-0.14449155094459282,0.036797561693126674,-0.6128773952762924,0.024658723725415506,-0.7433901289941764,0.5042950393849692,-0.5524431052366103,-0.12500206225391494,-0.755608711932925,0.6704948771918361,-0.2803375919337076,-0.36607312000973974,-0.34833290021112023,-0.5140936933229723,undefined,1495454258441
903d185fccf839df,-0.1761051178309768,-0.4677411389784634,2.19371613285622,2.1087853273664106,-0.5748996603252126,-1.8883339419047964,1.794389512587332,-1.4003409879737552,-0.31115162540242436,0.08106838620399645,-0.24303018029494972,0.009380744070535118,-0.6041736296791445,-0.03922385975068374,-0.7412848835170504,0.6194696529953541,-0.5539746203085371,-0.14206934411353975,-0.7518164388595641,0.6183865370611754,-0.29301831286510993,-0.3613889157158044,-0.3034218533758954,-0.592334631955114,undefined,1495454259945
903d185fccf839df,-0.2204575778792906,-0.5299647872353151,2.180318032882618,2.0696854621129273,-0.5405454332009839,-1.8581143931159054,1.8244271565559451,-1.1709204080971056,-0.4521278128584135,0.35464378230487137,-0.19965599400080639,0.02689029649156052,-0.5954698640819964,-0.07347969448962216,-0.7802322782311043,0.6012842442178943,-0.6231442425232481,-0.17841410951140874,-0.7784253102137244,0.6178937876684819,-0.31187913533742334,-0.3989176269366644,-0.30328044843492397,-0.5523474149530196,undefined,1495454261447
903d185fccf839df,-0.23015973997762035,-0.535834937216529,2.207113978692872,2.0422921281030906,-0.6746812097540363,-1.846458879114763,1.8940276088750847,-0.7099974572712962,-0.4610067571569805,0.23004672222759423,-0.30684091666205465,-0.01776601106888386,-0.6259330436720143,-0.05959220337034747,-0.7444427811816746,0.627552091442218,-0.5826027057648466,-0.09359699542144796,-0.7509418371329558,0.7749271369279379,-0.24068552287754694,-0.36157897395069977,-0.2159039728816939,-0.5315746929595392,undefined,1495454262944
903d185fccf839df,-0.015327471721720323,-0.5440531471902285,2.2364629842970336,2.2820768247178536,-0.5101409125992303,-1.842636597993616,1.9537084278640466,-0.21698048669430628,-0.4251321686192527,-0.18806238764582311,-0.2993570270517813,0.030903809059648214,-0.6346368092691622,-0.02255889371894829,-0.6476005174190159,0.6800878141555872,-0.4883598831867866,-0.06475043669409437,-0.698738630857863,0.8096198331587279,-0.20744471306075127,-0.32920107523452474,-0.09258647299079947,-0.49019002765648156,undefined,1495454264443
903d185fccf839df,-0.06522401946830687,-0.5399440568173749,2.6199076090935027,2.632342654642268,-0.48006553516693257,-1.8853199064248418,1.9338954681422635,-0.4158531713595664,-0.3002465670053195,-0.49291886721485423,-0.17798617309382986,-0.002583994614704392,-0.5780623328877006,-0.08921888735363555,-0.7065479650327811,0.47196520080334853,-0.6017501757691294,-0.0645541162872051,-0.7121095362474471,0.7596518778336137,-0.21779387796599917,-0.38409754781330074,-0.19891379606730633,-0.48743603566900245,undefined,1495454265993
903d185fccf839df,-0.07769807014142918,-0.48828667852670815,2.766650604018714,2.726089095081065,-0.49233636911514345,-1.8836451821831912,1.90907798562027,-0.5890049256840212,-0.294246187542997,-0.18049641162273056,-0.11719257781671005,-0.031040551597430174,-0.5780623328877006,-0.07070218072483778,-0.7633901377204849,0.6275521479716611,-0.5696905861696817,-0.040963901808686524,-0.7084711955886561,0.8622363212756139,-0.1904098865143136,-0.3485638916648826,-0.2017940315816383,-0.4360851648146834,undefined,1495454267448
903d185fccf839df,-0.19273731191497556,-0.45071766019095466,2.7041250362151255,2.7550074921057894,-0.48489981593583603,-1.8820799332330833,1.8085589062197174,-1.2992284488261983,-0.35668109305362444,0.27921800055557205,-0.06179898808874221,-0.052901398584936095,-0.5998217468805704,-0.06792467991082793,-0.7570743276667689,0.6740260771807842,-0.6128594462842347,0.0040379952929242265,-0.7356468099512294,0.9272485606019106,-0.16502652454206918,-0.37528952769409624,-0.372889254359657,-0.4717188793935194,undefined,1495454268956
903d185fccf839df,-0.08185621355230564,-0.47185022935131693,2.4412643277288684,2.4180802902727576,-0.5240060301025377,-1.9028474296319842,1.8476904215645973,-1.0702566341412163,-0.32711675338642315,0.11071437849688794,-0.1729016316220666,-0.006572703131073027,-0.7695451760249554,-0.06514723089991627,-0.7823375089837628,0.8498190780691746,-0.6350748628614077,0.008952358855740425,-0.7433153143906829,1.0139879981466724,-0.15127537104347524,-0.39075728725845904,-0.37232762188970536,-0.5201621276098217,undefined,1495454270448
903d185fccf839df,0.03456900701404676,-0.5047230838601108,2.811311106688686,2.8017176806213357,-0.3478943296869929,-1.8989016997537462,1.8457469879010278,-1.0021905029642408,-0.28602365371553806,0.34676818325303005,-0.26491813282966614,-0.05106495013633842,-0.8696384803921569,-0.020707166072660505,-0.8118112548773467,0.9468081133137703,-0.5620304531501688,0.08365576060839948,-0.7606813983810066,1.142334042597335,-0.09768440001874591,-0.3309039374985149,-0.33253716033549074,-0.479785662785299,undefined,1495454271945
903d185fccf839df,0.13713419811447083,-0.48828666391271197,1.9844483325382682,1.9376015124583716,-0.49135923001904175,-1.8141104061763602,1.911079263961061,-0.4763839031300787,-0.4303891284323569,0.16370556795039098,-0.26083654412118445,0.054078692224142286,-0.8565828319964349,-0.06144387921353707,-0.8118112401528791,0.8821487187977444,-0.5648653672836826,0.037868578330229,-0.755937560465927,1.1166032407546953,-0.1255547817046787,-0.33355492247420115,-0.345376165870282,-0.5242256409028488,undefined,1495454273424
903d185fccf839df,-0.14422684647742423,-0.19536591679820858,1.7101034294445174,1.6146028187706771,-0.6149007402869053,-1.683614779730207,1.8509329666164682,-0.7013775785546023,-0.3829885318722722,-0.16683288172648236,-0.18121012766225916,-0.07361019440993476,-0.8087121212121212,0.006141913490421348,-0.7612848775188913,0.922560939296786,-0.4802820323383169,0.007020810912329184,-0.7705049204114329,1.0869920325577778,-0.14949518438277604,-0.2579341071886,-0.234189397925827,-0.4645522756629594,undefined,1495454274958
903d185fccf839df,-0.08601414993072369,-0.3022027341402781,1.654596361773155,1.6054441229033227,-0.5561796945519387,-1.665230093467848,1.7800071033031077,-1.1678055329137393,-0.528658263571168,-0.045904250766589855,-0.06729737211339912,-0.04881275055446741,-0.8609347147950089,-0.014226339473820558,-0.8118112548773467,1.0134882093018573,-0.3248575645460141,-0.07157101831915204,-0.7914183884093229,1.0724558941061424,-0.18941994447528598,-0.2290075302930573,-0.26073049270419413,-0.5075377857320287,undefined,1495454276442
903d185fccf839df,-0.18442123212568104,-0.28341828342838604,2.0712178029060007,1.8828240887905865,-0.5421088594028967,-1.60514037915697,1.7627660942494556,-1.116073325115209,-0.522499797833572,-0.037792873611005355,-0.012363780150420878,-0.007237912519051448,-0.7477857620320856,-0.13088134776068508,-0.7486533089470957,1.0114675643592395,-0.2768095903982786,-0.13923218755519778,-0.7825324390853078,0.9290963684416816,-0.24224500509634847,-0.2642504578323511,-0.2760072112744824,-0.5420644372114708,undefined,1495454278024
903d185fccf839df,-0.047205708569863156,-0.2845923134246288,2.078235794764328,1.8964608773495573,-0.3773628502038151,-1.6256167219316262,1.71366236417043,-1.3859789038947277,-0.5497595292827687,-0.10237694455398458,-0.1205976556746181,-0.08007436605672019,-0.7826008244206774,-0.22161316620916074,-0.7739164755396221,0.6558406401386029,-0.3052330346851449,-0.237639795820262,-0.7812730139227239,0.6233140368442135,-0.34555009263309167,-0.2737531206403474,-0.3306397033020477,-0.4432471567243285,undefined,1495454279447
903d185fccf839df,-0.148384817361252,-0.16601507920816222,1.7286053617733892,1.6508355539154653,-0.6133887426762122,-1.6266672087396008,1.8315670941720599,-0.6751627926733885,-0.38175243670439524,-0.4436888367188878,-0.2199210777626653,-0.004520515079780659,-0.8783422459893049,-0.23457481940684063,-0.8549691920812893,0.34870820527554275,-0.34001124008722416,-0.2908871865975102,-0.8555371650693745,0.5084724317693311,-0.4088623825102414,-0.33136966821910907,-0.37552650590338343,-0.4486680127119579,undefined,1495454280943
903d185fccf839df,-0.10819046621840493,-0.27578705922481567,2.0935480542409866,2.0130331633312712,-0.6043784782081124,-1.7218562273416294,1.88568060534882,-0.4654391417850183,-0.4806611723068894,-0.8773551232852769,-0.29597395238053775,0.0015936299614351637,-0.6476924576648841,-0.15495308191905166,-0.8507586790403358,0.3810380155924418,-0.3594690750881236,-0.2614896633647832,-0.8461614386964902,0.5544983845351661,-0.38584018608172416,-0.3762304771995161,-0.3420540255842164,-0.46876685364872495,undefined,1495454282439
903d185fccf839df,-0.29946050840463717,-0.30337673490852857,2.463594833200804,2.5041374577867255,-0.7272205574724211,-1.774655419505631,1.917530179713798,-0.4037599390006669,-0.5895510151857604,-0.8352995869484307,-0.2620774572482982,-0.11137602822406503,-0.30824559937611407,-0.21698397660118676,-0.861284980048304,0.33052271170391834,-0.5528986600196053,-0.2764354105763084,-0.8539558853157635,0.4150038707239947,-0.42269091186839297,-0.40381103751421027,-0.33553801207102835,-0.4572474683706138,undefined,1495454283935
903d185fccf839df,-0.24401987295977787,-0.4560008097880433,2.612889363098226,2.6521690602878776,-0.7605770678648455,-1.7681288915551499,1.8458863643420358,-0.8898223194409312,-0.573168306487523,-0.7479438759916707,-0.18674996863189208,-0.09040486763693766,0.17046150846702318,-0.14013977877973124,-0.9065482142650091,0.2779869607258276,-0.604544717318022,-0.24591695500049315,-0.9137856142597245,0.4375779920848084,-0.4162632089076379,-0.46083375173223345,-0.3874451798711925,-0.4578969790416811,undefined,1495454285439
903d185fccf839df,-0.09155823762899644,-0.3697095466082147,2.3213180410247594,2.3176660875943322,-0.7346982501550268,-1.7807976242192094,1.9027769581897427,-0.5822882976179443,-0.562211171823164,-0.4409893280489763,-0.14589451743355697,-0.22955260398805424,-0.4605614973262032,-0.1743956135186697,-0.9528640564958096,0.376996725707206,-0.6602823573879566,-0.2472912052789236,-0.9458310073225076,0.4814943610554563,-0.415774219860959,-0.4851869838381084,-0.4588511177920604,-0.4659133883380912,undefined,1495454286937
903d185fccf839df,-0.31609256446699696,-0.509419291529059,2.1343812544526424,2.058990583966544,-0.8243895292147031,-1.8169520756369635,1.9125493120507382,-0.6553679969920664,-0.4646788737807641,-0.29664368417082737,-0.05055385243460396,-0.1179018699641115,-0.3996351381461676,-0.1706922877338396,-0.9170745447219124,0.38103793079827725,-0.6957879723974769,-0.23697484140154518,-0.9302421132398063,0.5292911345091218,-0.4009711971389801,-0.45492084706690683,-0.4896200824787999,-0.4564346228079353,undefined,1495454288479
903d185fccf839df,-0.29253033839732917,-0.5287907572390724,2.372359414220854,2.2452351256030294,-0.8488592032554244,-1.8333079933586225,1.8345255950474535,-1.176665923898234,-0.4833268483690063,-0.20140327364790273,-0.14244794939815103,-0.059913361462270436,-0.4126907865418895,-0.17902479017586914,-0.9097061119296334,0.2153480415640904,-0.7413353263424804,-0.19061769161785977,-0.9176828381871844,0.47354876611303137,-0.3832748856485421,-0.42424043779190845,-0.5536443306724111,-0.4642022683317876,undefined,1495454289952
903d185fccf839df,-0.13175272679348246,-0.5927754797182806,2.112050494843757,2.0471658414870157,-0.5517877047392478,-1.835497478684137,1.7661138233215783,-1.5396347463000093,-0.3809239554838415,-0.037043835397277826,-0.17628709976784024,-0.03592275843090318,-0.7521376448306596,-0.14847222941866262,-0.9118113647689932,0.16887411235496733,-0.7143572719310808,-0.16891469271081413,-0.8872677017528141,0.6090704869224771,-0.33741197892923797,-0.4240372100334753,-0.6939706125786002,-0.4447503869294114,undefined,1495454291432
903d185fccf839df,0.245243304386119,-0.65499909874714,2.457852608828582,2.42947655085633,-0.09364218507921511,-1.8533883659514339,1.8518533988762662,-0.8536819746532858,-0.3645760497632361,0.38207367625349564,-0.2246398597478961,-0.008524922461181826,-0.7564895276292335,-0.11977139630774387,-0.8381270810196051,0.3426464117712966,-0.5386837563806341,-0.10837808485161111,-0.8097150505646109,0.7977938342583158,-0.24954167756174825,-0.32637657303916817,-0.7266943142665924,-0.3633421608473488,undefined,1495454292936
903d185fccf839df,0.15792432857688765,-0.6673264137076892,2.767288233624817,2.5669413335840643,0.008916490746920908,-1.8329632671055194,1.9046073165895068,-0.4814565191353514,-0.3695477746592244,0.5438229849691223,-0.22761134549704737,-0.07651024005406991,-0.7564895276292335,-0.06329552915517757,-0.8381270883818388,0.3163785928116944,-0.4431245663842336,-0.037911421416990526,-0.7915303402950709,0.8955123719413842,-0.18859812655465555,-0.3391945007860347,-0.6565904497861339,-0.40904690290690404,undefined,1495454294443
903d185fccf839df,0.24385722207708377,-0.6391496937978626,2.8470397121342224,2.9920780715160546,-0.09675876334301274,-1.8680951815222073,1.9484172638189516,-0.2932786449765674,-0.39802385115440314,0.6451692310665068,-0.01731586828061266,-0.04171844008136233,-0.9088054255793226,0.16075628951344717,-0.8244428602603112,0.4861094892839017,-0.343213471035101,0.10752463148526237,-0.7739263644841405,0.9501460570983113,-0.09565778016549818,-0.38968968235810153,-0.7539885759980783,-0.44882480525315116,undefined,1495454295937
903d185fccf839df,-0.04304773768603537,-0.5892533312735676,2.2568793302659116,2.244395871984457,-0.46975927935367395,-1.8703731769979708,1.8348096400095721,-1.1584937977473981,-0.35613017546651327,0.25388683332927436,0.02121777771698325,0.06299695422744875,-1.021954378342246,0.07372786160367432,-0.854969199443523,0.595222337654762,-0.33007646421341436,0.08659425241001534,-0.7667896170963109,1.055471418821771,-0.09274784354914188,-0.36822093808801204,-0.6512393835701322,-0.40670603365855984,undefined,1495454297444
903d185fccf839df,0.05951741890897898,-0.5669467321169626,1.9678600514385547,2.0948842079315186,-0.4286370544277498,-1.882969702354721,1.8263811115284125,-1.2224788667668822,-0.2416551681083949,0.39610772446110093,0.26817338481990544,0.004079079729886237,-0.9218610739750446,0.06076618250444534,-0.8665481820879246,0.5871399274726196,-0.334316264367064,0.09028635665271169,-0.7587712722353649,1.0325123322861072,-0.0985145407762313,-0.34847362723798975,-0.5652834516230391,-0.35828542201927366,undefined,1495454298984
903d185fccf839df,0.01100684995519844,-0.5411181014276139,1.6884110618525843,1.769598110669664,-0.5948230574912478,-1.8759633513419076,1.9775581379975702,-0.28561911451438404,-0.21007208162094196,0.14062151888707708,0.28553135160555315,0.05171195336401499,-0.6999150512477719,-0.07255393427267465,-0.872863977417173,0.6477581451622958,-0.5051039549616149,0.039173168531461154,-0.8035368683283356,0.8293452430543405,-0.17821256662918383,-0.39994447113306786,-0.2662235044086736,-0.40687716397558327,undefined,1495454300451
903d185fccf839df,0.13990622471090233,-0.5235076076419837,1.6488543915378826,1.8526458279425502,-0.5035992128436917,-1.8940661991836811,1.8983615260306947,-0.8086714133195347,-0.12989649623364377,0.47054714030230105,0.39134566805978155,0.027146690036287714,-0.7564895276292335,-0.12440052116184513,-0.8707586877666442,0.6437169966006676,-0.5482262574118841,-0.002345608999454015,-0.7766201359681992,0.7952992765377777,-0.20501222093885482,-0.33764941284770233,-0.3182788080054122,-0.31476774193933044,undefined,1495454301950
903d185fccf839df,-0.152542891761309,-0.6309314545961708,1.6443881887887157,1.7834918696326407,-0.6633258032003425,-1.9249728748941244,1.8493235284679994,-1.2355676991463411,-0.2249455086936281,0.16777957314579006,0.2381518525619198,-0.009653297912017501,-0.7303782308377896,-0.1706922877338396,-0.8486534041142746,0.5810781057036519,-0.5956021727537992,-0.1460717672250811,-0.7857089923243903,0.740650196624077,-0.2932904985615277,-0.3090837593685589,-0.27691130192275787,-0.239712489450973,undefined,1495454303432
903d185fccf839df,-0.23015977448303007,-0.6309314399821746,1.391735653286898,1.3609345926486078,-0.6533795280885609,-1.9306445716688443,1.8478298021956925,-1.263071067207479,-0.25741644232245725,0.2771188345676219,0.23365075173067296,-0.0292366230972026,-0.8000083556149733,-0.23364898148524585,-0.8412849860464631,0.7164588295635576,-0.519605657650666,-0.24271248881065888,-0.8231349339912384,0.5716060647494869,-0.37358568866667957,-0.34690256321059504,-0.3181871822015195,-0.2513483890629868,undefined,1495454304944
903d185fccf839df,-0.48241443629616515,-0.6461938299333307,1.2647713747244618,1.2951775821413734,-0.8957002636575917,-1.9212437615123712,1.8653969076644783,-1.198215349615755,-0.4071649938390116,-0.23620903519621664,0.16451291020547956,-0.01220692112447912,-0.8870460115864528,-0.3086415164142863,-0.8644428997996296,0.5527895287425456,-0.5238761871558452,-0.32659232644462244,-0.8685862159046339,0.4988330166994766,-0.4432638776800092,-0.38241304773098955,-0.34700531459622397,-0.28078763310383476,undefined,1495454306449
903d185fccf839df,-0.4214297821638526,-0.562837641744109,1.0893182744859398,1.090584369931811,-0.8859597059994945,-1.906881673452755,1.9125519638521598,-0.8759602683668828,-0.4140613923402117,-0.2508899962937335,0.12651873297530766,0.07140235197856133,-0.8000083556149733,-0.42529656355347445,-0.8697060650280812,0.33456400158915417,-0.6031693102705817,-0.4392237300072618,-0.8966854083364331,0.328002663833811,-0.5389538908996916,-0.35424436014664606,-0.4680544817363366,-0.29347439367092193,undefined,1495454307931
903d185fccf839df,-0.25372196604728814,-0.5540324606142767,1.0842141879937202,1.0961089139776221,-0.9489081776004133,-1.8753693976350263,1.8984220188430114,-0.9303052877627732,-0.3685041236974147,-0.5464223062566409,-0.013657222370623159,0.024995036096186442,-0.7477857620320856,-0.5706525344590032,-0.8760218677195635,0.025410921783476127,-0.7452158176917624,-0.5189998230671714,-0.9664366159782621,0.052370491153020636,-0.6476806037655485,-0.42640928199102307,-0.545886909454328,-0.4073736675910285,undefined,1495454309443
903d185fccf839df,-0.32163668667067946,-0.5317258322296793,1.005100847364317,1.0007680820565192,-0.7471542304629233,-1.7261606623440293,1.820495600901555,-1.1357570911858559,-0.13103284292837905,-0.42562367112642185,-0.0691064268708116,-0.023898967908904032,-0.6825075200534759,-0.5975016528744087,-0.8907586964929527,-0.23524741428213172,-0.8465113521692119,-0.5729185056084632,-0.9778624078156718,-0.04402377669454211,-0.6954192557539198,-0.4595438054089875,-0.5255980793555257,-0.45413803982031387,undefined,1495454310990
903d185fccf839df,-0.42697383535671557,-0.25230643007196785,1.0899561582289925,1.163349611117185,-0.6482366812137549,-1.6182586558997534,1.8328293948588819,-0.8579805050417797,-0.1955298364477222,-0.28259912001398463,0.008506885373230424,0.0456840581449571,-0.7956564728163993,-0.5919466641971636,-0.943390363501937,-0.1988765119330475,-0.8986367632294001,-0.6031646453203805,-0.9953754252381318,-0.15047323186867037,-0.729536752039236,-0.4706890123389076,-0.5824154880417698,-0.4779972338861316,undefined,1495454312443
903d185fccf839df,-0.20382548731152106,-0.1871476483685245,1.1371689582820235,1.094301714146284,-0.4712095507670066,-1.5988560921105157,1.8658781627458472,-0.5427600286082992,-0.4381530572371322,-0.02581407577950777,-0.04133712807214101,-0.06216037013045323,-0.852230949197861,-0.5669491568710749,-0.964443009691276,-0.28980385259992264,-0.9168573311715869,-0.5838365012391269,-1.011726972422087,-0.24067732794509183,-0.7380419686488932,-0.46331414495471984,-0.6182094570771615,-0.49866071811674123,undefined,1495454313940
903d185fccf839df,-0.3368829019618722,-0.2464362216347693,1.0382774095637441,0.9537177237053757,-0.4941055093138403,-1.627000289145445,1.8775282046600605,-0.5334613438515086,-0.6227415520178873,-0.2518083654434555,-0.05603592226966431,-0.07650286353663897,-0.49102467691622104,-0.5317674712597671,-1.0465483857826752,-0.2170619207105073,-0.8882463031124044,-0.565230312720486,-1.0251888372094564,0.011918768032536468,-0.6804607955629279,-0.476534947556046,-0.6137750285543568,-0.5205075107928034,undefined,1495454315439
903d185fccf839df,-0.2814422320116032,-0.27050395346971556,0.6382439953936625,0.6631139596415216,-0.6263590044951622,-1.6513012408013348,1.8610287946836668,-0.7118992251775195,-0.4922333807891125,-0.5970201733082721,-0.18017680539221315,-0.1404623023076085,0.005089962121212133,-0.5123249396601491,-1.0686536767972787,0.021369744957126426,-0.8857970996918645,-0.5848371050002816,-1.0081166187988224,0.2076792055431318,-0.6455576229051087,-0.48861708689897687,-0.6215415116993344,-0.5379117598857605,undefined,1495454316938
903d185fccf839df,-0.36044516253694975,-0.32450939175286786,0.25735166798025244,0.2068978429158043,-0.7799347468825116,-1.6376635442797052,1.8945062357242728,-0.5307662166967617,-0.3796140608511422,-0.7877404182819233,-0.18085343498791942,-0.06597920419677455,-0.6128773952762924,-0.516954103366574,-1.0939168581142726,0.20120386614242336,-0.8372218732891602,-0.600093165671329,-1.0289041443110394,0.35676695393674634,-0.6247270228194092,-0.4801061230042526,-0.6698766120118045,-0.4938202027379398,undefined,1495454318437
903d185fccf839df,-0.4325178195387591,-0.3250964067509892,0.5017094275898398,0.4129162691507455,-1.0345468908966384,-1.6601197401675578,1.8880947617858814,-0.656128773610745,-0.39145957893014927,-0.5465869129781514,-0.2583922451962306,0.0003192898214565291,-0.8087121212121212,-0.5688008586158136,-1.0886537002480547,0.12442079982374064,-0.8131426902406009,-0.5830385475397593,-1.0387626506588825,0.390520346206921,-0.616437814881793,-0.46625562917917945,-0.6734917600936414,-0.4881132309785561,undefined,1495454319964
903d185fccf839df,-0.4214296786476234,-0.275787088452808,0.8130594660260813,0.696740909973961,-1.1001696406987702,-1.6728024486832558,1.9250488030054276,-0.45544613245299015,-0.4812703915545248,-0.34744245593460793,-0.1856067968379344,0.050304391179155,-0.7390819964349377,-0.5493582881638719,-1.0476010085212382,0.393161602600934,-0.8012718317600741,-0.5848877671489243,-1.03133903460623,0.5908695208643792,-0.5701803370235868,-0.45656364217677703,-0.5275554228582073,-0.4391624880408736,undefined,1495454321482
903d185fccf839df,-0.21214149808999608,-0.2957455983889352,1.322192347761932,1.214706901385984,-0.9146053809018825,-1.6660849232881543,1.8776097275199115,-0.6997694548078668,-0.5210947657038275,-0.391247357703289,-0.199297620357471,-0.017859397592295233,-0.7390819964349377,-0.5317674583089925,-1.0254957175066348,0.3951822192788304,-0.772126964293582,-0.5857490472232897,-1.030590375493753,0.585911220649861,-0.569519339272397,-0.4418330115651287,-0.5601778590514965,-0.4089746008927415,undefined,1495454322950
903d185fccf839df,-0.2939163516955449,-0.33037954173408174,1.5493244508026518,1.5344391488609592,-0.9149448087581139,-1.7396982000566694,1.9112475891906051,-0.6078931178502914,-0.5059837285680995,-0.5890789917847822,-0.13594705597279724,0.014032750205678925,-0.8174158868092692,-0.5076957630029496,-0.9991798987266103,0.25576023379841045,-0.7103924760659728,-0.5797960817389544,-1.021382572300524,0.4367156818322784,-0.5945179329921568,-0.43421726317138115,-0.5298896277494868,-0.36699342310150423,undefined,1495454324455
903d185fccf839df,-0.3119345245723497,-0.39729919306393524,1.0816623988845597,1.0495355677634,-1.055930855581756,-1.7046943941000383,1.8914661808252542,-0.727408210695803,-0.5030563808064459,-0.47285082777950055,-0.14904284108229132,-0.0014438901074614954,-0.7869527072192514,-0.5076957630029496,-1.01917992953962,0.33254330011709315,-0.6114824322642938,-0.5855907256190179,-1.018793752227217,0.5828007331215453,-0.5665629425281988,-0.42685273348801156,-0.5315635243172956,-0.39194856219767094,undefined,1495454325945
903d185fccf839df,-0.679228445411736,-0.4595229582327563,0.9298155716040785,0.9086916508893961,-1.249980814567154,-1.648790322409504,1.847245979541632,-0.9847125649851293,-0.548697389239646,-0.439217852898706,-0.08690456239675404,0.03037298233312552,-0.6041736296791445,-0.4975115911931178,-1.0044430602739451,0.059761405307714704,-0.735355363172677,-0.6034179613898664,-1.0032608325703587,0.4633703911421219,-0.5984341580097752,-0.43131420560200784,-0.5033027544422543,-0.4337851818093053,undefined,1495454327453
903d185fccf839df,-0.7901096472906352,-0.4460216132759644,0.5450944169106555,0.49527357448896325,-1.3526217868844408,-1.647418399698815,1.9082574659891767,-0.6203472077486062,-0.4816770811340529,-0.46391059623134,-0.10435658683846565,0.013048393249189978,-0.5824142156862745,-0.5234349817685121,-0.9876009381689101,0.694232243959748,-0.5279346425387118,-0.609478589624147,-0.9902817486143366,0.7444998051181766,-0.5372640614972654,-0.438821642298138,-0.4898008544123925,-0.3594828005110643,undefined,1495454328989
903d185fccf839df,-0.803969745767383,-0.41549677491766757,0.35751923832158666,0.2827355793668826,-1.339569239011059,-1.59904242993598,1.85115912290545,-0.9089156485493688,-0.440554885030924,-0.45075798783059656,-0.13807150629411769,-0.05135985958202854,-0.4866727941176471,-0.5521358213548181,-1.0044430676361789,0.2517189721778961,-0.6474823315000942,-0.6456586971797506,-1.009970774188858,0.5922091777966042,-0.5946010680430077,-0.44919680093274683,-0.5772962393973252,-0.3758660885788968,undefined,1495454330445
903d185fccf839df,-0.7928816738870667,-0.4149097599195462,0.11060892719199067,-0.029924429733052788,-1.3180104175142975,-1.596925151458406,1.8819094467552766,-0.71354749654441,-0.38758779149975936,-0.5883858968965446,-0.12040352031037067,-0.09419010247824604,-0.5388953877005348,-0.6521258765607217,-0.9991798840021426,0.7851594857000979,-0.552027888971316,-0.6894003392646936,-0.9273174479449617,0.9993440766618769,-0.5052699104498385,-0.49058819426711614,-0.634281753766943,-0.06225012851606855,undefined,1495454331943
903d185fccf839df,-0.7887236512451242,-0.45893588477865027,-0.18479071388758997,-0.14919582652836344,-1.3367406694747372,-1.590766643040685,1.865194405465125,-0.8409268485223556,-0.29620857135949663,-0.6591452574403398,-0.08490004738749515,0.07946214877893581,-0.6085255124777184,-0.7289700938083391,-1.0212852044656813,0.6639229937913023,-0.6055223779629731,-0.7672702140353584,-0.9683957246875724,0.839569806926605,-0.5822355600685158,-0.47471871414131744,-0.6326489674769382,-0.031379327969593876,undefined,1495454333493
903d185fccf839df,-0.8192159438058708,-0.610972886204059,-0.19627465435813457,-0.254591088238634,-1.3326469593767296,-1.4958687788257978,1.8325006605219907,-0.9069498513826758,-0.3082447875621061,-0.6833375668078107,-0.01705576510416501,0.010557412167449827,-0.499728442513369,-0.7743359447540914,-0.9981272759880473,0.5911811608284123,-0.6346210971898749,-0.756789191601485,-0.9631201288767147,0.7693374973807152,-0.5932885250543986,-0.4898364927120398,-0.6445535772050833,0.004428157037345983,undefined,1495454334949
903d185fccf839df,-0.7720914226557157,-0.5446401329603575,0.029580918785631582,-0.07351383136265456,-1.2376585485148082,-1.5179080416035462,1.8365689701465768,-0.8889948265180152,-0.3156136839689588,-0.6227637496996349,-0.05687432825668191,0.10771529327697471,-0.6607481060606061,-0.7687809625522336,-0.9560219688849015,0.9367051712478961,-0.4777854207700991,-0.7609309373257025,-0.9198588466512159,1.1453983274523525,-0.496654394119099,-0.5055443023380104,-0.6657224405547146,0.34505024935677203,undefined,1495454336450
903d185fccf839df,-0.4796422716780947,-0.6420847980164618,-0.09355504077069061,-0.2257933812518515,-1.0074132224092365,-1.436699115688061,1.800551142102654,-0.915313906141303,-0.2985697925286126,-0.579112681563898,-0.0589051713757747,-0.01972009190509598,-0.7042669340463459,-0.7484126124571826,-0.9265482377157852,0.9387257879257925,-0.490506279440542,-0.783298893979001,-0.8767584917976938,1.1795366810471568,-0.4877746696607445,-0.5053389402456366,-0.7033547924384648,0.6067465996389393,undefined,1495454337926
903d185fccf839df,-0.3770772531047193,-0.3879070115499777,-0.22562340582534646,-0.35467200593033993,-0.8927276988659046,-1.527231985486365,1.8436405090415167,-0.7318021773621186,-0.3107095341530881,-0.5792310811820605,-0.14795649778618677,-0.04661343570825033,-0.6476924576648841,-0.7900751246673303,-0.8212849478712194,2.1470493040696264,0.047250280927111185,-0.7933999375111248,-0.8679425100930805,1.548129274285565,-0.3971100925716448,-0.5086184462647843,-0.7366718157189113,0.6360873013403279,undefined,1495454339430
903d185fccf839df,-0.38955137278866103,-0.1912567533553742,-0.24795391129728175,-0.37313267041156895,-0.9251996438381993,-1.611063632674519,1.8685184759956517,-0.6834420892876096,-0.3124394703462848,-0.57718868963666,-0.15033733567567414,0.13665679456361837,-0.44315396613190733,-0.7493384439033901,-0.7949691290911949,2.557232454622642,0.05808146918579917,-0.7503105881875566,-0.8465952396862613,1.9766988083235566,-0.27542856555290884,-0.5282305124664715,-0.7401547702075173,0.46556166360480583,undefined,1495454340937
903d185fccf839df,-0.6653683296822834,-0.3250964067509892,-0.40299066556692564,-0.5696319602867251,-1.1804597893444213,-1.709541539860474,1.9047440548468761,-0.6819229993080748,-0.41378355139213896,-0.4637958776679966,-0.13841968726126422,0.13448287682522428,0.4185188279857398,-0.6623100677967154,-0.7876007110233834,2.4784287150966198,0.046949618758056096,-0.7283036096782161,-0.8284874938531168,2.0247111621270526,-0.25282683627464664,-0.5269020416366454,-0.764543694097086,0.39425185333531015,undefined,1495454342430
903d185fccf839df,-0.7249669360109705,-0.24995831162349763,-0.4202165762727425,-0.5501020112658435,-1.1982437598500184,-1.6509215751250361,1.8638190198249212,-0.8777493585260746,-0.38901785278127204,-0.600521002521303,-0.10368924638975212,0.15674420391224472,-0.4649133801247772,-0.7493384439033901,-0.7865480882848204,2.4824700897760206,0.110904679872167,-0.767548861779894,-0.8470220457125082,1.8254706805093195,-0.32230570825297333,-0.497381735590046,-0.6412547895417468,0.37945147064168466,undefined,1495454343948
903d185fccf839df,-0.7998116886200308,-0.6332795145886564,-0.5599415793396265,-0.5696319602867251,-1.2730619205039417,-1.6082475838010863,1.8484294015754907,-0.9909936518123242,-0.35346101314666545,-0.6554544985426575,-0.02765308372258414,-0.01613675538022064,-0.8261196524064172,-0.7956301198199627,-0.9054955768019785,1.86214353960454,-0.20780857314059265,-0.8076933916401484,-0.8955939072098932,1.6108163554844965,-0.39780504465372857,-0.4963445119815089,-0.652638153602527,-0.07441665246032644,undefined,1495454345499
903d185fccf839df,-0.7665473694628527,-0.7019603278248434,-0.5733396793132282,-0.6499122210121615,-1.2380802647580795,-1.5361506407816887,1.8411737649153563,-0.9196895826216828,-0.33278341487132357,-0.7112872790443606,-0.012705782256183287,-0.03988159770665928,-0.9088054255793226,-0.8382184958532544,-0.9612851488378208,1.5772376903452894,-0.4031622622090643,-0.8588825760710542,-0.8968603305413414,1.6241206149348515,-0.4076374313742819,-0.5058530380973832,-0.765522503813122,-0.04996924663353433,undefined,1495454346944
903d185fccf839df,-0.8164439172094393,-0.6626302644947257,-0.538248957610744,-0.6341021537715896,-1.348980652397413,-1.5309168411180991,1.865857114890442,-0.786520378792907,-0.31241903828135503,-0.7638539748864287,0.01485414478616488,0.0631844753875177,-0.8913978943850268,-0.8909910113194415,-0.9844430405042859,1.0559209616846306,-0.5927202118577095,-0.9041947885423369,-0.9240709283771773,1.253095072660467,-0.5209299524717775,-0.4973547523389777,-0.7449136463489369,-0.031426782152632095,undefined,1495454348458
903d185fccf839df,-0.7762494970557727,-0.6397367380239762,-0.5114527576635407,-0.646254424456101,-1.3659726223065467,-1.5240432572748221,1.8719293389444143,-0.720360063695141,-0.33534934600413047,-0.7581965074550211,-0.022118101474616667,-0.05575282450943681,-0.8609347147950089,-0.8734001814645621,-0.9602324892880888,1.1508895498396594,-0.5131839891834273,-0.8854492750136433,-0.8980987662194397,1.3271153999342284,-0.4889002087655723,-0.48131490671647764,-0.755992888889633,-0.0044097230341737645,undefined,1495454349953
903d185fccf839df,-0.7360550769021063,-0.4477825998143439,-0.3634337411152746,-0.3509102993928851,-1.3583612055938443,-1.5976239240518957,1.892749513392774,-0.6588427098507914,-0.2736960253303207,-0.7795910278758901,-0.07558203607155844,-0.06957251397982978,-0.7782489416221035,-0.906730184757293,-0.9991799134510778,1.3367854079997592,-0.49505491578394406,-0.9130925739218461,-0.8775911123164867,1.441094692319903,-0.4669172909078711,-0.494812681904043,-0.754202420402176,0.009307443270868913,undefined,1495454351448
903d185fccf839df,-0.679228445411736,-0.21180236597359978,-0.4138367222944175,-0.3834568039478203,-1.3638126231737508,-1.7072914956254475,1.9068926121330882,-0.7206401790962268,-0.2688487665450723,-0.7970863449095675,-0.0794719203144108,-0.03219932894669655,-0.7651932932263815,-0.8928426742118565,-0.9781272746239725,2.0985546451237207,-0.17010311981322118,-0.9031308539325583,-0.8813414020777629,2.199622116646379,-0.2778879587103503,-0.4928108278707789,-0.7403413097813466,0.016224178798858388,undefined,1495454352939
903d185fccf839df,-0.6224018656794804,-0.4002342972825345,-0.3723656383397094,-0.4213460485545462,-1.352950928003363,-1.745570212122625,1.8771126904751956,-0.9878999750509848,-0.20970685307784562,-0.7341633220899206,-0.08039581851216847,-0.16642528232288026,-0.8565828319964349,-0.8197018216013929,-0.9181271674604754,2.171296449821889,-0.1562182392999918,-0.8636639490513217,-0.9117985197077145,2.0551538947516264,-0.3076374389569955,-0.4858268701048123,-0.7184936787931328,-0.03151870344455181,undefined,1495454354445
903d185fccf839df,-0.6473501223000688,-0.37029656160633606,-0.18032451113842315,-0.31863963340997015,-1.3178561311404813,-1.732416998201845,1.8718083721751737,-1.0042014041382432,-0.30181522991381304,-0.6920696550882557,-0.11769563106800392,-0.09091117719050275,-0.09935522504456328,-0.8335893127206676,-0.9865483007058795,1.7146389460889269,-0.2686465534878077,-0.8507574098534069,-0.9655130356885431,1.4701053547498186,-0.4595247199907766,-0.4629181835003506,-0.6304781222209868,-0.20788505345347286,undefined,1495454355938
903d185fccf839df,-0.5891374602587781,-0.49533093157414565,0.0008705593353712619,-0.15203016384090015,-1.200743179431116,-1.630647879253786,1.8465780136519532,-0.9866517010401356,-0.30027864573473523,-0.5201520036066496,-0.1473329391563651,-0.10609600248966657,-0.6999150512477719,-0.8206276465722132,-0.928653490555145,2.013689140358174,-0.23364333611527183,-0.8604658129648554,-0.9109658974577934,2.040278992896464,-0.31971851560435033,-0.4518306194240485,-0.5455240544851058,-0.11457535909566045,undefined,1495454357478
903d185fccf839df,-0.5115207500641057,-0.3432938716927523,0.2630931299416259,0.14567295751431766,-1.111411899877815,-1.5952620775743453,1.8687656785687563,-0.7257114061535229,-0.4339865691177134,-0.4140784968025342,-0.18396049079744028,-0.011982270285124347,-0.9349167223707665,-0.7308217761269159,-0.959179859187292,1.926802877591123,-0.24871874874240885,-0.800948808627999,-0.9669403850768,1.8774096346437394,-0.3480427892142293,-0.43746509655962645,-0.6841568320989384,-0.10115567201111936,undefined,1495454358938
903d185fccf839df,-0.4616242023175191,-0.4430865382853575,0.9342815202162958,0.7302586525202742,-1.1520301186810395,-1.552336527632943,1.8052216772441765,-1.0622004424989018,-0.4831519933127109,-0.37959982268191966,-0.11864921077776096,0.06381499906688838,-0.9044535427807487,-0.6771234162637467,-1.0160220208316453,1.1044155075716502,-0.48369342340462607,-0.7365491047546301,-1.0024911812757722,1.2751764315432226,-0.4778446051578299,-0.4413259500561053,-0.6253731405061511,-0.26408966531556927,undefined,1495454360451
903d185fccf839df,-0.49350243916566194,-0.2018230233215592,1.2953958936777792,1.1872334265869966,-1.2630025090123749,-1.6061675734368581,1.827404090934227,-1.0073166517871248,-0.49003055483406266,-0.30714212589572926,-0.09280381957863935,0.15068832177741545,-0.04713263146167557,-0.6697167258417629,-1.0086536064449505,0.6639230220560238,-0.708993185254235,-0.7011986121176083,-0.9992656516696041,0.6975345513265094,-0.5913282136647036,-0.4419740173426291,-0.5623734216368588,-0.28689210977292856,undefined,1495454361932
903d185fccf839df,-0.4796422889307996,-0.27520001499870195,1.2685991854566772,1.2691551100174554,-1.2673225024247026,-1.6243123467527967,1.879824018369975,-0.7169435239931644,-0.5476526259998572,-0.33095476567606774,-0.000009600366676743879,0.17318315627345404,0.5838903743315509,-0.6474967063789095,-1.014969401774199,0.516418711187626,-0.7184894208689099,-0.6710854648098028,-0.9879588051154988,0.59125448138127,-0.602407692968676,-0.45194215936960397,-0.5564924930295344,-0.2909808847105835,undefined,1495454363438
903d185fccf839df,-0.7180368695198917,-0.31981315485592743,1.0357253663176345,1.1556101294141823,-1.3240789763343603,-1.6492398648759066,1.8922367043361676,-0.7208276217350865,-0.47724241462280936,-0.3191019903494777,0.055076141980539985,0.3147518678035473,-0.3996351381461676,-0.6678650629493479,-1.0539168112127206,-0.09178428024008359,-0.8145055431668387,-0.6941247131883882,-1.0325005037253125,0.08287480221234682,-0.7371097738838465,-0.4513172248219525,-0.5511219594448412,-0.4806908935026684,undefined,1495454364957
903d185fccf839df,-0.7762494625503631,-0.30455088181674067,0.684181027960588,0.7628591027098613,-1.2494356714238026,-1.6651811775311425,1.9353102976918568,-0.4602049950171096,-0.5140107383364952,-0.22338231125682176,-0.030320483374961505,0.0346921988385533,-0.6650999888591801,-0.6734200904789167,-1.0728642045626997,-0.1766497991379911,-0.8947779279255723,-0.6870824785567685,-1.057024325536096,-0.14425226614141995,-0.7894139539296262,-0.45859920515380176,-0.4800640818069723,-0.5050404616568992,undefined,1495454366437
903d185fccf839df,-0.7790214891467946,-0.4530657347974364,0.547008830550662,0.6421637411524266,-1.1487489812917593,-1.693348668762201,1.8564871246257106,-1.0013950230342197,-0.5266982588631207,0.05445881082532777,-0.09115665353732066,0.011872992294471987,-0.7477857620320856,-0.6363867225490321,-1.0528641811119237,-0.0473309677088569,-0.8082779082410327,-0.6975381691384193,-1.0401550149895582,-0.03221317632034974,-0.7610921138261271,-0.46304038851978524,-0.5494806886766889,-0.4749661196459222,undefined,1495454367979
903d185fccf839df,-0.327180670852723,-0.3890810415462205,0.5297824115709462,0.5602466107573139,-1.053534285409073,-1.6677293665266046,1.8991741436811358,-0.6479205282742478,-0.5357626699474392,0.09220520505728284,-0.18146374736071835,-0.06383365983670812,-0.6868594028520499,-0.6863817242504348,-1.0339167951241783,-0.02106303569036848,-0.7298675886536579,-0.7188928541333984,-1.0384337999910265,0.03572476353473689,-0.7502872696178341,-0.45965606426809635,-0.5831411605593971,-0.45066714158821297,undefined,1495454369483
903d185fccf839df,-0.34381296845295095,-0.4806554397091416,0.6242077575400586,0.641602586535625,-1.008873792512992,-1.6763801606655178,1.854249171829605,-0.9614978477027472,-0.5256561488021995,-0.005660037426321678,-0.1278696376169054,-0.015368732272004807,-0.8348234180035651,-0.6715683952095652,-1.0170746582946757,0.11027651134318747,-0.733086786021157,-0.7096277580759672,-1.0409596486869215,0.1347367674312638,-0.7296657816978208,-0.4688775044792156,-0.5733765960167159,-0.43064669267033556,undefined,1495454370943
903d185fccf839df,-0.342426851638506,-0.40023438496651154,0.448754911438486,0.4790647426478709,-1.1193010374183812,-1.5636938954896547,1.8407635270977671,-0.8513148488672773,-0.5021236738315987,-0.31704173520089585,-0.12779773375423956,-0.054950827338728456,-0.8130640040106952,-0.6586067096349489,-1.0076009542574524,0.20322439802615516,-0.7843584465291964,-0.7007996350326161,-1.0548343247226601,0.23086925982151635,-0.7097936434722252,-0.4678799253447893,-0.5905929036649271,-0.43606074349897456,undefined,1495454372442
903d185fccf839df,-0.5350829588810686,-0.5094192330730742,0.1482511838666858,0.11403953344373632,-1.220131726244686,-1.542963666314808,1.8334368789352227,-0.9122407767292328,-0.44761374650842806,-0.5276979204465617,-0.03579909826965845,-0.025801576502872896,-0.7913045900178254,-0.6854558863288399,-0.9633903611848947,0.44771791372747805,-0.7126015795087978,-0.7331356458424827,-1.003232844146259,0.6291346539885674,-0.6211787455058033,-0.47519345494480425,-0.6844064317049848,-0.3083593170227669,undefined,1495454373937
903d185fccf839df,-0.6972466527939506,-0.5540324313862843,-0.04634198658071025,-0.020084992913032843,-1.3824400212786174,-1.533623418603265,1.8264915569887552,-1.0074326762298094,-0.33536205826174786,-0.6475308447360122,0.003894960370946133,-0.08084452770006699,-0.7260263480392157,-0.6947142461186261,-0.9486535360926224,0.5022743944423512,-0.7527948418926921,-0.7593033693666162,-1.0039745064233914,0.6656289685654325,-0.621026939337416,-0.46667554983908144,-0.7039569839502466,-0.32571168323123584,undefined,1495454375426
903d185fccf839df,-0.9384131737159499,-0.6127339896544078,0.031495078288688624,-0.017797608485357327,-1.4749084364401335,-1.5888939342546884,1.8543937968785613,-0.9604995976018544,-0.37299584596640556,-0.6890864118973711,0.04637583838377005,-0.2859929488128804,-0.05583639705882352,-0.7493384374280028,-0.953916705002191,0.33052265517447527,-0.8056826494636112,-0.8065407955088331,-1.0094530092786589,0.502990589754176,-0.6817070737545371,-0.46877609752851435,-0.6865867715247411,-0.33327395864188386,undefined,1495454376937
903d185fccf839df,-0.7831795462941467,-0.5704687928776986,0.48894946549624035,0.3273873491763583,-1.405315408573411,-1.6724786848483049,1.863245733145064,-1.0149151192079804,-0.39851678558819165,-0.7106009195083496,-0.010321602223644512,-0.15927040392779943,0.8406514594474154,-0.7058242428992783,-1.0318115275603508,0.1365444433616759,-0.828433275094177,-0.791335397672975,-1.0534069755974367,0.44022652674784074,-0.6986024927449077,-0.4737620435576097,-0.7062131431920711,-0.32082920387205077,undefined,1495454378474
903d185fccf839df,-0.6085417154446181,-0.46715415320833437,0.5361622655492713,0.32129995896838803,-1.2471111013544474,-1.5769030099837609,1.8164982954467264,-1.0829495851227764,-0.3784275974991349,-0.6515870838949878,-0.06245521132628151,-0.2694038570364449,-0.21250417780748662,-0.7669293061352058,-1.0076009763441538,-0.14432003121817427,-0.9463202446948938,-0.8209672413332754,-1.0281904692590629,0.6272714455897673,-0.6659738481384868,-0.47086657462549447,-0.7358363395402948,-0.3547011759964246,undefined,1495454379937
903d185fccf839df,-0.7499152443896735,-0.3808627731165364,-0.20074085710730138,-0.21285874186544798,-1.1290415852699243,-1.4145550369285094,1.771076288121762,-1.0307656017215505,-0.3551998710815688,-0.5957930197014065,-0.07525746156222961,-0.05651762314255715,-0.669451871657754,-0.7956301133445755,-0.9023376717751205,0.0072255130060163274,-0.9150897559874479,-0.8433035333290901,-0.99987437661988,0.6193720423623199,-0.6701227486497326,-0.4911145752100186,-0.7550406075020829,-0.3810244714463671,undefined,1495454381489
903d185fccf839df,-0.7263529148037765,-0.7248540296635468,-0.48529393318549136,-0.5203272717761587,-1.0196120569082903,-1.2814902593872197,1.7560232710978951,-0.8786469808627477,-0.3511744521901438,-0.6470780305017859,-0.024492790058875835,0.0376731324770286,-0.7608414104278075,-0.8382184699517052,-0.8876008209150299,0.14866794557600346,-0.8348236287689533,-0.8676157047433144,-0.9632250819451899,0.7909107247954997,-0.6356903836018513,-0.504054559568994,-0.7452115580973551,-0.3269203527501258,undefined,1495454382949
903d185fccf839df,-0.9453432919651432,-0.7107655527966642,-0.5695113603071141,-0.5982427450597018,-1.1183341811685756,-1.30788054024291,1.756870078288407,-0.9678675716038416,-0.30858489470256983,-0.6716923663384377,0.039088058293862846,0.01731935480691059,-0.6825075200534759,-0.8946943565304334,-0.8970745212711364,0.04561691897411078,-0.8845864692522589,-0.9063163240929134,-0.9652541568302756,0.9589077645067873,-0.6150399279258515,-0.4923649135078261,-0.7324240059260074,-0.4024853737478253,undefined,1495454384430
903d185fccf839df,-0.8081278029147351,-0.5698818363355619,-0.4840181656993859,-0.5723329653291227,-1.3547303571499447,-1.4452218028021049,1.823104371175101,-0.8769965523589536,-0.2992459418776071,-0.7171821340489427,0.01222371247106737,0.0912342699272442,-0.6346368092691622,-0.9289501912693718,-0.9086534818288365,0.31839901163654,-0.8314294330184421,-0.9282283092166895,-0.9835508171076258,0.7401882438799546,-0.6824558198951243,-0.482891567456036,-0.7165321639751795,-0.3329400520013615,undefined,1495454385984
903d185fccf839df,-0.905148837306067,-0.5921884062641746,-0.4636018197305076,-0.5776009298510523,-1.5319837738357753,-1.477018247756956,1.8231306671146936,-0.9771469093656567,-0.37334156579544286,-0.7058920200113018,0.019010106707671472,0.10726592787790697,-0.5650066844919787,-0.919691863856522,-0.9970746385250167,-0.19281469016407987,-1.000400090848073,-0.9153344359172029,-1.0269450389355275,0.45961316661646956,-0.7519954045354857,-0.4663499724263956,-0.7039708410279575,-0.4114634200264192,undefined,1495454387476
903d185fccf839df,-0.8968327230113627,-0.6861109228755659,-0.48018984669327175,-0.5854756955400338,-1.5513620234793184,-1.4010524402527447,1.808011909718084,-0.923119922954954,-0.3444787563306053,-0.7026859513448881,0.027486848386069077,0.08476523145018795,-0.5998217468805704,-0.9252468849107035,-1.017074654613559,-0.28980383846756186,-1.0138744983569041,-0.9408561988208224,-1.0460113481340445,0.3733818744866316,-0.782978317077188,-0.4665038425503885,-0.7252629464493632,-0.4102682954781868,undefined,1495454388983
903d185fccf839df,-0.8899026910256936,-0.7718152295132578,-0.542714652086012,-0.6305422895130744,-1.5341951966445107,-1.3528930886567025,1.7767014372067398,-1.030858099137698,-0.30117545984683824,-0.6950799105278163,0.06691686323395342,0.028371540298002366,-0.9044535427807487,-0.9391343825053655,-0.9949693709611892,0.16483293552861764,-0.89951474748002,-0.9467521697000643,-0.9828721271071137,0.5962743691849108,-0.7185506503145263,-0.47234263813266153,-0.7460053713782665,-0.3171449868830353,undefined,1495454390565
903d185fccf839df,-0.8413921910827326,-0.7600749295508301,-0.5848236197837727,-0.634011562654215,-1.365098334907456,-1.3553690684652486,1.7901581546242382,-0.9311618109404834,-0.34445040253306886,-0.642660246017546,0.08238275301460746,-0.04583613647574213,-0.9044535427807487,-0.935431050245148,-0.977074637160942,0.4982332458807231,-0.7917774740124651,-0.9549406652548255,-0.9928775671256587,0.7066812213654589,-0.6990805649110442,-0.47681990117282963,-0.7446032949470606,-0.2024301110674824,undefined,1495454391985
903d185fccf839df,-0.6722983961733622,-0.6485418460838277,-0.6313987902307004,-0.6587497438918655,-1.2129728758245362,-1.4289916604636987,1.7976478401263107,-1.0025461060718392,-0.39092745948523916,-0.6838865220988295,0.07844995896171647,0.0724093388080301,-0.7738970588235294,-0.933579387352733,-0.9602324598391536,0.5042950676496907,-0.8241866141944415,-0.9753517428820865,-0.9473073378308066,0.7002292734369673,-0.6911554711882487,-0.4794933570417371,-0.7392971672871316,-0.25209331657651596,undefined,1495454394401
903d185fccf839df,-0.6445780957036373,-0.6485418460838277,-0.6313987902307004,-0.6587497438918655,-1.215143157837637,-1.4286446041577423,1.7982290282630595,-0.9980900679351838,-0.392086548682341,-0.6845861546880153,0.07865695065393949,0.08333944295583262,-0.7651932932263815,-0.933579387352733,-0.9602324598391536,0.5083363010054835,-0.8217280703003436,-0.9756747229819501,-0.9473773059395734,0.6956867322053227,-0.6924105216397666,-0.479253299142047,-0.7379996959981823,-0.24980657599017722,undefined,1495454395355
903d185fccf839df,-0.6445780957036373,-0.6485418460838277,-0.6358649929798672,-0.6813332521553916,-1.2205225772787274,-1.4282509626488327,1.799336177092537,-0.9905818788050003,-0.395411323175655,-0.6836504693590607,0.07946037212188149,0.08608673362861305,-0.7260263480392157,-0.9317277179849307,-0.9602324598391536,0.5083363010054835,-0.8241866141944415,-0.9757697170319144,-0.9459079757227589,0.6932999731746108,-0.6923935247290773,-0.4785482650848578,-0.7375303100950986,-0.2520610104713464,undefined,1495454397352
903d185fccf839df,-0.6307179627214798,-0.6485418460838277,-0.6313987902307004,-0.6813332521553916,-1.2235568579630907,-1.4276383728663664,1.7991126422268446,-0.9902500835662575,-0.3984786727822276,-0.6822884578868836,0.0789751597623857,0.07404319486383197,-0.6868594028520499,-0.9354310534828417,-0.9602324598391536,0.5083363010054835,-0.8241866141944415,-0.9773592858229629,-0.9458310108092324,0.6925454493881297,-0.6933530659987212,-0.4775066504133397,-0.7343314796497906,-0.2518896067015888,undefined,1495454398391
903d185fccf839df,-0.573891279472995,-0.6491289779939184,-0.6358649929798672,-0.6813332521553916,-1.2113991639795991,-1.4293084380809662,1.801437390583751,-0.9775645481293441,-0.39632731630948703,-0.6853017474960811,0.08003286734209342,0.10872736424551353,-0.4866727941176471,-0.9354310534828417,-0.9633903722282454,0.5224804764271506,-0.8238101540675826,-0.9776759331507859,-0.9422976213593298,0.7078976988114994,-0.6890439688277122,-0.47696068348134835,-0.7324695915590885,-0.24645509318512254,undefined,1495454400367
903d185fccf839df,-0.5586451676980315,-0.6508900229882827,-0.646711049707359,-0.6813332521553916,-1.20129860932378,-1.4314886061882135,1.8024630149820946,-0.9751303748295509,-0.3945936730822225,-0.6905721856815258,0.0817611760494589,0.11090038130269006,-0.3822276069518717,-0.9289502139332273,-0.965495632429839,0.5285422981961182,-0.8206574376186075,-0.9766689952223506,-0.9415069816996801,0.7227418009217598,-0.6850809149911219,-0.47707346814479945,-0.7282423436073812,-0.24988531290793725,undefined,1495454401425
903d185fccf839df,-0.5586451676980315,-0.6538250979788895,-0.646711049707359,-0.6772959096923096,-1.1961660458594172,-1.4309808320686201,1.8061289641529823,-0.9497861680253818,-0.38890011533676877,-0.6921681912532684,0.08525577412898555,0.11486561169816757,1.3628773952762925,-0.9270985478031185,-0.9581272143620275,0.5386453533208786,-0.8185432819434002,-0.9770299730396453,-0.938680270056566,0.7317344927662203,-0.6814153520437686,-0.47794594587232614,-0.722051591323797,-0.2612444708418776,undefined,1495454403439
903d185fccf839df,-0.5309248672283068,-0.662043307952589,-0.646711049707359,-0.6772959096923096,-1.2003317530779756,-1.4329141005949788,1.8056687480230837,-0.9575316329807774,-0.38789796292815953,-0.6916861105241917,0.0851785373313251,0.12730649412153924,1.419451871657754,-0.9317277212226244,-0.9581272143620275,0.5386453533208786,-0.8185432819434002,-0.9784612183218092,-0.9391350627819012,0.7322580398306202,-0.6817713042928955,-0.477092170910394,-0.7204631483303497,-0.2608486844141323,undefined,1495454404407
903d185fccf839df,-0.48657244168540265,-0.6737836079150168,-0.6313987902307004,-0.6712445604818501,-1.199251754914943,-1.433780577669191,1.8030073848228305,-0.9759426329385146,-0.3895836029586643,-0.6997418259204627,0.08570567704751089,0.15854104873811364,1.7371393159536543,-0.9252468816730098,-0.960232481925855,0.5305629431387361,-0.8101268956026086,-0.9751174240379995,-0.9386732732028699,0.7359844632786015,-0.6794487021317918,-0.4778505972646676,-0.7184182700912769,-0.2619407703039123,undefined,1495454406378
903d185fccf839df,-0.47548433529967665,-0.6714355479225312,-0.6250184279784765,-0.6712445604818501,-1.1907249126802115,-1.437465434007647,1.8076858098985045,-0.9498355968875279,-0.39660496013580865,-0.683488423909754,0.07820950021235964,0.1555998318570858,3.1297418114973263,-0.9270985478031185,-0.9570745916234645,0.5204599162786973,-0.8112544885117398,-0.97465511916616,-0.9371199811515452,0.7389409648042886,-0.6782134012441943,-0.47830426765782513,-0.7194017084786464,-0.26380362827945947,undefined,1495454407436
903d185fccf839df,-0.4643962289139506,-0.6720225629206525,-0.6313987902307004,-0.6758270501536711,-1.1939134788621628,-1.4399973164308566,1.8065681418551722,-0.9631047901675774,-0.395115961012211,-0.6824677246327757,0.0775855026024063,0.16122518706110672,3.316872771836007,-0.9215435429374053,-0.9539166865966066,0.5467278200324641,-0.8055417866138798,-0.9746234544090164,-0.9377706845936614,0.7468557654540466,-0.6756320477064597,-0.47825206381087976,-0.7224203784290238,-0.26647891517809025,undefined,1495454409368
903d185fccf839df,-0.4643962289139506,-0.6743706229131381,-0.6313987902307004,-0.6758270501536711,-1.191403768920812,-1.441380884572473,1.8070625449063376,-0.9628615368748751,-0.39360590242532767,-0.6823787088514026,0.07736587870815465,0.15201970331296277,3.443077372994652,-0.9215435429374053,-0.9570745916234645,0.5548102584793281,-0.8055417866138798,-0.9744524649795567,-0.9373998536110805,0.7441456389478017,-0.6759626239398012,-0.47834944897623116,-0.7226238451689596,-0.26628863797135843,undefined,1495454410417
903d185fccf839df,-0.45746616242287186,-0.6673264429356816,-0.6333129497337574,-0.6859157418272125,-1.184646065624449,-1.4475556977648376,1.8106864172218073,-0.9500608249298117,-0.39769762351859994,-0.6831152812903815,0.07815856031361763,0.1723618534235668,3.3342803030303028,-0.9252468816730098,-0.9570745916234645,0.5871399274726196,-0.8026509572456307,-0.9771819635882428,-0.9362453797613752,0.7610223350492333,-0.6739694904582204,-0.4772635768416725,-0.712602551303262,-0.2651072660510863,undefined,1495454412367
903d185fccf839df,-0.4643962289139506,-0.672609577918774,-0.6333129497337574,-0.6859157418272125,-1.1906014837956145,-1.4494144302448104,1.8107495325049348,-0.9551846820310221,-0.3986674555597524,-0.6776330956956396,0.080346658202005,0.18443774630048826,3.2646501782531194,-0.9252468816730098,-0.9570746063479321,0.5729956672567879,-0.8054224138861269,-0.9771946294423774,-0.9332577413274051,0.7690295268697747,-0.6713205173760343,-0.4780702414001846,-0.7138695973285599,-0.2663990536011173,undefined,1495454413420
903d185fccf839df,-0.4643962289139506,-0.6602822629582249,-0.6250184279784765,-0.6906954620101311,-1.173609511399833,-1.4535092328668198,1.815580487229022,-0.9246091608118818,-0.4086086009965405,-0.6609638646735294,0.07935703447574537,0.17628156387883356,3.09057486631016,-0.9270985478031185,-0.9528640859447448,0.5689544621657167,-0.7956965955747024,-0.972520917063829,-0.9267157229436149,0.7848129331964346,-0.6636554909380146,-0.46315647501798296,-0.7241120584604147,-0.2708864087047489,undefined,1495454415378
903d185fccf839df,-0.47548433529967665,-0.672609577918774,-0.6243805442354238,-0.6906954620101311,-1.1822700685902976,-1.4517832668931525,1.8137764389103954,-0.9339258080708207,-0.4078250209832499,-0.6606713028678238,0.07934751682749559,0.16264551604455538,2.9861296791443848,-0.933579387352733,-0.9528640859447448,0.5649132570746455,-0.7956965955747024,-0.9738255034945917,-0.9265547962751001,0.78855475542642,-0.6637874456153748,-0.46384471959760865,-0.7208646668083525,-0.2696385914520695,undefined,1495454416325
903d185fccf839df,-0.5198367608425807,-0.6685004729319243,-0.6224663847323667,-0.6906954620101311,-1.1896037703606688,-1.4475929663679046,1.8123353066123176,-0.9330816258542459,-0.40181835263968235,-0.6651976480965137,0.07704285256604011,0.12754261218081547,1.2410246769162212,-0.933579387352733,-0.9581272290864952,0.530562886609293,-0.7884836030151289,-0.9742308118899446,-0.9284649254792723,0.795129891403125,-0.6636454654034755,-0.4662613654751511,-0.7158172698718374,-0.265682992351826,undefined,1495454417906
903d185fccf839df,-0.4602381200084839,-0.605102736222845,-0.5656835495748989,-0.6538117272237811,-1.209321448672655,-1.41482522821207,1.8174266165931543,-0.8098086667181492,-0.44149454271145067,-0.6826159391455822,0.05728513432704904,-0.003967642764130475,-0.17333723262032086,-0.8317376239267035,-0.9265482303535514,0.6134078877558294,-0.7221306742107048,-0.8701995460239136,-0.8812224575590911,0.5354967073373976,-0.652358415355215,-0.4604553093902449,-0.8182301047922916,-0.2919666166179986,undefined,1495454418987
903d185fccf839df,-0.4117276545709326,-0.527616756470822,-0.5171942196249142,-0.5141963564935529,-1.2171797193615634,-1.325077313365253,1.8337892715518296,-0.45569996446344435,-0.40433666055868855,-0.7472241298508374,0.04843431234435946,-0.497800506505811,0.4533338903743316,-0.7706326060184868,-0.8781271131966896,0.3608318770781995,-0.7052470481040385,-0.8078200508182127,-0.8553202636936321,0.4072276561371023,-0.6372755962440809,-0.4716210414553755,-0.8401800230062187,-0.3529437263901388,undefined,1495454420463
903d185fccf839df,-0.4394479205352476,-0.45834886978052886,-0.2932522977103062,-0.33520104354420766,-1.0648382603547615,-1.303937139182575,1.8040540518389705,-0.5577130662682566,-0.46170931562823186,-0.7289313270767714,0.05450305997674781,-0.626848011846132,3.2167794674688057,-0.7558192964037791,-0.9076008517280397,-0.12815525325097163,-0.8113718918712493,-0.7969970499849632,-0.8715668582311894,0.035570777437872333,-0.7168067754260349,-0.4640400351999324,-0.7452927584031803,-0.41313093003760143,undefined,1495454421940
903d185fccf839df,-0.5711193908982025,-0.5921884062641746,0.1444231189975211,0.15336809425802195,-1.248273386910261,-1.2391749715107814,1.7457907011070004,-0.8143011423601566,-0.37652667555711883,-0.6809418323537666,0.06216831710476195,-0.5927117825854982,2.47695939171123,-0.7382284341719634,-0.9612851120266518,-0.5161119595237857,-0.9150938822242662,-0.8114868251132994,-0.919453031467442,-0.3555497354842631,-0.8226791799430117,-0.44858806167291243,-0.6733399010502243,-0.4828584024310569,undefined,1495454424120
903d185fccf839df,-0.7402131167967535,-0.39436423498529766,0.283509984184403,0.4194634172591952,-1.228504278018537,-1.3288599991923886,1.7771353563495238,-0.7521098388253421,-0.3358086208247073,-0.6622478582010503,-0.008477306996190474,-0.594352880125836,0.22703598484848486,-0.6808267226224151,-0.9349692858843934,-0.5262150005161853,-0.9142232116991054,-0.77467342341696,-0.920229677162783,-0.357366751616131,-0.8045967857627185,-0.4669080067188876,-0.6775457264437857,-0.48014123999128755,undefined,1495454424960
903d185fccf839df,-0.7443710876805812,-0.00047670359796926404,0.7173573360230657,0.6261300655163916,-1.1796163624853446,-1.5957558743921627,1.7942606553601785,-1.174888037959758,-0.4156428024807468,-0.515458211568244,-0.13133083010867022,-0.3954508793219114,-0.16898534982174687,-0.6113891893213943,-0.9518114263950128,-0.4272052214024462,-0.8161286795601734,-0.7117366288077653,-0.9411291511107255,-0.2932322280689855,-0.7631950195344612,-0.47618860856046136,-0.6753521289860556,-0.5044026831465335,undefined,1495454426491
903d185fccf839df,-0.6556661675839537,-0.17129833110322404,1.0363635041976365,0.8547762374126426,-1.2154723032456762,-1.7032572509063253,1.8474221821350665,-1.0166911935945635,-0.4781771544699929,-0.5012143098024644,-0.20449488864344015,-0.3000558639661636,0.7884288658645277,-0.5956500094081555,-1.0097062218212798,-0.45953487626337686,-0.8339684060997045,-0.6853852496346176,-0.9754135245043166,-0.31512881641662027,-0.7684603710484972,-0.4812493133173525,-0.6691055437956502,-0.5560447869170885,undefined,1495454427988
903d185fccf839df,-0.6237878617249913,-0.5012010230993749,0.8551679254499432,0.9088769361556903,-1.1417958548709988,-1.8278855246374877,1.8925733202270356,-0.9567863320446808,-0.3806093678292526,-0.5887219539672107,0.008786499699808431,-0.32014963079498415,0.5142602495543672,-0.5928725150695329,-1.0297062526342897,-0.25747416947427043,-0.7210655440537418,-0.678096031201716,-1.016023014624571,0.1295628914441002,-0.6780077129675808,-0.49508345748022853,-0.5761497684107747,-0.6205649853684433,undefined,1495454429463
903d185fccf839df,-0.4560800456084269,-0.5522713571639278,0.4513069546845958,0.4712788789098422,-1.0938439395947828,-1.8776753424193693,1.8482716091775848,-1.313799315807353,-0.3398660458673417,-0.652283852899394,0.031010474387170972,-0.2645718112424559,-0.4866727941176471,-0.5910208457017305,-1.0254957175066348,0.7811182806090265,-0.6341146468790873,-0.6880070877357077,-1.0352432537847158,0.7001368857529223,-0.5811251892582986,-0.4783305190747151,-0.47173965154065023,-0.4316661613648557,undefined,1495454431001
903d185fccf839df,-0.30916256698673766,-0.6133209754245368,0.6178276494247843,0.5969302995556942,-0.9493401825034948,-1.9155674066696573,1.9220613331767034,-0.8529203399463241,-0.34307893250239974,-0.8061164102001144,0.1843338010390601,-0.20040031090431956,-0.02102133467023172,-0.553061613948702,-1.0539168185749543,0.7649534319800201,-0.5553955929051113,-0.6078763516680372,-1.049033968144988,0.7696146725758537,-0.5332834428322574,-0.4799503270192759,-0.5553314711688179,-0.39412397518114617,undefined,1495454432450
903d185fccf839df,-0.11234840259682298,-0.707243477421932,0.8309235146119003,0.851533280809277,-0.7585096411656981,-1.995646650901704,1.8834741866250375,-1.1542581171944868,-0.30522424983318047,-0.5370341973426794,0.17134657640878473,-0.2807405946030442,0.09212761809269164,-0.5678749947926697,-1.0433904807558172,0.7669739921284734,-0.5753269677993149,-0.579631423830249,-1.0288201816813112,0.8190744800762905,-0.5042397640626357,-0.4689287729711016,-0.608517141768034,-0.434354587176292,undefined,1495454433951
903d185fccf839df,-0.3008464181866237,-0.6679134287058105,1.5314598939429338,1.4211056813389213,-0.7220879832032437,-1.9691748471948218,1.8429357353310425,-1.3647385101027145,-0.37271369803388354,-0.348827142615908,0.052155459589199545,-0.31130091538551663,0.3662962344028521,-0.5613941681938297,-1.0349694031382737,0.6962527193140368,-0.5428786309776811,-0.5836971747231011,-1.0163868488146264,0.8407246946026289,-0.5034886881337644,-0.47504887574520716,-0.5337148248183271,-0.44200992014553964,undefined,1495454435442
903d185fccf839df,-0.28975831180089767,-0.6256483342270744,1.4606408209318622,1.4417440596126596,-0.7567919233986169,-1.9322331133971093,1.9008835023147221,-0.9437093245557955,-0.3920845444841359,-0.4724077205276438,0.07284060289466453,-0.28543569651484496,0.47074142156862747,-0.5160282654449792,-1.020232559640417,2.1308843706464553,-0.10615546936481689,-0.48815838637274606,-0.972180997708014,1.5183640799917826,-0.31075927855018937,-0.47608431570694365,-0.22107899570161468,-0.26308272127687565,undefined,1495454436943
903d185fccf839df,-0.4269737663458961,-0.5927754504902882,1.0165847878348615,0.9630002432439883,-0.808127837135566,-1.9153833965662257,1.9182112967158382,-0.8408758166385526,-0.3883472494926068,-0.6482314572092444,0.07737976613226123,-0.21098726888930575,0.009441844919786108,-0.4438132831330468,-1.0370746707021012,0.9589317568517056,-0.36843426052603806,-0.49541594069629374,-0.9932973727380798,0.9599856519724297,-0.43941326183173607,-0.459790348094581,-0.1273805562841738,-0.32700394067508265,undefined,1495454438439
903d185fccf839df,-0.4754843007942669,-0.5833831959063499,0.962353741786554,0.9630002432439883,-0.7286708281215548,-1.9319116783062185,1.9502107714495274,-0.6371733171934886,-0.38434466377876664,-0.4570497995720413,0.14820105242862067,-0.215066085075548,-0.517135973707665,-0.41511237231748077,-1.071811567099669,0.9993440056154688,-0.43448895749894667,-0.5103363562327692,-1.0048770949224923,0.9087550264631615,-0.45912901861908206,-0.4469052274342994,-0.13192769811305116,-0.306782797744345,undefined,1495454439937
903d185fccf839df,-0.48795848948902815,-0.6726095486907816,1.0293450040654104,1.015838245186028,-0.6776846298243668,-1.9956559670050735,1.940788184068001,-0.7777864215471346,-0.32424490677401446,-0.1465647494826093,0.18187600347783295,-0.16983570035355217,0.2705548128342246,-0.42529661535657265,-1.0465483710582077,1.1064361807789895,-0.358473580258743,-0.48729710716210056,-0.9876649398722477,1.1032989842660486,-0.40866496302695426,-0.4423432767205158,-0.14504610422237477,-0.32652206877048556,undefined,1495454441443
903d185fccf839df,-0.2578800059419354,-0.6186041542496178,1.158861580010906,1.0728495626794963,-0.665094939081915,-1.9567856233016883,1.9181692230029854,-0.8705206372412955,-0.24660052212150083,-0.029095155788816062,0.21629047580672633,-0.28282973776641024,0.20962845365418897,-0.4002990821289349,-1.0181272847143557,2.0783485066094785,-0.13178727211953817,-0.46858959021582147,-0.9760432372201839,1.5495613307217428,-0.30845840455831497,-0.446218545446857,-0.046439220131255385,-0.3120689269210301,undefined,1495454442944
903d185fccf839df,-0.16224498484881927,-0.6262353346111997,0.6867330712066977,0.6401217329615181,-0.7052400144410101,-1.9087194425682035,1.9280388926861582,-0.7469698210489497,-0.22830736734936574,-0.1801753574268196,0.18778654167054656,-0.20932752679826155,-0.20815229500891266,-0.43177745490618713,-0.9002324189357607,2.096534113239989,-0.1686982885617063,-0.5051750061723148,-0.9258551131749193,1.6341449924197826,-0.28513509204030285,-0.47158887918360304,-0.18112218661844312,-0.21676099192833068,undefined,1495454444500
903d185fccf839df,-0.26203804583658263,-0.5986456004715022,0.851340114717728,0.8372267885418431,-0.6610629426580056,-1.8931810880045492,1.897314864775925,-0.9167880656625305,-0.2620277824567923,-0.05142864601028207,0.12616054874324978,-0.2618067213843046,-0.499728442513369,-0.44659078394705665,-0.9518114190327791,1.2498993713504807,-0.3470065149584871,-0.5264093668319834,-0.9551087793707848,1.03508387548926,-0.42980010019500303,-0.4748594355439357,-0.4178617100284935,-0.23469743143941127,undefined,1495454445956
903d185fccf839df,-0.04859179087889838,-0.586318285510953,0.7569142604747167,0.7429564197111203,-0.48068267436055606,-1.8745401861141073,1.884536635604525,-0.9130433584249343,-0.3868836188855709,0.061461618053885995,0.04551742933306178,-0.30517786063405156,0.40981506238859183,-0.40492825878613437,-0.9076008664525073,1.1367452613591063,-0.3851170417584343,-0.5047063682571379,-0.932243201750008,0.9988513314559622,-0.41533390324382635,-0.49325289391450877,-0.47750067855251016,-0.2792631177361527,undefined,1495454447438
903d185fccf839df,-0.06938199035213466,-0.5698818363355619,1.0057384769704203,0.964094267781196,-0.4968312227760104,-1.8798298886773142,1.792590720209306,-1.5131825568961097,-0.4291539424014681,0.19774652582609634,-0.05253446979383866,-0.3742476144012198,1.0408380681818183,-0.4141865732482096,-0.8518113091411326,1.35699151824928,-0.4135084824102633,-0.49256611490645086,-0.8845739291126309,1.0899331358803397,-0.3739564593346055,-0.4774924761366502,-0.562594337205779,-0.32939291966603856,undefined,1495454448930
903d185fccf839df,0.1911887167448852,-0.5505103121695637,1.3126220585205455,1.1042234374719109,-0.43507590053376854,-1.866960841865004,1.7944920707323269,-1.4272536326342549,-0.5152498795546844,-0.1322501862786836,0.0028460204114616324,-0.25046427176443053,0.13999832887700536,-0.3188256817487309,-0.8739165854312685,1.1791780137418795,-0.42469854494132514,-0.43664622009239007,-0.8952860464547167,1.0468020911411149,-0.3542866167393805,-0.49009157049352114,-0.6291698379644747,-0.3271969722352968,undefined,1495454450443
903d185fccf839df,0.14822230450019686,-0.3503379639862319,0.8239055227535731,0.8054206054765854,-0.49036152073317696,-1.7891060210574716,1.8077910072746592,-1.2563757576460712,-0.5452545541008866,-0.6667475346966748,0.09040496020513283,-0.16341034268190047,-0.45185773172905525,-0.40770574664936965,-0.869706035579146,1.051879841387724,-0.3433129493663572,-0.46297226764585514,-0.8543337130174652,1.0304335474011592,-0.35589902224087383,-0.5110403174609753,-0.7842191721750094,-0.11997473699701376,undefined,1495454451931
903d185fccf839df,-0.045819833293286344,-0.35209909666457306,0.28861381653967316,0.164007170111716,-0.5920562098231592,-1.5951828799562588,1.821584338487983,-0.8837758151575498,-0.6293444822103295,-0.5660743861650577,0.008859365585773852,-0.09449131593088607,-0.47361714572192515,-0.48640162031401474,-0.9265482598024866,0.6800878989497519,-0.5419756188946424,-0.5099690421996276,-0.9090837579317183,0.8668250619361393,-0.43093893452504084,-0.4630666468738378,-0.8105442060098452,-0.31086564719127974,undefined,1495454453436
903d185fccf839df,-0.17471920804899024,-0.3849719365593708,0.25352334897413836,-0.037878844878685924,-0.6100253210309682,-1.5738027938745576,1.8703409470800683,-0.5652847092239256,-0.547149332435785,-0.3176607843445475,-0.16610728425579735,-0.08648191180089017,-0.6389886920677362,-0.4891791081772501,-0.9233903474133947,0.7124175962077648,-0.5446088645510363,-0.5308297584957833,-0.9040530510214946,0.957675887605627,-0.4284057508487266,-0.445188769254787,-0.7665551175065507,-0.2883686297321003,undefined,1495454454940
903d185fccf839df,-0.17194714694714902,-0.36207829317665197,0.4417366654432094,0.2063145259898235,-0.8054535634875389,-1.5701668525087675,1.8636323095403722,-0.6017009822201722,-0.5015363004493542,-0.5908009231116004,-0.2594133605949863,-0.024514024253304498,-0.8957497771836007,-0.46695907576362217,-0.9370745460859871,0.8821486905330229,-0.5706551238501738,-0.5123312302466614,-0.92369309862626,1.0574270212588266,-0.41069487871977384,-0.4353382372128704,-0.7680470293874546,-0.2770122374838039,undefined,1495454456459
903d185fccf839df,-0.19550933851140706,-0.17247227341548982,0.8602720119421629,0.8095022622241124,-0.9090922408375829,-1.652263218022172,1.8595298108994756,-0.7770271753612384,-0.46440361632310895,-0.6239289598001702,-0.30107320798003084,-0.000013217643601761406,-0.9349167223707665,-0.5086215750229953,-0.9128640169564913,0.7164589426224437,-0.6046599695117373,-0.5359151135919923,-0.9141634424507911,1.1552687456169528,-0.4059039028480231,-0.44002370695305426,-0.6991731643847778,-0.3100078100157277,undefined,1495454457968
903d185fccf839df,-0.2786702054151717,-0.17892943839482506,1.0905942961089947,1.182775415514235,-0.9943606684742758,-1.6544177630877515,1.9034107523472217,-0.5184637049874423,-0.4813249038746079,-0.8699325305921467,-0.1511233930477392,0.05720084758443107,-0.9131573083778967,-0.4956599865791882,-0.9918114659343312,0.4598415855301348,-0.5668293927429752,-0.5525264262198112,-0.9598036394262157,0.754939961092868,-0.5115123548550476,-0.4211520346110538,-0.6156389542700547,-0.4445775139446781,undefined,1495454459452
903d185fccf839df,-0.5004325746675602,-0.32040022831003345,0.9814940661323773,0.9279234385584887,-1.0975879244684807,-1.6564162508703388,1.895242574408963,-0.6205865170733417,-0.3994910555701674,-0.9251432964186729,-0.16344851045600867,0.029007402890019445,-0.8826941287878788,-0.4808465798336714,-1.0339167877619444,0.41942953461942245,-0.5934185362564995,-0.5379923208123967,-0.9564171827661581,0.6899585237192923,-0.5182708082426356,-0.4114038858944533,-0.5923975938529451,-0.4513660029729116,undefined,1495454460941
903d185fccf839df,-0.27035419463669663,-0.39906029651428404,0.5208497519356632,0.48985927724896,-1.0702485440708382,-1.6613984920464946,1.8706486251813794,-0.8159847283346262,-0.3449464740569677,-1.0027907517251375,-0.11617176994495731,0.031115783285003147,-0.8870460115864528,-0.45399738371361864,-1.0665483945089838,0.4153883012636297,-0.6808785768178928,-0.5614812092772633,-1.002029392712173,0.40628836172126415,-0.5995704563775365,-0.4051751874963289,-0.49397627327715204,-0.481218077862615,undefined,1495454462448
903d185fccf839df,-0.4158856599601701,-0.383797906563128,-0.027839800114889058,-0.004811932640302305,-1.2001466117996133,-1.6904627393448877,1.8940302313458954,-0.748951920162727,-0.32355299826465833,-0.9755448743258531,-0.08579328596569977,0.02837087226272524,-0.9088054255793226,-0.5669491503956876,-1.076022109589558,0.2375747967562291,-0.7529480896600729,-0.6260139047187075,-1.0472637753235101,0.40017517816558595,-0.6431765274443246,-0.39754034166358115,-0.5002173697473264,-0.47527850863303733,undefined,1495454463939
903d185fccf839df,-0.5045905628040929,-0.45071767480495084,-0.13885342718371507,-0.2853352903347769,-1.1342152929868226,-1.726358644786786,1.891936904646268,-0.8216366817112829,-0.30574631976622374,-0.8858000661284612,-0.10794730594755766,-0.023325045189887227,-0.8913978943850268,-0.591946677147938,-1.0602325991797352,0.11027651134318747,-0.6755046584181048,-0.661890030634523,-1.0175553174850291,0.3936616326724001,-0.6460230036088316,-0.4241230278127571,-0.4204665212305785,-0.40386850576489775,undefined,1495454465472
903d185fccf839df,-0.3978674525779556,-0.549336369857298,-0.09355453249679177,-0.11786403961267441,-0.8597928966486501,-1.7573188911531572,1.8706144351175475,-0.9701932922776909,-0.40440608626476915,-0.7928357233227388,-0.0012319936905676768,-0.11144720842178024,-0.852230949197861,-0.5632458310862448,-1.0381273228895993,0.37295557714557787,-0.7136272620201212,-0.6855942393394477,-1.01585509249705,0.5111055730487457,-0.6333643025221275,-0.4377669033193982,-0.40543807980855134,-0.4126323779787219,undefined,1495454466927
903d185fccf839df,-0.08878617652715519,-0.5599025813674983,0.18142774606611295,0.22205962946636004,-0.5758253714102455,-1.7663819621897767,1.9006257868128937,-0.7031608454716799,-0.2847149759489804,-0.9363802666678707,-0.009106052025799513,-0.08074359102427489,-0.7390819964349377,-0.5549133221688279,-1.0149693870497314,0.6134078312263864,-0.5495908200363638,-0.6678429982836946,-0.9942979179657935,0.8357971927867816,-0.5484199736664087,-0.4120723503219884,-0.3628853350987449,-0.33079262347493266,undefined,1495454468442
903d185fccf839df,0.16624051188241137,-0.46069698822899907,0.5106418330881735,0.39492856539137094,-0.6542229521769162,-1.7075570257060715,1.9017618608616673,-0.584685423191472,-0.38317939515254523,-0.9340226283368083,-0.08984616984675392,-0.015344884664490186,-0.8000083556149733,-0.5299158148427393,-0.9876009381689101,0.3810380155924418,-0.5996944875823433,-0.6566970173395082,-0.9866014258057025,0.581553457155673,-0.5912588782389804,-0.4195325074450805,-0.40184764017368907,-0.33505326906205585,undefined,1495454469944
903d185fccf839df,-0.5794354016766775,-0.3614912781785306,0.550198503402875,0.45890988787828907,-0.8640511745544022,-1.6115807246660971,1.881678034525694,-0.6089259846276698,-0.39536613691463923,-0.8273945040377705,-0.13721208910151628,-0.05964360294626503,-0.9044535427807487,-0.5400999931279585,-0.9465482611665612,0.5426865584119498,-0.6183002468395286,-0.6434864963689253,-0.9677870013154981,0.6903126791198193,-0.5610058922692615,-0.4217661142910565,-0.4296475821799711,-0.3327589828418111,undefined,1495454471462
903d185fccf839df,-0.7235809227127548,-0.6086248262115734,0.03596128103785545,-0.045497390328006065,-1.1343387198388901,-1.5829124472655012,1.8751797781205237,-0.7175915808650297,-0.32438014422192374,-0.6483561201147184,-0.147277946809359,0.02277774196516755,-0.9523242535650625,-0.6262025377884256,-0.8686534349272844,1.6095675006621886,-0.34645788124543225,-0.6329104801508475,-0.8516399396982881,1.6690378729916353,-0.3085949846099943,-0.46780065441671653,-0.689390224463397,0.012741927351025244,undefined,1495454472945
903d185fccf839df,-0.8996048186186136,-0.6749575794552749,-0.2479534030233829,-0.2642359564425709,-1.2361362666674574,-1.6350082122545104,1.905711822521498,-0.6529845162338137,-0.30788875108311115,-0.6854169843027466,-0.07872554083328755,0.027968506468082525,-0.843527183600713,-0.6382383595398979,-0.9086534597421352,1.294352655616986,-0.3964502547091055,-0.6612820672109935,-0.8982107125080767,1.3878006650914116,-0.3971928504073264,-0.4580875912067536,-0.6802090165510822,0.08354558306077144,undefined,1495454474446
903d185fccf839df,-0.6528941754929318,-0.5704687928776986,-0.1503378759281585,-0.21126166410817648,-1.1447992785082581,-1.7339729277931357,1.9119129001362969,-0.7228733744809044,-0.39360884500546167,-0.6380321659296385,-0.04447903026756205,0.04548376100700353,-0.7086188168449198,-0.7104534001303159,-0.9339166778702981,0.8659838419040163,-0.5624397844045296,-0.6787799896725409,-0.9112317782408008,1.0071202945874225,-0.486475541341606,-0.4614645686332984,-0.7998675412550322,0.06977921207862942,undefined,1495454475954
903d185fccf839df,-0.6625962685804422,-0.48887373736681805,0.3179623138699356,0.14766610010967143,-1.176047228427729,-1.7517939378213794,1.932030918631146,-0.5960870042637009,-0.36077074861416925,-0.831086876521456,-0.08587895028674272,0.1282589268987899,-0.8130640040106952,-0.699343409825051,-0.9086534671043689,0.8235510329918,-0.5699987919918345,-0.6652781523349548,-0.9024437835288948,1.0472024498476686,-0.4754049218190093,-0.39522274763660437,-0.744432368211693,0.06430344926290973,undefined,1495454480101
903d185fccf839df,-0.6667543084750894,-0.505897143084346,0.24969553824192312,0.14582752953177408,-1.1882974943007274,-1.704265811643046,1.918079803400091,-0.5982505146537839,-0.40805750979238803,-0.8230468456759342,-0.09661977000244476,0.0903094074749166,-0.852230949197861,-0.7021209300652227,-0.9223376952258965,0.8235510329918,-0.5195128847221954,-0.6788306522308969,-0.9136246876951998,1.0571036500138469,-0.48492455272417984,-0.38533110478202925,-0.7153831918379397,0.08404060905924879,undefined,1495454480439
903d185fccf839df,-0.3895514072940708,-0.29633258415906427,0.09465827569838041,0.06530091013460707,-1.007042942653242,-1.6928525394682925,1.8853334634352048,-0.7362466808724158,-0.4572764284775404,-0.7166507013533049,-0.13161658812586646,0.09482482157053607,-0.9740836675579323,-0.7169342591060922,-0.9002324336602282,0.9427669364874206,-0.4873219900169407,-0.682693748272746,-0.8861761988951459,1.0432912408540915,-0.48094175586923615,-0.394912858863947,-0.6737238714815921,0.05089886771423884,undefined,1495454482004
903d185fccf839df,-0.2592660537455609,-0.07972381602833357,-0.022735713622669497,-0.039365045876137726,-0.8367015067932871,-1.692603310005342,1.8370633794828735,-1.0003001203131392,-0.4307824397231986,-0.6716254143703637,-0.1376382171747674,0.10929029860026618,-0.7434338792335116,-0.6345350013781315,-0.950758796294216,0.6416964081874927,-0.5380281263587793,-0.6097129051739176,-0.9231053669591648,0.8603423047314301,-0.5004030406358592,-0.389231672773861,-0.3974013232543069,-0.11523646586546858,undefined,1495454483450
903d185fccf839df,-0.3964814047743301,-0.398473223060178,-0.22243347883618395,-0.29525250224377714,-0.826230665755748,-1.7558561301547622,1.8870165491746784,-0.8344199937374468,-0.3037912092628298,-0.7009644315502495,-0.08242297346388723,0.023972634601686377,-0.5954698640819964,-0.5965758538051376,-0.9065482142650091,0.8134479778670396,-0.42466325216022477,-0.613683661297039,-0.9424235624625472,1.1548221790541124,-0.4262889868377488,-0.3708155833808724,-0.4545378012441947,-0.09044736400465986,undefined,1495454484942
903d185fccf839df,-0.38816546300667454,-0.48769964891459056,0.018734862058139724,-0.05651505369988674,-0.9320910565288467,-1.8593488876715745,1.8898567390104597,-0.975713915789087,-0.24104022817021664,-0.7039271070651385,-0.05512208233217493,0.007998879220566947,-0.6520443404634582,-0.519731630082133,-0.9191798196479737,0.7710152254842662,-0.3892052779839044,-0.5631974352421034,-0.9317674193627925,1.2155844457544456,-0.38102351200210727,-0.37808891632689784,-0.5596772335231396,-0.13304361263181008,undefined,1495454486443
903d185fccf839df,-0.6265598193106033,-0.5786871197633673,0.38814324900100516,0.33539072307833384,-1.194129480682539,-1.7984439395030687,1.9366567664929393,-0.6692444448822501,-0.2958579217813849,-0.7088812310604957,-0.04927445884595359,-0.05301973394934688,-0.7521376448306596,-0.6382383660152853,-0.9118113868556945,0.7063557744387972,-0.45113245103002597,-0.6625043260051301,-0.9562002828401592,1.049866376292304,-0.4647707217984009,-0.4488938654180724,-0.44890267739949613,-0.10527587541416858,undefined,1495454487935
903d185fccf839df,-0.5835935105821443,-0.39201614576481975,0.4889497196331897,0.5355102110168963,-1.2585590860272708,-1.7091618725541866,1.8882735868501264,-0.8469329670860288,-0.383626010407077,-0.6302298605704175,-0.025702212714688703,0.017757844082133108,-0.8913978943850268,-0.6243508813713978,-0.9139166396950544,0.7043351577609008,-0.44123453943238217,-0.66681072784971,-0.9822004317336874,1.0705618896376503,-0.47017638434895354,-0.4379177721540026,-0.4680050626909171,-0.03757056313170454,undefined,1495454489431
903d185fccf839df,-0.5919095903714388,-0.5188114730430164,0.4736369518826322,0.4487019159810936,-1.2881098913682048,-1.6387373253128028,1.9218930226124644,-0.5467702268837092,-0.3593844850544281,-0.7523897744820671,-0.017736856722752346,-0.07477006337456138,-0.9392686051693405,-0.6660134000569328,-0.9528640528146928,0.2800075632713633,-0.5111173483159114,-0.6951823159286026,-0.9994755582531,0.7032627741768245,-0.5635654571803492,-0.4352651356674039,-0.6322015799501638,-0.13939155700623732,undefined,1495454490954
903d185fccf839df,-0.6695263350715209,-0.44484752482373696,0.44556498444932346,0.5019928518759953,-1.277927051462163,-1.6492584992399577,1.8730575241065575,-0.859707091264118,-0.37803406289414054,-0.735208123534859,-0.06932068713053176,-0.09249891861982022,-0.8826941287878788,-0.5558391471396482,-1.0086536064449505,-0.2938450718233546,-0.8150493321141955,-0.6229170951940228,-1.024818007389117,-0.27065810409648355,-0.7581111198673604,-0.4296306354957269,-0.6351455990651839,-0.49341488763248625,undefined,1495454492497
903d185fccf839df,-0.4948885214746972,-0.3474029182236173,0.41813039248516864,0.5119953047373382,-1.1968243327804808,-1.688937088421446,1.8776123552283315,-0.8687871407119689,-0.3591493995891929,-0.7851543151619134,-0.07615202701588371,0.0023574898132948407,-0.9262129567736186,-0.5558392118935209,-1.0223378161608936,-0.4211433572363963,-0.8440125291565498,-0.6216315073562158,-1.0349214021176443,-0.4538688070336521,-0.7969373444033397,-0.4390646617851918,-0.6257567409186379,-0.4914114395744215,undefined,1495454493947
903d185fccf839df,-0.5309249017337164,-0.4219539106690105,0.4315284924587703,0.47567086486779925,-1.1562678337849523,-1.7460290708491446,1.9158260623555072,-0.682743369766044,-0.34740778769286323,-0.6406026550373393,-0.109261710782689,-0.015275687845294178,-0.9610280191622104,-0.5688008586158136,-1.0349694178627413,-0.3140511114110716,-0.7644754037805491,-0.6348040303823643,-1.0351313069822459,-0.18618223182620114,-0.752461801301254,-0.44024298800075456,-0.6088195268249361,-0.4795216083350375,undefined,1495454495438
903d185fccf839df,-0.7069487631341657,-0.5716429105579184,0.08062178370782719,0.09441672577059612,-1.3361646733933523,-1.8039665674757996,1.9062693356181821,-0.8891768253202652,-0.3279208136826905,-0.6402679615692418,-0.011005964547443738,-0.05048300465802205,-0.7303782308377896,-0.6123150596199255,-1.0412852279164573,0.2557602055336889,-0.647631236589579,-0.6085539788229646,-1.015176402105046,0.3657134512391442,-0.6173744723706417,-0.45389033123954775,-0.7156996226908074,-0.5266230485666529,undefined,1495454496941
903d185fccf839df,-0.7998116886200308,-0.6708485329244098,-0.3806601600949903,-0.4813276077147876,-1.3458126536825157,-1.8599987454953546,1.9572323477449836,-0.653784240504042,-0.3049335641335606,-0.5851347042253803,0.0017371435331628093,0.0024051250474367235,-0.7173225824420678,-0.6123150207676018,-1.0612852440049996,1.348909136331859,-0.5468626079567919,-0.6342657298431227,-1.0369224903892806,1.0780763321597344,-0.46723393860636114,-0.44186111399091854,-0.8453784089845499,-0.5846081168026765,undefined,1495454498444
903d185fccf839df,-0.3867793806976393,-0.8440181327381732,-0.5063486711713212,-0.6065459009936711,-1.1022576298376625,-1.864880829526034,1.9088728494273657,-0.9595922352411193,-0.21068830686174675,-0.7899290608059429,0.03267517274745971,0.04113385130938435,-0.6259330436720143,-0.7456351051677854,-1.0602325991797352,1.3145587658665068,-0.5253618943925823,-0.7575491431596255,-1.0381539285041037,1.22851914303912,-0.4946972433741449,-0.48015026177702436,-0.6253820935552498,-0.5939682415849802,undefined,1495454499973
903d185fccf839df,-0.375691308817323,-0.8228855343498185,-0.4967783819299348,-0.5360681299188802,-1.0388154514006218,-1.8869596880055175,1.9142455478550515,-0.9354842355709143,-0.19185710973011838,-0.7640042741908463,0.025833425096988192,0.0833415166252303,-0.8304715352049912,-0.7678551181552515,-1.0528641811119237,1.2822290120790507,-0.42396123909277883,-0.812227779329771,-1.047865501340289,1.5800194592608487,-0.4477671028655102,-0.46650725242131974,-0.5529062466875954,-0.5688162433653702,undefined,1495454501437
903d185fccf839df,-0.43806192448973674,-0.719570777768485,-0.3015463111916883,-0.41846222355661156,-1.1774872211898584,-1.823897866194086,1.8872558440057605,-1.050181186287023,-0.2698896301662175,-0.7149003057448546,0.014161183347574732,-0.006986788651486066,-0.9088054255793226,-0.8419218151626972,-1.0654957680893038,1.6560415711949192,-0.39326753155486693,-0.8433415311129612,-1.0648747484040963,1.343391548787804,-0.5157573567353565,-0.4570205077583958,-0.5230768714557218,-0.5342150489780132,undefined,1495454502944
903d185fccf839df,-0.9259390885374178,-0.6127339311984231,-0.2377452300389438,-0.25491110841748643,-1.524094640860398,-1.7995619764478041,1.8940302198231562,-1.0318153074367793,-0.3239523557277229,-0.6759842241931314,-0.02811207598963409,-0.06649038073478318,-0.852230949197861,-0.8558093386589082,-1.096022129359217,1.332744202908688,-0.5024894778716785,-0.8644935635712636,-1.1053652925742867,0.7502126334405774,-0.6621946512385695,-0.4560330496462166,-0.582579232720022,-0.4762395425774714,undefined,1495454504478
903d185fccf839df,-0.8649543826469906,-0.6397367380239762,-0.0501697973129255,-0.015505899254734131,-1.4023737011989246,-1.7334162412106433,1.8953740572494924,-0.9237541015582159,-0.31304581530412934,-0.7395273598359592,-0.03560084700285331,-0.1340485873816495,-0.1994485294117647,-0.8215534650676461,-1.1433906016908144,-0.0655163764863167,-0.852900645660029,-0.8480025790713714,-1.1176376985828278,-0.006174404491799954,-0.8353699231486819,-0.4509372720645966,-0.5874735853827269,-0.48710721282220953,undefined,1495454505943
903d185fccf839df,-0.8621823560505592,-0.5563804913787699,0.1297489974008646,0.13202528638311462,-1.2194322917322173,-1.7613438183862729,1.8955660397112302,-0.9158980467416944,-0.290435792241169,-0.775600068958328,-0.04764659823375805,-0.0900458510625832,-0.1646334670231729,-0.7826684666222828,-1.17286432181658,-0.33021601656952115,-0.9126707769175179,-0.8180287570172319,-1.1576034826529633,-0.29380196617524756,-0.8944378981172778,-0.4368446959874489,-0.6026815786482138,-0.4462706826186763,undefined,1495454507442
903d185fccf839df,-0.8483222230684017,-0.4812425131632477,0.21141488955027643,0.14864084651949908,-1.0501297177828435,-1.7614020501726533,1.922829239978175,-0.6962676707496844,-0.2784790472140427,-0.9197721518811062,-0.0417242425853151,-0.039473842559650786,-0.5606548016934046,-0.753041789114382,-1.2012854118415488,-0.5787508221560799,-0.9971778426116195,-0.8095806104284243,-1.1748156377460277,-0.6133813049868245,-0.9647752141156665,-0.44327768598535405,-0.5891395993240859,-0.4937926754103495,undefined,1495454508938
903d185fccf839df,-0.8469362097701859,-0.40903958071033997,0.12081710017642978,0.12110191762962788,-0.9597287269458563,-1.8026738408365648,1.9219850767326712,-0.724173656443038,-0.31039832751202767,-0.950328908582781,-0.04803892505706388,0.09575011191467438,-0.29518995098039214,-0.7002692218450967,-1.1844432970987477,-0.11805219812621123,-0.8066048256971853,-0.7733245084511685,-1.1665104227949834,-0.21619380523196785,-0.8597678438771487,-0.4492471763997815,-0.5319383029028293,-0.49018142608646253,undefined,1495454510438
903d185fccf839df,-0.8372341166826756,-0.49709188888453276,0.08253594321088424,0.0356526681426317,-1.0065389356903232,-1.7900074391359417,1.8902170205136966,-0.9374021024019854,-0.3534285131126038,-0.8121422875103643,-0.05108521523529016,0.11628901120357645,-0.3430606617647059,-0.7123050630227309,-1.1507590308019766,0.3628524937560959,-0.8028409946534203,-0.7818486505412781,-1.137970431027154,0.20118105795689997,-0.7654626089354012,-0.4534371823019569,-0.5703684052850925,-0.49455984033082845,undefined,1495454511945
903d185fccf839df,-0.7305109546984238,-0.510006277299188,-0.21796727608701713,-0.2584937461798126,-1.097135354981096,-1.8378290495834784,1.9139904721081438,-0.8644824531397028,-0.32878346803026326,-0.715484116658359,-0.024604256276035,0.03601942808846346,-0.852230949197861,-0.7585967777916272,-1.0791800035730652,0.8477982918029489,-0.5506936161294248,-0.8182884083115015,-1.0957796616059514,1.0316654200616917,-0.5723502931501502,-0.47966975541169143,-0.7121345365319682,-0.35523705455531895,undefined,1495454513437
903d185fccf839df,-0.8691124915524574,-0.6086248554395658,-0.4208549682896941,-0.49647458408469186,-1.3103167098358839,-1.8930762735394782,1.9104560026352202,-0.9950650844245515,-0.291005348877029,-0.727107643109627,0.007319874510333738,-0.058075580581111216,-0.8565828319964349,-0.8159984569642391,-1.081285256412425,1.132703999738592,-0.47916851553816564,-0.8588635780815952,-1.0793721403998793,1.7196987586445411,-0.4209572458493602,-0.4804513983495058,-0.7626891373809381,-0.4221054490999651,undefined,1495454514959
903d185fccf839df,-0.7776354758485788,-0.5516843421658065,-0.4119225627913604,-0.5037115291448827,-1.2878938906841244,-1.903783786298722,1.9128017862772708,-0.9750577583378046,-0.29815816186503424,-0.7570543141865104,0.036430757516779384,-0.045864901545526526,-0.7390819964349377,-0.8243309853078178,-1.091811594231562,1.0660239037505048,-0.48692488108491,-0.8606747984895028,-1.0747472484593321,1.7576251279074837,-0.41525544529858227,-0.4892759189575019,-0.7347445834769528,-0.44265117511387125,undefined,1495454516503
903d185fccf839df,-0.7928816738870667,-0.5252686380223517,-0.33153345467585177,-0.41569165577567874,-1.2926458836081294,-1.8712256796425943,1.9222349012528261,-0.8630144363272665,-0.33223195641816206,-0.72641654135521,0.007848100842998085,-0.0008484685413455797,-0.852230949197861,-0.8224793224154028,-1.0444431329433155,1.2438377191698424,-0.43479741129745236,-0.8647785462582128,-1.033116223865444,2.19147632511219,-0.30752638471643573,-0.48233579265599036,-0.6891865498455525,-0.321580934062329,undefined,1495454517943
903d185fccf839df,-0.44637798702632636,-0.5857312997408239,-0.19691304637508614,-0.21910113861203673,-1.2109671637017223,-1.70756168735388,1.8792086548347,-0.916199303100414,-0.32774040085637285,-0.7180656454569667,-0.004478600122144978,-0.05436588191174969,-0.8783422459893049,-0.8280343175680351,-1.0402325683667253,1.506516587119182,-0.4043650091697754,-0.8707441790251427,-1.0170585436864537,2.0970530603953343,-0.3218799233204039,-0.48254334024360873,-0.7457760969469792,-0.25632409484882024,undefined,1495454519434
903d185fccf839df,-0.4034115920343429,-0.7589008995545873,-0.16501225166176448,-0.2120604151332186,-1.1731672268012763,-1.6685096622539746,1.8925338747463638,-0.7846811150996017,-0.2955878468413692,-0.6482726797339937,-0.026018219694002122,0.008670487097071591,-0.6650999888591801,-0.7984076400601344,-0.8991797961971976,2.431954785887497,-0.0528421193036371,-0.8283324548245455,-0.8600850932402858,2.7230152588953693,-0.11994277756200945,-0.4091056966875401,-0.5739164645410727,0.9686904598612488,undefined,1495454520933
903d185fccf839df,-0.3147066201796007,-0.7313111361868974,-0.11014357600735361,-0.3036844501046358,-1.0824370930028873,-1.69611813468105,1.9038735946142578,-0.7193768652757634,-0.28877660568088465,-0.6843475286592481,-0.07482952528576858,-0.023169124051009952,-0.6650999888591801,-0.6937883887708695,-0.8749692081698315,2.389522061769445,-0.09663028462031055,-0.7554846024909759,-0.8523326262200407,1.962409046412604,-0.2825510568065636,-0.42201371186819947,-0.5063190643330306,1.0933503726185845,undefined,1495454522439
903d185fccf839df,-0.3341108753654407,-0.5393570856612421,0.15845935685112492,0.14008722764053308,-1.0385480233756472,-1.7858124781543447,1.9574637746398713,-0.44007859402968963,-0.24450928367409142,-0.6783377923057619,-0.11479966924138917,-0.007667571471661154,-0.7434338792335116,-0.5669491568710749,-0.8233902227972807,2.1288636974391157,-0.15964488130266422,-0.6270335069565479,-0.8131224983791119,2.0531982831332756,-0.20341821675860217,-0.4572584869816393,-0.6711184601703435,1.0138331633859368,undefined,1495454523951
903d185fccf839df,-0.18580721091848706,-0.535834937216529,0.5061761386129054,0.5011934054563856,-0.9151813735903839,-1.8907167542992218,1.978139310421492,-0.40150075234707894,-0.23537608476733224,-0.8790190993300232,-0.11732530785832383,0.015687636486851446,-0.8304715352049912,-0.5086216073999317,-0.7170743175763857,2.005606758440753,-0.12557269467488932,-0.6010177747118517,-0.7919991262751358,1.8158774462903586,-0.23285840628447632,-0.4795724877316243,-0.6965732801397324,1.081143913100855,undefined,1495454525441
903d185fccf839df,-0.11789245578968599,-0.6849368782653269,0.6790771956053179,0.6331945068574744,-0.7883792968511929,-1.9375740593726076,2.014041422922927,-0.20173340175241394,-0.27870863078588165,-0.7185361931157658,-0.09558305293730451,0.10146572459206216,-0.865286597593583,-0.4762174679303447,-0.7791796481303075,1.2882908621127398,-0.405656095220103,-0.5586567150517368,-0.7849183536373531,1.4471000752202579,-0.2919000313743076,-0.47662821779972264,-0.6508601547175208,0.9243851549498766,undefined,1495454526938
903d185fccf839df,-0.16363103265244475,-0.6461938737753192,0.594859768483695,0.520419870124252,-0.8804980005639874,-1.9139509142492703,1.9783917726015237,-0.4617705881890367,-0.37688912526107987,-0.7123182265343568,-0.04322363241612156,-0.014001887211479918,-0.9218610739750446,-0.491030816397376,-0.8665481600012233,1.1286628229122422,-0.4469009096009955,-0.5883582206938484,-0.9072365995299542,1.1063324857194081,-0.4180955844072407,-0.45595045338691076,-0.6671675573987674,-0.2962470738844746,undefined,1495454528498
903d185fccf839df,0.28959583344525225,-0.5452271771864712,0.4079217112268307,0.44308008671828497,-0.21504426115667927,-1.8193185840255306,1.8898882872243268,-0.5889728574829699,-0.013041588933095672,-0.5731763208915468,-0.14656755798150933,-0.01588528753240957,-0.9088054255793226,-0.4678849395867661,-0.8065480675621937,1.4560013397601015,-0.4213353220808127,-0.5393855679175862,-0.7788521157077869,1.4402477726508303,-0.2875559048227255,-0.04662855014791766,-0.4180650013574011,0.604156853300265,undefined,1495454529959
903d185fccf839df,0.8065793802716934,-0.5393570564332497,0.12081710017642978,0.05812525013573015,-0.19902943687134755,-1.6880170389879265,1.8295684270412207,-0.7572363755570986,0.02939182039945963,-0.8017476017173228,-0.10979270314642244,-0.10748737442073798,-0.691211285650624,-0.547506651173006,-0.8086533351260211,1.2377756147536594,-0.4412172030422783,-0.6773867437300513,-0.7681190072907799,1.1445668217103826,-0.39580012609828186,-0.025986142541255697,-0.28837671591352276,0.5868666565449424,undefined,1495454531433
903d185fccf839df,0.8606337953858785,-0.707830536262042,0.03021931080258316,-0.1544803453170245,-0.034036570195147796,-1.6535023721969972,1.8349674214084997,-0.6328118288436484,-0.06799297971906133,-1.084767195578247,-0.1342041801712011,-0.035296361230742604,-0.691211285650624,-0.5863916755199183,-0.7949691217289612,1.5348050510214022,-0.371048212184984,-0.67970460069519,-0.7157828612297724,1.373449318203025,-0.3401292752583145,-0.006151135635868226,-0.28589514246852127,0.5308417033346005,undefined,1495454532947
903d185fccf839df,0.38800274311316096,-0.6409107095642343,-0.09993489474901564,-0.2545782033942894,-0.44872501305187523,-1.713671279538616,1.8823723005450526,-0.6686166932839468,-0.41735472228884596,-1.0778022348586986,-0.03286288987667162,-0.07987134021518384,-0.8217677696078431,-0.5456549753298163,-0.7949691217289612,1.4984340638781533,-0.3966035132372358,-0.6875447852058779,-0.6973112801789063,1.8266409675866133,-0.24946110804726365,-0.005532430457711918,-0.2180477660632194,0.4856596051759141,undefined,1495454534449
903d185fccf839df,0.28127965013972855,-0.5769260163130184,-0.0846231435462558,-0.1644234660775476,-0.44050673659496065,-1.8386838783681663,1.9380452911990047,-0.4931288573562285,-0.5694998794882098,-0.9953381233264309,-0.002310097938660069,0.03320124205678974,-0.6520443404634582,-0.5289899769211446,-0.7781270033050431,1.4095273822862568,-0.43134529683450873,-0.680730538589674,-0.6837444638951463,1.6004993935891332,-0.28526643617562303,-0.019020471796561748,-0.2675167635627461,0.49850730454214637,undefined,1495454535938
903d185fccf839df,0.3935468653168434,-0.6009936896919801,-0.17904874365231768,-0.18080657231926478,-0.10774386773887709,-1.902190584957643,1.940961744811471,-0.4497352093688391,-0.625874029356551,-0.5114589232911657,-0.0009064935028332728,0.02350090595797214,-0.7826008244206774,-0.5928725215449202,-0.8402323412211987,1.0963331256542292,-0.5685546442259574,-0.7397155760950261,-0.8333222883521336,1.0501127618392723,-0.4773945690675711,-0.4510202883548789,-0.5702989033980821,-0.4573773342312867,undefined,1495454537444
903d185fccf839df,0.034568938003227294,-0.7395293315466006,-0.3659857843613844,-0.34317695604050935,-0.1296626929311048,-1.960717378536962,1.927599699271142,-0.6203290765682469,-0.46336832645897275,-0.48160367756461964,0.023231662997365263,0.05502103160042106,-0.7216744652406417,-0.6419417177016644,-0.9181272042716444,1.3125380643944458,-0.5190893348299068,-0.7366694302360305,-0.8722175609331413,1.0453700399956252,-0.4938610347715846,-0.43811636935656106,-0.5701420927985745,-0.3444218658790212,undefined,1495454538947
903d185fccf839df,0.08446562377145278,-0.7477475561342962,-0.34812148163861595,-0.32166597467592184,-0.32346579716609514,-1.958059716679538,1.8968756755509952,-0.898576526723237,-0.42885925399013675,-0.3739806091272477,0.021594122254504796,0.05078522336121468,-0.8957497771836007,-0.6280542201070025,-0.8665481526389894,1.1286628794416853,-0.574163730386124,-0.7262834020901978,-0.874302610470401,0.8635143986018656,-0.5258169659484728,-0.439879310085963,-0.5867353404089369,-0.4066296019436556,undefined,1495454540511
903d185fccf839df,-0.20521143159891733,-0.9168080509612099,-0.39023044933637674,-0.38421797825066506,-0.5920253486529813,-2.0315961288243205,1.9024850541953653,-1.0174078819667032,-0.34492511720439617,-0.51986694592249,0.05053451658587302,0.05950647622316553,-0.9131573083778967,-0.7021209041636736,-0.8707586804044105,0.8619426085482236,-0.6162257451740165,-0.7780298849169243,-0.8753521323343509,0.6249308780586358,-0.5933391021986233,-0.4499454895854388,-0.6070013929341124,-0.4188272388592666,undefined,1495454541925
903d185fccf839df,-0.37291924771548174,-0.8909793472018803,-0.19882669760424435,-0.2577599963380108,-1.02591719317991,-2.0346357857911563,1.932827763222175,-0.9302497341447108,-0.26853558273245814,-0.7513037531489677,0.05553591842236251,0.062043783848159846,-0.847879066399287,-0.8197018086506184,-0.8633902696988328,0.34870816287846046,-0.7806503811248101,-0.816622842906281,-0.8655845846563627,0.0794563460443518,-0.7156265164981461,-0.4374774089449519,-0.707529513350396,-0.5342561682208792,undefined,1495454543423
