UUID,iqrAccX,iqrAccY,iqrAccZ,iqrAccXYZ,meanAccX,meanAccY,meanAccZ,meanAccXYZ, covarianceAccXY, covarianceAccXZ, covarianceAccYZ,pressureDerivative, pressureIQR, iqrGyroX, iqrGyroY, iqrGyroZ, iqrGyroMagnitude, meanGyroX, meanGyroY, meanGyroZ, meanGyroMagnitude, covarianceGyroXY, covarianceGyroXZ, covarianceGyroYZ, class, timestamp 
903d185fccf839df,-0.5856725305294679,-0.28253773170321167,-0.4438233575046821,-0.5818723324133296,-1.1028464997321932,-1.5854859688945993,1.8999854158553027,-0.5768007921860292,-0.2989875330454492,-0.7215520794575023,0.04472254555770858,-0.5888610736782494,-0.41704266934046347,-0.3910407547160851,-0.9454956531524658,2.3248626389886975,-0.13841955795205607,-0.3636517995463659,-0.8686871709125634,1.6637539879861203,-0.21268904724770707,-0.30682218762285407,-0.36926103072060773,-0.5972745523561563,undefined,1495705512116
903d185fccf839df,-0.6133927447356683,-0.06093933608844918,-0.1206706908633191,-0.2533147136456252,-1.3003444028291722,-1.3990202530920597,1.8273451482296965,-0.6124105735364225,-0.6649068383932073,-0.581030928863653,0.04099033708655334,-0.7397415026092448,1.9046868036987523,-0.44381324428072316,-0.9791798605513666,0.3446669436550284,-0.7953549422277525,-0.5059624896900228,-0.9222727453544605,0.48560506426938027,-0.521188770425838,-0.35271552350844804,-0.5691473292151789,-0.5755145516279562,undefined,1495705513486
903d185fccf839df,-0.548943109115931,-0.14664361349814875,0.14506125687752328,0.1673108569333189,-1.1860524502141288,-1.5710874701453887,1.8898999564638153,-0.48815539446882666,-0.7026777494413041,-0.7029662375881228,0.06540123471049718,-0.503201089496164,3.0100650345365416,-0.49843742263932533,-0.9076008517280397,0.07996740249834935,-0.789354787075015,-0.5383711052340264,-0.862816289999341,0.18262964601499285,-0.5672873705632772,-0.42078047789333534,-0.622247778827469,-0.6162214436863299,undefined,1495705514992
903d185fccf839df,-0.5766634440910655,-0.13255522431524314,0.5827371818592495,0.6774916429285487,-1.0940393658559973,-1.6786162299413678,1.889951399364889,-0.63853913454038,-0.6808610666074073,-0.46046544278302387,0.10604220778920469,-0.3082128262225861,0.6230573195187166,-0.5336191471029568,-0.9433903487774694,-0.21706194897522885,-0.8303218109786127,-0.5564139216228359,-0.9152842254868195,0.06710868776975237,-0.6194985529349641,-0.4381825921366045,-0.6502221791597524,-0.5431439740775825,undefined,1495705516479
903d185fccf839df,-0.37707718409389984,-0.591014390881928,1.2934817341747222,1.186560829873821,-0.7115040039274351,-1.911691552811379,1.91427710235405,-0.8057715607790872,-0.5143175331796636,-0.6391768060960134,0.1707974558022669,-0.16492859592115966,-0.7782489416221035,-0.5021407613749299,-0.9286534831929112,-0.16452619799713813,-0.7991900727921661,-0.5189850130776039,-0.9297968897810602,0.04835986335938156,-0.6152425517758217,-0.44053914409658984,-0.6279107758712187,-0.5056428465741795,undefined,1495705517999
903d185fccf839df,-0.20659744489713308,-0.7025473720509571,1.2673231638336222,1.0915227120854094,-0.3707080111397283,-1.9500727561875029,1.9713596833773435,-0.4039442987447865,-0.33979702378548027,-0.622260565843854,0.2187261419419703,0.03553602466368768,-0.8739903631907309,-0.523434955866963,-0.9328640035960984,0.03955526679347237,-0.7656064800914975,-0.5098677158260925,-0.9384283817881238,0.21996716448423848,-0.5777962305487704,-0.4268469666906453,-0.421144217563368,-0.5096783795163586,undefined,1495705519524
903d185fccf839df,-0.18164913651843007,-0.6773056979037451,1.132703009669806,0.9931989079694052,-0.2909835754170852,-1.9301414560738954,1.935833631199927,-0.5827296248781993,-0.39606887762371923,-0.7045194762028798,0.15090105855586528,-0.064798794092925,-0.7695451760249554,-0.5456549494282673,-0.9454956163412968,0.1122971562858054,-0.7412609739627404,-0.5516778102555309,-0.9386872643533305,0.23812193337512347,-0.5952494879757241,-0.45939371535985024,-0.3810926700770841,-0.4762426749612105,undefined,1495705520987
903d185fccf839df,-0.07908415245046439,-0.4965049031144037,1.2226629153006,1.0337717210726693,-0.25702020292783595,-1.894087162780155,2.0179729911475786,0.029923432327579384,-0.46011552752814394,-0.5885805136470617,0.024871626867210856,-0.07273043082514474,-0.6476924576648841,-0.5521358148794309,-0.9476008839051242,0.23757485328567218,-0.7175816201912112,-0.5209883653720627,-0.9485037896156996,0.4080283786120373,-0.5659043682061097,-0.45080210387136405,-0.32156081735638053,-0.39684781510228057,undefined,1495705522519
903d185fccf839df,0.07199150408751101,-0.46010994400288535,1.4887135507760192,1.3818620713595247,-0.5443614318255641,-1.900303902843818,1.9359440766602691,-0.5927414826136468,-0.4220243566949364,-0.1831009214010229,-0.10461439477024534,-0.07953822583212748,-0.7347301136363636,-0.5289900092980809,-0.9139166470572881,0.3183991529601477,-0.7463362228752004,-0.5481250291957873,-0.9330688254089877,0.35901512612377867,-0.5843849190429463,-0.4457773529103674,-0.27492895193181954,-0.4206123473544352,undefined,1495705523983
903d185fccf839df,-0.07631205684321342,-0.5704688513336832,1.731795542899501,1.641270939643532,-0.5156849053534989,-1.9251918239731616,1.987956392415566,-0.28580592711453606,-0.39515199442894167,0.006726455902697271,-0.029238747077645115,-0.010878617629664111,-0.8696384803921569,-0.5975016787759577,-0.9233903253266933,0.04157588347136876,-0.7831450745488177,-0.5633810899831045,-0.932816940486578,0.31939492612510656,-0.5985203651215592,-0.4621796723867803,-0.2862989254684106,-0.42558431102354044,undefined,1495705525489
903d185fccf839df,-0.2010533226934506,-0.5945365247126447,1.5537906535518187,1.5871677849779497,-0.4284004839620124,-1.9364164274310462,1.8906982855465224,-0.9300607316630305,-0.3151335519348445,0.043516090912476074,-0.009888662749971256,-0.050692952640552846,-0.9392686051693405,-0.6160183465524319,-0.9612851267511194,-0.11603162384539716,-0.9356884062561327,-0.586420340598503,-0.9470624474314927,-0.07831612482707911,-0.6989093456213583,-0.48176319421598324,-0.5677328886749395,-0.40001874217555533,undefined,1495705526995
903d185fccf839df,-0.08047023475949962,-0.5857312412848393,1.9799823839260509,1.973414882316378,-0.1137815802686379,-1.946439143267681,1.9457085683464406,-0.4813839229104491,-0.3662287882108178,0.28487822991683054,0.030317393437164292,-0.013411222650888083,-0.9697317847593583,-0.5780591860286634,-0.9697061749197277,-0.2857626899059337,-0.9072305368266883,-0.4922241361361183,-0.9773306503786732,-0.11228509593930575,-0.6686080334507324,-0.4784692855494918,-0.569119539670757,-0.41754593620357117,undefined,1495705528521
903d185fccf839df,-0.14838488637207148,-0.49122176813131124,1.8555701486097242,1.8917802956733374,-0.1007187440335231,-1.9133662763866277,2.005370982901244,-0.04306342534175507,-0.44201830307515055,0.3833069270734901,-0.036096351080167934,-0.04531805205613954,-0.8957497771836007,-0.5512100158101597,-1.0033904191297975,-0.4090197278308218,-0.8834456013469955,-0.5280179329037978,-1.0069831351003624,-0.2935555917212225,-0.7237955570021709,-0.4826512022226018,-0.5945540907025949,-0.4678757100471278,undefined,1495705529986
903d185fccf839df,-0.005625378634210056,-0.5287907718530686,1.544858248053485,1.5053903043116676,0.08153352969115897,-1.9298083755149285,1.9409039053718584,-0.41506646237071854,-0.41248863607502845,0.48095795097955574,-0.03492036267129727,-0.01617720095055145,-0.7434338792335116,-0.5391741746325255,-1.0591799727600553,-0.37264875481993376,-0.9285814807398238,-0.5238888530060317,-1.0250419038384908,-0.14388270198331735,-0.697386328333249,-0.48119199892113446,-0.6256123085043688,-0.46229463958026185,undefined,1495705531469
903d185fccf839df,-0.06522408847912635,-0.4413254494490048,1.1920378880733837,1.2995376476318385,0.05416329145820715,-1.8767203572684097,1.9259850114672028,-0.4596935902462396,-0.4079094547741098,0.10530875231711878,-0.030151706937976433,-0.13808944878452925,-0.7651932932263815,-0.5336191730045058,-1.0949694882150696,-0.26959775648276263,-0.9176088122200673,-0.5242181657450561,-1.026140402932032,0.039897743879620064,-0.6635751450705898,-0.46039795406507167,-0.6113722480810023,-0.47220174127917164,undefined,1495705532981
903d185fccf839df,0.047043195708808,-0.3720575481447156,1.140358885271186,0.9943460050734187,-0.20500542325776175,-1.8120467011299544,1.906813714886614,-0.5647486173172934,-0.4254675699549236,0.013310345092401088,-0.09892541967667873,-0.107745863189341,-0.42574643493761144,-0.49565994772686456,-1.1044432032956435,-0.2473710860847885,-0.8669441693831652,-0.5869966362031127,-1.0321926447440837,0.04112962142697095,-0.6936828797329714,-0.46666539994651685,-0.5655422217295627,-0.48208088117274217,undefined,1495705534476
903d185fccf839df,-0.2149135246864276,-0.5440531764182208,0.6931131793219721,0.7842534389731499,-0.6368915587806889,-1.8108541308533668,1.846388664660005,-1.10344722881893,-0.38585497244820555,-0.4590108374383391,-0.10684356661559445,-0.04619614705645788,-0.3430606617647059,-0.5854658570244854,-1.0991800233427242,-0.0028775986481871427,-0.8797910352066235,-0.6666840664016124,-1.0279455808477937,0.043254606238905265,-0.7314863251829503,-0.4812788321764936,-0.5296634604768279,-0.4836333515835854,undefined,1495705535980
903d185fccf839df,-0.2856002719062504,-0.6262353053832074,0.7888148010510889,0.8277486186522229,-0.748686796440905,-1.8520583709356455,1.9505342419894038,-0.4713368391784579,-0.40440723673001494,-0.28165168573679905,-0.04988509374019804,-0.019383805352276882,-0.4213945521390374,-0.5206574809545023,-1.0876010480605567,0.1789771392150062,-0.7725471417006361,-0.5319823554686719,-1.0303244962583622,0.18408879002727974,-0.6368317290558846,-0.4624326719359754,-0.559197682671869,-0.48290390380797765,undefined,1495705537479
903d185fccf839df,-0.30777648467770247,-0.6661524129394387,1.3987536451452254,1.5193589046085099,-0.750692504286605,-1.8969707614211317,2.0251497316087597,-0.04339991689170325,-0.383332578602094,-0.20223416557174553,0.0399438341401189,0.14047602401976406,-0.3604681929590018,-0.4067798957770003,-0.9970746164383153,0.25576023379841045,-0.7148039706875774,-0.4661387407358376,-0.9849011994413848,0.1539540342678565,-0.5947857097401852,-0.4828574961962515,-0.5551787053803293,-0.49652374188944043,undefined,1495705538994
903d185fccf839df,-0.24817791285442511,-0.6808277586644811,2.4463686683580375,2.3477500012822774,-0.7874535901793096,-1.9247283047286814,1.9895526815467162,-0.2884266745728174,-0.34370082292329496,-0.26514801150606737,0.10388592907278049,0.15262820884044376,-0.5606548016934046,-0.350304028624434,-0.9760219923356775,0.17493593412393496,-0.665997765157675,-0.4483748338038031,-0.9813258295972358,0.04211512329522657,-0.6089842772587762,-0.48787787819239814,-0.5207032114210028,-0.4961172470361962,undefined,1495705540481
903d185fccf839df,-0.3174786467760322,-0.6391496645698702,1.7011715322200827,1.7762940670568006,-0.9024271084864808,-1.9491457189407408,1.99827311192721,-0.28901407273616553,-0.3976498533628914,-0.254559566846785,0.0961467943963979,-0.09461606166406222,-0.6650999888591801,-0.3475265407611987,-0.966548291979571,0.2456572069383716,-0.6987720231539849,-0.41241637996345476,-0.9658908647237643,0.16967584432220378,-0.5621423422142446,-0.511596750575456,-0.5470295238404507,-0.5175182023908611,undefined,1495705542024
903d185fccf839df,-0.24540581724717414,-0.6591082037339897,1.7719906052311543,1.7863246957055636,-0.8332352269713441,-1.9387573118279493,1.8982484350540623,-0.9211935884494366,-0.34061124586701763,-0.3608147161897524,0.021822658095639755,-0.12945579948627225,0.205276570855615,-0.3901148520406176,-0.9949693856856567,0.2699044940142421,-0.7749779999013559,-0.3932655589031281,-0.9657019512949905,0.2562151075149372,-0.5364538234210221,-0.5066416285445474,-0.5838922498192599,-0.5331599835593491,undefined,1495705544009
903d185fccf839df,-0.12759458338260599,-0.6661523837114464,1.4204460127371585,1.4272527039360876,-0.7756353213153365,-1.927239223957705,1.9666339103165837,-0.4486037639326235,-0.3746138245515345,-0.4950256736162017,0.05987574609147266,-0.15058941639976914,0.2923142268270945,-0.41881573695463453,-0.9097061340163347,0.33456400158915417,-0.7914594386440343,-0.43465767802557537,-0.9462648105755912,0.2982528616716515,-0.5457922032536251,-0.506012241403784,-0.5626867528602634,-0.5171845896786211,undefined,1495705545428
903d185fccf839df,-0.23708984097410885,-0.3720575773727079,1.5697410509084795,1.491934169675569,-0.7880501566985226,-1.7526743905021427,1.9406540614725507,-0.3641506292664867,-0.4992313973769435,-0.25924628579147363,-0.002644186096798747,-0.09854356792584891,-0.8739903631907309,-0.4410357175651642,-0.9349692932466273,-0.015001213921400854,-0.8462372863167826,-0.49938669557366533,-0.9587681122300367,0.070802419757388,-0.6238192046260778,-0.48986096302796467,-0.5322753659355433,-0.5547968810283969,undefined,1495705546928
903d185fccf839df,-0.21491349018101785,-0.3145300783288196,1.5601705075301437,1.3387895855729046,-0.7641256223102435,-1.660222225687425,1.9303057759391686,-0.27857695653777204,-0.6595480248362574,0.022691047992327747,-0.09964665598469429,0.007869041672885647,-0.9218610739750446,-0.5076957759537242,-0.8865481760897654,-0.07359881493318071,-0.8951462053687405,-0.5807460234511265,-0.9411151580762099,-0.05976099868357008,-0.6826258697849773,-0.5027456303706652,-0.5108658869934903,-0.5375904481755951,undefined,1495705548421
903d185fccf839df,-0.11650654600769944,-0.3250962898390199,1.5276323373476681,1.3800547983377374,-0.692650316164596,-1.5161308282998154,1.8692495728812852,-0.44071572109152796,-0.5441815589837179,0.06313166798889065,-0.0010860854813176737,0.12247845840187997,-0.4692652629233512,-0.5706525215082286,-0.946548231717626,-0.19483534923905857,-0.9350302081823338,-0.6017587310267196,-0.9597476654346841,-0.11316280781438706,-0.704862879012684,-0.5031641116040202,-0.5540377209068797,-0.5203279698929436,undefined,1495705549957
903d185fccf839df,-0.17471913903817077,-0.3098338998878638,1.6488541374009333,1.3894705377618919,-0.6902228971529474,-1.5773968070598037,1.9227713863970186,-0.21112728330959188,-0.3734722673759363,0.13314347239001087,-0.06567330496533745,0.13356675212629168,0.018145610516934058,-0.5373224728877868,-0.946548231717626,-0.29788633344386894,-0.8738452809985078,-0.5568328279702678,-0.9622945041717175,-0.19500554406901824,-0.7005167217228366,-0.47983644735553377,-0.5249200919752207,-0.5148692269673092,undefined,1495705551470
903d185fccf839df,-0.21768558578826883,-0.42841104642035344,1.5882432373743007,1.395897503645897,-0.7002823079423315,-1.6462258258433193,1.8812388615373519,-0.5684571507431458,-0.33973094632213036,-0.01918128211400165,-0.08294537733657721,0.2097050361336939,-0.7390819964349377,-0.5910208262755687,-0.9476008691806567,-0.40093730351631857,-0.9585360922388414,-0.5969773571162921,-0.9652051775270006,-0.27712545317634585,-0.7382621176181756,-0.49173999801004153,-0.5464645057164502,-0.5244910727276124,undefined,1495705552945
903d185fccf839df,-0.31332060688138497,-0.49239576889956166,1.3630252938366378,1.2890368874119578,-0.6384035598922937,-1.8263948107207988,1.9584894089896723,-0.32430778940769855,-0.3351065538742539,-0.47610585544072775,-0.07687680668236202,0.05024992508752369,-0.7738970588235294,-0.5641716560570651,-0.9391798136498145,-0.19887654019776904,-0.8415875543715307,-0.5680231382024694,-0.9582293573826894,-0.0568814870695971,-0.6809736203859585,-0.4897291297655996,-0.5782687406892892,-0.48667038158745424,undefined,1495705554432
903d185fccf839df,-0.04443375098425112,-0.6397366795679916,1.2105405828131037,1.1779643708932708,-0.593465350385447,-1.949930671676023,1.9273840653385799,-0.6965796434658389,-0.4287655455797559,-0.522593446452179,-0.026817556491944304,0.03499876748342716,-0.8217677696078431,-0.5743558472930588,-0.9665482698928697,0.015307838393994194,-0.7896885221223648,-0.5434513170331686,-0.9474122882077749,0.3263242271144279,-0.5833018351946423,-0.48043834034410754,-0.4982448194959372,-0.23255048496260833,undefined,1495705555931
903d185fccf839df,-0.3133206758922044,-0.7154616727816353,0.377935076016566,0.47939135852353,-0.6452126897633514,-1.966945763984438,1.9559437560942976,-0.5752598678324647,-0.39354636954242234,-0.6836197396379345,0.02196961578929957,0.014464727862917066,-1.0480656751336899,-0.48454995742159973,-0.9812851281151941,0.393161602600934,-0.6529389707509102,-0.5737734516207447,-0.9391910356234252,0.698735629775149,-0.5180731224431268,-0.47175836720832326,-0.49235889995775406,-0.2144029738025298,undefined,1495705557442
903d185fccf839df,-0.42835988316034107,-0.7706411702890227,0.23502065423441834,0.24374003462248728,-0.8894877077416837,-1.9746834965202889,1.9835725011377328,-0.48723579608105594,-0.38166169685104323,-0.6574562267124076,0.043718005653897524,0.056220287790607865,-0.6999150512477719,-0.4873274582356096,-0.9918114659343312,0.5184393278655224,-0.657284978380033,-0.6058624766804233,-0.9398137521890584,1.193549274857608,-0.4306117437281693,-0.47159365389049185,-0.44792449985072574,-0.20387331955757396,undefined,1495705558948
903d185fccf839df,-0.43528991514601006,-0.7735762160516373,0.3077541408854965,0.24982497030940412,-0.919995082499089,-1.9649286423406587,2.0024045389299676,-0.37919007440326574,-0.32450309298961155,-0.509757407964448,0.04928126756100596,0.03985828705378976,-0.6302849264705882,-0.49751166242237777,-0.977074600349773,0.6982733359919332,-0.6167385455258223,-0.5957424337303806,-0.9262609300959385,1.2616565960375135,-0.41075577656683293,-0.4716106662641442,-0.4339355219315669,-0.18065517540998816,undefined,1495705560426
903d185fccf839df,-0.47271223969242565,-0.805862070176306,0.22226094627776827,0.18799822999349083,-1.0197972006973064,-1.9570208758882544,2.0334914765756187,-0.1801360609332782,-0.3484223442988994,-0.7165325622273354,0.06478588321130452,0.00960585752703085,-0.6999150512477719,-0.5382483496617053,-1.001285158928204,1.692412247426231,-0.2582344087892064,-0.6328534840619274,-0.929493456292769,1.7906855844918679,-0.3049694915241381,-0.4527063360661115,-0.3522787945842031,-0.19310035011214385,undefined,1495705561921
903d185fccf839df,-0.4740983220014609,-0.7741632895057433,-0.015717467627392886,-0.01815097473422062,-1.0833422378891964,-1.9356757284297041,2.0004295539099646,-0.38925377501395436,-0.33707706170333696,-0.7495900445226498,0.06990282799363329,-0.19685949489865176,-0.8217677696078431,-0.6012050175115624,-0.900232404211293,1.7308038229826548,-0.21201575866952524,-0.7167649875216111,-0.8874356258377947,1.8631506709968355,-0.30734873517927136,-0.44201006556205086,-0.2585739608702284,-0.2529250064753913,undefined,1495705562284
903d185fccf839df,-0.32579469205991696,-0.8041010544099341,0.12592118666864935,0.06991176933863595,-0.9814006931625755,-1.9656250867536533,1.964111928271186,-0.6387643088745522,-0.3156455617461572,-0.6343200478343773,0.13534426591608298,-0.1835714905212258,0.7362062722816399,-0.6873075815981914,-0.9918114732965649,1.3529503131582088,-0.4031061142751194,-0.7577138006198609,-0.9322082180565312,1.4044309797384174,-0.43610394321884866,-0.4534805194779925,-0.4729818264557338,-0.3656934501408904,undefined,1495705563727
903d185fccf839df,-0.46716818649956265,-0.8616285826818147,0.1476138083975319,0.13945482630374212,-0.9774818469560559,-1.9956746023449434,1.9753596118267445,-0.5827550477979812,-0.3408546975131975,-0.689696072097753,0.15968836068986272,-0.18101434631128727,0.7666694518716578,-0.549358314065421,-1.0349694105005076,1.1710955752950156,-0.49161811030030333,-0.655265771348651,-0.9505678493809719,1.3517990976321097,-0.40655941636163245,-0.473884258835245,-0.5596733994182727,-0.3897042116165774,undefined,1495705565195
903d185fccf839df,-0.48102838849253965,-0.7025473720509571,0.8641000768113275,0.8094576072420493,-1.0092646500607299,-1.921416126472547,1.9105611884886358,-0.9334405025215137,-0.44925196197425205,-0.47597414358425444,0.10803292066862671,-0.16667115768622737,-0.691211285650624,-0.5789850109994836,-1.026548369694133,0.9670141670338481,-0.5103507219247815,-0.649604120077556,-0.9324670996368909,1.0116320404628771,-0.4731387101430961,-0.48216238371398673,-0.5681944237301455,-0.33935030900765356,undefined,1495705566696
903d185fccf839df,-0.6029976967571647,-0.6884590120960438,1.2150062772883716,1.2398746983747655,-0.9200156543672895,-1.9245536113877728,1.8934884918323844,-0.9982738781878399,-0.5010143414304559,-0.5171425473186101,0.08116878837849903,-0.056933215921750796,-0.6302849264705882,-0.5456550012313655,-1.0107588813710118,0.6315934095921755,-0.6243996711271186,-0.6143359561568101,-0.9424725388602181,0.9458036854799624,-0.4709331233874672,-0.50961974381951,-0.6544716916461933,-0.42646987689586324,undefined,1495705568206
903d185fccf839df,-0.568347226280132,-0.6872849528718087,1.2315948125250347,1.1932994677095141,-1.0173492060724816,-1.9334932307443755,1.9242966797385856,-0.8132187211795155,-0.4743627409444898,-0.6274671435507525,-0.0014897341479266771,0.031652053727803255,-0.44315396613190733,-0.5039924760704432,-1.0254957322311025,0.1284619483853688,-0.6920720890029988,-0.5910813870398669,-0.9526459021746427,0.6424851082906181,-0.5300844435875895,-0.5153090908042133,-0.804900257897063,-0.45202441025406237,undefined,1495705569699
903d185fccf839df,-0.6085417154446181,-0.7043084170453212,1.116114474433143,1.0638734745969622,-1.081706814448702,-1.912429920203269,1.8964969953749697,-0.9904611959470202,-0.4266009028431316,-0.7075626095706982,-0.03302438070581775,-0.09500249541340823,-0.3517644273618538,-0.49010494609884486,-1.030758860648385,-0.08976372009163026,-0.7548971250019008,-0.5087024555237889,-0.9731395619236581,0.16909070016429076,-0.6151839611039495,-0.4938397149507959,-0.5773844298691035,-0.47805076340637254,undefined,1495705571196
903d185fccf839df,-0.561417194294463,-0.7512696461230246,1.107820460951761,1.124011699998261,-0.9643881575408446,-1.952504481812254,1.9349842177751917,-0.7594384835301196,-0.33648361887420375,-1.0629814459512519,0.01758200816097302,0.09606363550320889,-0.5954698640819964,-0.4715882394700471,-1.037074678064335,0.08602913947315237,-0.7588601878880142,-0.4470575818732522,-0.983047046222906,0.23608933887238462,-0.573418152841405,-0.4810405220251881,-0.625100495020701,-0.4467581909405041,undefined,1495705572717
903d185fccf839df,-0.6515081967001258,-0.7442254369175756,1.0267932149562502,0.9565993220422002,-1.081501104817055,-1.9655156120424377,1.9921114923633447,-0.43656999367747173,-0.28163817980069406,-1.1727145721714942,-0.014460851869707723,0.0530242032195605,-0.9001016599821747,-0.47436577913638056,-0.9560219615226677,0.2941518093548341,-0.6752450192947871,-0.48574553432228645,-0.9215800624510828,0.553805461180851,-0.5129043882403196,-0.47270683568571226,-0.6098009087084015,-0.22225563816710436,undefined,1495705574190
903d185fccf839df,-0.7097208242360069,-0.7395293169326045,0.8877068580432671,0.865645908586657,-0.9983823882635068,-1.9782518915778442,1.9965690118530286,-0.39759882339161245,-0.24411493475762652,-1.232605579070412,-0.035700979509071785,0.023470441765367993,-0.8826941287878788,-0.4817724695583644,-0.8897060884788572,0.5649132853393669,-0.5323238859872169,-0.4229037314653396,-0.8922284409396459,0.7925737534169601,-0.4259831538922313,-0.4728704771951286,-0.6253767808664366,-0.15445082370568522,undefined,1495705575737
903d185fccf839df,-0.27312611771689893,-0.7735762306656334,1.4147037883649367,1.2880039208885634,-0.7539633666316212,-1.9836301038912771,1.9786205838344924,-0.4249326639730512,-0.2700424257711966,-0.8814960833770648,-0.09352081048376557,-0.0010022327539935092,-0.8957497771836007,-0.3734498860088821,-0.9054955768019785,0.6740260771807842,-0.48238637773212073,-0.38519738510912793,-0.9111758046835807,0.9340546689389085,-0.3860774867568597,-0.4585939859389688,-0.5488314560078064,-0.1445723384015879,undefined,1495705577197
903d185fccf839df,-0.10403239181834795,-0.738355316164354,1.8383437296300085,1.8877515509375167,-0.6561052434112156,-1.9603283948736099,2.039074560327918,0.012927005577207199,-0.3229523754506023,-0.466362843606859,-0.15176354993007593,0.00260611877456304,-0.9349167223707665,-0.3577107060956433,-0.8760218750817973,0.8296129112902106,-0.3866128348018829,-0.3826578746944937,-0.9236581149266663,0.988503569667611,-0.374050932811216,-0.43879889065078476,-0.5072230023899601,-0.13621032398394003,undefined,1495705578699
903d185fccf839df,-0.007011322921606339,-0.7189837627703636,1.9857241000243737,2.0076029273834384,-0.49879579023418175,-1.965443404595143,1.8664909095716813,-1.0552247980275555,-0.33224324400331817,-0.5015647611898578,-0.16545371764302863,-0.0007704043917607796,-0.9001016599821747,-0.331787386749509,-0.8707587098533457,0.8134480343964826,-0.4084426515903748,-0.29267307872434456,-0.926225944848728,1.080663267884917,-0.3088543018012401,-0.4729341231608626,-0.5738394829811861,-0.14608534982728433,undefined,1495705580195
903d185fccf839df,0.21336499852715668,-0.7137006716292597,1.9857241000243737,1.9361980478147858,-0.4872346673470955,-1.9726104743312705,1.920078466602723,-0.7143856680289816,-0.35621781064761976,-0.34104988730423885,0.058250560732310934,-0.0176940049336879,-0.9653799019607844,-0.19661559412919938,-0.8665481747256908,1.2640436598310338,-0.2927158708354602,-0.15106845827503348,-0.9334466539364925,1.346748405304447,-0.19891136437756846,-0.4469856436374345,-0.40319243430714385,-0.20399307532516034,undefined,1495705581697
903d185fccf839df,-0.16778910705250175,-0.764183961467699,2.228168716678702,2.1835884399885552,-0.5529911278478513,-1.996585333248684,1.8564792273589066,-1.169096760494623,-0.3402622456406815,-0.6135882967591308,0.12158154410210342,-0.08214677636253234,-0.8043602384135473,-0.10773556808088423,-0.9170745263163279,0.9225607414437352,-0.41895926842428877,-0.0005090555710870704,-0.9732515108303972,1.0895789657789707,-0.1878386576472516,-0.3757998077497125,-0.43675890463305944,-0.37329446085438855,undefined,1495705583196
903d185fccf839df,-0.27589814431333043,-0.7542047064996353,1.9168189323794096,1.8228226286190992,-0.7251634066657584,-1.9957095392719637,1.9224873466725088,-0.8270378646838801,-0.33478584371332276,-0.3645349681226406,0.1694179512237488,-0.0526696801457084,-0.6302849264705882,-0.093848064010835,-0.9054955768019785,0.920540237824725,-0.4836894183164649,-0.022573031863567253,-0.9689624656345359,1.0613074235071003,-0.2055886463734726,-0.39508696056047543,-0.4292870676367172,-0.3782122739170582,undefined,1495705584704
903d185fccf839df,-0.2814423010224226,-0.7624229457013271,1.6826685833434132,1.7161247298842257,-0.8714465901429094,-1.9887870406263588,2.048478720753567,-0.03862820883456066,-0.3614552680381265,-0.3694487164494261,0.060709714951823056,-0.07354215769254413,-0.865286597593583,-0.17532146439103904,-0.8244428565791944,0.7770770755179554,-0.539880929157483,-0.05589698116180371,-0.9235881466343877,0.977154923060677,-0.22978749150576094,-0.40113894824368385,-0.500701533232243,-0.4121187699073308,undefined,1495705586230
903d185fccf839df,-0.5378550027302049,-0.7172227323899956,1.5965369967187333,1.643184463460535,-0.9489287459156884,-1.975850446660014,1.9386159454565934,-0.7759608841683128,-0.36640757016034037,-0.3299140801638085,0.050953349830433876,-0.04615700967242122,-0.9392686051693405,-0.1595822585762511,-0.8865481871331161,0.6639230503207454,-0.5410962252173923,-0.09620616708151701,-0.9463137879764603,0.9222286655824715,-0.26785777782930836,-0.402392652243856,-0.45247640811007495,-0.4314428685010102,undefined,1495705587716
903d185fccf839df,-0.34242688614391575,-0.7712281560591517,2.1567115057876283,2.175208664452595,-0.794890150364442,-1.968478404715344,2.0088107349298,-0.26674837928811096,-0.3969928011378777,-0.37095469859565167,0.09641912435253276,-0.05501280755431483,-0.7521376448306596,-0.14476890363383252,-0.9360219454341254,0.4638828188859276,-0.5686930044735717,-0.1385418957199089,-0.9427734016728616,0.7109004034278156,-0.3318471204025311,-0.4203408688118813,-0.47226740600316724,-0.40750855842098865,undefined,1495705589196
903d185fccf839df,-0.4131135643529191,-0.7078305216480457,1.8957644485305292,1.8278843529712137,-0.694841178614129,-1.9640691546951807,2.010861985821531,-0.22175152890740943,-0.37336293914683927,-0.3250637010720439,0.08741022248352966,-0.02062327020313628,-0.8043602384135473,-0.3225289816320119,-0.997074623800549,0.38912036924514126,-0.7427602428867646,-0.27906991756008975,-0.9629452077973456,0.6651362186611715,-0.417812919847573,-0.4692921926752215,-0.4874022645517071,-0.44888118133049576,undefined,1495705590710
903d185fccf839df,-0.35628708813689275,-0.716635702777878,1.810271253922801,1.808590091068038,-0.6300618620467344,-1.978792275140264,2.0048502551036362,-0.2658359830920538,-0.3429411873712312,-0.36938906464335636,0.157666229179059,0.011342970604857006,-0.9479723707664884,-0.38733737712815686,-1.0160220392372297,0.3062753680986048,-0.7874991316512134,-0.25154694428831426,-0.9440118375222377,0.6620411301033322,-0.39730004263694085,-0.4936968798618047,-0.5182532066468775,-0.5048186773724809,undefined,1495705592211
903d185fccf839df,-0.31886466007424796,-0.7101785816405313,1.4708489939163014,1.48716741807838,-0.6348241409058399,-1.9874011424486513,1.928680553208548,-0.7811801137046791,-0.30074028298357325,-0.27410818108360374,0.22170422265451867,0.022065809752317308,-0.9697317847593583,-0.35030406747675763,-1.0181272994388233,0.38912028445097663,-0.7674750693359936,-0.23202247960085134,-0.9480769843357342,0.6728816341897393,-0.3863444899638706,-0.5048643301761875,-0.4886670050557377,-0.5137977007574096,undefined,1495705593701
903d185fccf839df,-0.11512042919325449,-0.7266150015879301,1.7694385619850446,1.6573791008216583,-0.7031931677541844,-1.9944168108550533,1.9914750652598372,-0.37494017960468834,-0.3074535323255756,-0.4348418048495153,0.24156922536780026,0.013767804090546752,-0.9349167223707665,-0.32530650834757086,-1.0086535843582491,0.4416560636937889,-0.7232095707991741,-0.24035029985007533,-0.9740491463466623,0.7000752901671877,-0.38793603564173434,-0.4950909602638177,-0.5069081375518623,-0.4993470927042759,undefined,1495705595188
903d185fccf839df,-0.07631205684321342,-0.6673264283216853,1.5754830211437518,1.5086462476292117,-0.7390491075702702,-1.9745973149270002,1.945193114821065,-0.6744343230820757,-0.3440628414100322,-0.2632354623637218,0.23583130668423172,-0.02481947833799315,-1.013250612745098,-0.4752915782056517,-1.0044430786795295,0.36285240896193127,-0.7633443636662273,-0.3161872992739741,-0.9602934165179045,0.5730535147039058,-0.44721460885944603,-0.5007444324585131,-0.5403411276771665,-0.5038428294117081,undefined,1495705596735
903d185fccf839df,-0.2079834236899391,-0.6250613046149569,1.4217222884971628,1.4047449370220697,-0.8205529667020008,-1.9938112100482952,1.9079576882972349,-0.9437296158074396,-0.3974653530378709,-0.41641100017950866,0.16122642177168678,0.0018290957289811846,-0.8826941287878788,-0.43085156518149414,-1.0033904338542652,0.38507910762462694,-0.7534845331742885,-0.3435139502840772,-0.9746508719780664,0.4727634412354172,-0.473817486519943,-0.5432989547352092,-0.6189494598461822,-0.5060754193648143,undefined,1495705598229
903d185fccf839df,-0.33549678514742726,-0.5933624362604173,1.341970555850808,1.2662750930402296,-0.9093185333643025,-1.9780259554480082,1.9707574526227987,-0.5303766864893122,-0.4672291115337351,-0.3754101877230003,0.06932208041376961,-0.01426770852986237,-0.8087121212121212,-0.4715882783223707,-1.0223378198420106,0.19918330599397005,-0.7577245371340544,-0.4066217330492983,-0.9833339143677788,0.39136726234886854,-0.5290406624361425,-0.5386463573867352,-0.569033233212188,-0.49096569372273563,undefined,1495705599713
903d185fccf839df,-0.4824144017907554,-0.5722298963280473,1.1250466257945273,1.1706522210796166,-1.0325308901160148,-1.9448878697039533,1.904452150328738,-0.9507989692177553,-0.5235551597532849,-0.5644690044340329,-0.02752460339912959,0.053451498649157436,-0.4300983177361854,-0.49565993477609,-1.0181273215255247,0.12442065850013297,-0.7519552193110928,-0.4681462807755012,-0.9916251356909526,0.2963434564152716,-0.5818360217577481,-0.5114698106365354,-0.5912808405834156,-0.4744521557567527,undefined,1495705601237
903d185fccf839df,-0.44915008263357736,-0.5992326300836197,1.1186665176792527,1.171020009294198,-1.0190669151032874,-1.9432131465482068,1.9014436488811963,-0.9628409669392306,-0.5019893721735683,-0.62411235114426,-0.0067547514210473825,0.19471373337082887,-0.5954698640819964,-0.4826982815784101,-1.0286536078090252,0.027431594990815586,-0.7616142381134836,-0.5047000326890808,-0.9881966983185613,0.25984914047871316,-0.6065565940974632,-0.5142825598158239,-0.6166903123766059,-0.470722547122557,undefined,1495705602708
903d185fccf839df,-0.3937093781778986,-0.6708484890824213,1.155033261004792,1.275980237451515,-0.9889812542125344,-1.9502660831671674,1.9270842556972234,-0.8061425301411659,-0.41885809779320377,-0.5602321525667335,0.037079500448189806,-0.020722901419911594,-0.7608414104278075,-0.41881572400385997,-1.0086535843582491,-0.10390803683690497,-0.8442806685129856,-0.48742376175026897,-0.989882929385051,0.20446093274691282,-0.6041072371142606,-0.5204710918291436,-0.621138356722558,-0.4722488570225028,undefined,1495705604209
903d185fccf839df,-0.2980743915901922,-0.698438237836115,1.284549582813338,1.2501730614949642,-0.9016351198271265,-1.9770104075250339,1.8731232676218659,-1.1951547762701633,-0.33272782349922936,-0.45988765348948735,0.08896567529442616,0.021629185763392383,-0.8391753008021391,-0.3975215295118269,-1.0276009777082284,-0.2190825373884037,-0.8064525368209278,-0.48572653210835137,-0.9955573433180064,0.17963863796053425,-0.6054173410720669,-0.529145195913727,-0.6616859303295841,-0.45535552120504275,undefined,1495705605697
903d185fccf839df,-0.31193455907775947,-0.7166357173918743,1.2966716611638847,1.3191147267819656,-0.892470564380011,-1.9795539357814587,1.9825652806497867,-0.49430385391127735,-0.3188104575936827,-0.2856753568693153,0.2178093087286181,0.022762772789016273,-0.8739903631907309,-0.4577007483507724,-1.0212851971034476,-0.23322682586895685,-0.8338792461641349,-0.5027811498080612,-0.9888823858150608,0.2083413406897439,-0.6103263644789907,-0.5156725663609795,-0.6188204630656361,-0.44875713562011793,undefined,1495705607194
903d185fccf839df,-0.2384757507560954,-0.7101785377985428,1.1773640206136766,1.1090028692248706,-0.7960421508573818,-1.9933802989759026,1.9716305484202505,-0.5616372793596022,-0.21991485555934237,-0.264814599811102,0.27201862549443745,-0.05094863794373632,-0.5911179812834225,-0.459552424193962,-1.0339167803997107,-0.2190825373884037,-0.8784671308932523,-0.5261813771112744,-0.9782472332335751,0.31850181760852836,-0.593068901735749,-0.5183798734810952,-0.6516400004537554,-0.44933203406095246,undefined,1495705608697
903d185fccf839df,-0.22600170008297307,-0.7219188669889629,1.5697405426345805,1.6833331130690683,-0.6239830080371607,-2.0076375728676332,2.002252010329076,-0.32083614978727826,-0.19787164195385987,-0.1266615554649866,0.297883711986376,-0.02537236925937415,-0.6650999888591801,-0.4123348844542455,-1.0486536459842688,-0.10390792377801883,-0.8602290023090298,-0.5194177939171464,-0.9905336327354114,0.3804035684506855,-0.582871493478255,-0.5040156445086744,-0.657359040273966,-0.43359718317305573,undefined,1495705610244
903d185fccf839df,-0.23708977196328937,-0.7166357173918743,1.3662152208258003,1.2945675912094714,-0.6966823134367262,-2.0103068814525464,1.974249838955173,-0.5280066132963982,-0.2489904807982157,-0.23978692044537656,0.19393134552764885,-0.04946773025336816,-0.8870460115864528,-0.4808466316367696,-1.03286414293668,-0.09178425197536204,-0.8131454391295575,-0.5374666836191802,-1.0001262608388277,0.3086006140363856,-0.608800701245181,-0.49955471280649144,-0.6535421706766023,-0.42153766521513186,undefined,1495705611685
903d185fccf839df,-0.2842142241026249,-0.8234725785759323,1.3636631775796906,1.421138239583621,-0.9337676319939007,-2.0186781680885546,1.9147872852735193,-0.9924566285276648,-0.3065783909492887,-0.3224304988779263,0.19047313660944903,0.021652533729736852,-0.9088054255793226,-0.5447291633097706,-1.0339167803997107,-0.16856743135293092,-0.8087340298662249,-0.5574344560859635,-1.019605382631467,0.29090779900699454,-0.6306724623536567,-0.4967850274284122,-0.6309175377258505,-0.41034860496091463,undefined,1495705613184
903d185fccf839df,-0.2856002891589553,-0.7882516348466605,1.0472098150620779,1.1143004179452694,-1.0688805522362512,-1.984200768489968,1.984169462857654,-0.5276486627161923,-0.26385515553906547,-0.5528599655041648,0.27186401694683354,-0.0280911067030044,-1.035010026737968,-0.5613941163907316,-1.0486536459842688,-0.2352474708115748,-0.8459473720986119,-0.6175910894782863,-1.0233626690384594,0.21514744982101824,-0.6781706684224772,-0.48244232945049403,-0.6203995736410395,-0.4206054937960182,undefined,1495705614694
903d185fccf839df,-0.44221991262626936,-0.7823814848654466,1.0121190933595936,1.0167508272111763,-1.150065557768573,-1.9748791537770545,1.9748099823790812,-0.6046964053553309,-0.2081417157122636,-0.5433087572751248,0.37939498886638146,-0.07074539653625862,-0.8261196524064172,-0.5697266835866338,-1.0297062526342897,-0.35648396272037036,-0.8378199686968799,-0.6241456870813268,-1.0195284163721872,0.05220109737556527,-0.7136798140623706,-0.47223455558144367,-0.6098466217209885,-0.42927207536634565,undefined,1495705616190
903d185fccf839df,-0.3008464699447383,-0.7401163319307259,1.0044624553473653,1.0327944613040458,-1.0517342897176771,-1.9756617777048529,2.015282700632986,-0.3019083213632042,-0.25709264463157877,-0.6514194050383197,0.35081756886117926,-0.06717713294451788,-0.7521376448306596,-0.5336191341521822,-1.02128518237898,-0.34031908582664233,-0.7990368289607122,-0.5800114020675989,-1.010110709060638,0.022543691365243555,-0.6906433669380514,-0.5054099121579688,-0.6347986066213906,-0.41533300985183835,undefined,1495705617694
903d185fccf839df,-0.3410408728457,-0.7911866806092751,1.052313647417348,1.048489611810242,-1.047856579663583,-1.9822115994065919,1.9912515241090136,-0.4584801272594691,-0.3184341139278595,-0.6056202544268944,0.2063709502901022,-0.004217451093777955,-0.9175091911764707,-0.5076958277568224,-1.0307588753728527,-0.2594947578874453,-0.8235235309923722,-0.5267006817151602,-1.0026451112312833,0.06947815466061515,-0.6573041070009298,-0.5079321394718633,-0.5808729571308887,-0.4275281589202216,undefined,1495705619197
903d185fccf839df,-0.2953023649937607,-0.786490560624304,1.1652416881261805,1.0625827413304871,-0.7990352790050522,-1.9775764120039745,1.9675411930353024,-0.5305694171221383,-0.2802047713793037,-0.6968255938831212,0.16633038628719707,0.004719520089678785,-0.7956564728163993,-0.491956634892809,-1.0402325904534269,-0.033186622698860656,-0.780351577297898,-0.4539604917716526,-1.0057726854240072,0.3342082322599115,-0.5656106148416048,-0.4946769779535961,-0.5733424332216653,-0.46814583559666645,undefined,1495705620691
903d185fccf839df,-0.21491355919183733,-0.7982308605867318,1.1250466257945273,1.0608060551990737,-0.7850673029349443,-1.9758271534976906,1.9680592679839672,-0.5188538475878429,-0.24115234385044476,-0.8029325649894588,0.14715253901733483,0.0389931788145424,-0.7564895276292335,-0.4280740902690334,-1.057074708877345,0.29819298618118384,-0.680632437549483,-0.3861219982800034,-1.0170235578214202,0.5249795709015332,-0.49598974086067615,-0.48764409164213823,-0.6153894108694017,-0.5145252795773901,undefined,1495705622366
903d185fccf839df,-0.359059149238734,-0.8381479681429631,0.9623539959235035,0.845928401767241,-0.7036148676872074,-1.979763567686172,1.9477466503179393,-0.6581971462279962,-0.23759125432205722,-1.0525504831036243,0.19921271618450084,0.10140399761402286,-0.5519510360962567,-0.4410357693682624,-1.0591799690789385,0.5588513505115132,-0.6150084207733411,-0.36980833609788155,-1.0225230513968198,0.7971316925824835,-0.4326648594853786,-0.4767142424575714,-0.6518100659152372,-0.5256392935934996,undefined,1495705623703
903d185fccf839df,-0.052749830773545635,-0.8393219835252097,0.6918369035619679,0.6233696719072109,-0.556920258048966,-1.9892086329053111,1.981489696794525,-0.3941630987791871,-0.28434500714882976,-1.3003260030656474,0.15080228388842273,-0.005125756460419963,-0.499728442513369,-0.44381324428072316,-1.0654957754515375,1.1003743024805788,-0.5062623764673324,-0.3972553138406717,-1.0361038613451525,1.2555434159147243,-0.33780115669817173,-0.4684571971767148,-0.7615314695410014,-0.5380395308694826,undefined,1495705625203
903d185fccf839df,-0.24956392615264086,-0.8222985485796894,0.23502116250831717,0.23947901689693146,-0.45890785750910235,-1.993382630026773,1.92500147125693,-0.7725642208703045,-0.31918403100282994,-1.2793553643178617,0.14811800710939807,0.01225630735802207,-0.5693585672905526,-0.4197416007777784,-1.0591799764411722,1.3771975154399148,-0.40607248577621574,-0.4575639372389986,-1.018555859843841,1.5001477217482118,-0.3089476205662155,-0.4449355301756568,-0.6728342366614177,-0.4077162543834173,undefined,1495705626704
903d185fccf839df,-0.24679189955620937,-0.6972642078398723,-0.11843758948873569,-0.15513823072393565,-0.5544105532449531,-1.9330064207685116,1.901299028022327,-0.889048508689921,-0.41406195024317427,-1.1022735716091783,0.16456125542101638,-0.08898024391744735,-0.3430606617647059,-0.42992575316144843,-1.0349694178627413,1.2539406047062736,-0.41178781712326845,-0.497068839261853,-1.0214455436351166,1.5442950620290927,-0.3154795982786285,-0.4286588618778529,-0.6790323863049295,-0.4454763919810287,undefined,1495705628192
903d185fccf839df,-0.2731261867277184,-0.6315184695942921,-0.23391741930672855,-0.228815913917283,-0.8101026891964909,-1.8581609767436862,1.959312539568837,-0.4979069459755332,-0.4082291562219381,-0.9383450205826582,0.233061644179078,-0.08723140151578916,-0.7913045900178254,-0.3827082004709574,-1.0012851736526716,2.088451533469517,-0.15760232096366986,-0.5532103845189995,-0.9667584695722082,2.4336938741227843,-0.12717769554892028,-0.4093266082702825,-0.07075162681762943,0.12929904406465348,undefined,1495705629703
903d185fccf839df,-0.34381296845295095,-0.6790667428981092,-0.5037961196513125,-0.46965999177484996,-0.883305989695885,-1.8458579352937186,1.975222854713982,-0.4113387460426913,-0.3679602391241525,-0.8162609755420216,0.2043883594379244,0.007281315975622554,-0.8391753008021391,-0.5475066641237805,-0.954969327740754,2.0015654968202385,-0.07719811687429255,-0.7011986110379584,-0.9834668544167271,2.190259848070019,-0.2469638505118183,-0.3806162850602907,0.18209005096641173,0.20928508769830756,undefined,1495705631218
903d185fccf839df,-0.33133871074737026,-0.7172227616179879,-0.5350590306215814,-0.5797931313194694,-1.0740028163020072,-1.9172980307018048,2.0182491084647607,-0.24863495931062837,-0.24376602153605184,-0.6975003375124048,0.16743027658214693,0.0228820419956184,-0.8174158868092692,-0.7752617826756862,-0.9444429862404999,2.565315203981443,0.09176363155151414,-0.7679985010578221,-0.9993216283098231,2.532736673792832,-0.18793672555141624,-0.37053224128717926,0.11565770152914394,0.19926803586042477,undefined,1495705632713
903d185fccf839df,-0.6986326833448712,-0.868672733431279,-0.494226338683825,-0.5038357231049426,-1.209568308702438,-2.0046375139691426,1.9984545552721789,-0.52254583013134,-0.23884693153360903,-0.6241863183444389,0.11923285863639313,0.02699551423058166,-0.8391753008021391,-0.8271084731710531,-0.9665482809362204,1.7894016783769287,-0.07719811687429255,-0.8063064769747995,-1.0224250980631766,2.291381436650245,-0.2704723847511242,-0.3673778196048523,0.13820362293333918,0.11527331480656508,undefined,1495705634234
903d185fccf839df,-0.7928816221289521,-0.9573121296735742,-0.6403306874551352,-0.6812442274188718,-1.310872141569027,-2.060455402247034,1.9991488296717121,-0.5819144427578576,-0.2787150710003694,-0.6230800813161128,0.0846045378049181,-0.0028215667299201145,-0.9479723707664884,-0.9113593484637179,-1.0391799345848116,2.3066772584759594,0.07733558222826489,-0.891687223766278,-1.0446469690037774,1.9915737028417604,-0.3735461907268271,-0.38885300319685134,0.3717816738350928,0.21249001908020176,undefined,1495705635687
903d185fccf839df,-0.8982187708149881,-1.02716698752,-0.8279061201811535,-0.8829558401727051,-1.3828103073242501,-2.0210097358040264,1.9643538670472762,-0.8151989588343617,-0.3007445702768937,-0.7091501935174841,0.08671022998860484,-0.0437513506804043,-0.8043602384135473,-1.02245943282721,-1.128653747149607,1.0660240026770302,-0.5045390529838624,-1.0244067244244546,-1.140524268679333,0.5434730991572527,-0.7840901239562458,-0.4693983325629986,-0.4903386583703212,-0.40349955306491087,undefined,1495705637200
903d185fccf839df,-0.7970396965290091,-0.9625952646566666,-0.5963080685282162,-0.6623493428652587,-1.4305153698325745,-2.05971936256721,2.088330809580138,-0.005498403113826265,-0.2987987306146544,-0.7128125602490594,0.0768807382434443,0.014875983976712205,-0.7434338792335116,-1.0604186192525276,-1.1770748587847932,-0.10592856872063676,-0.9762757561952228,-1.0712515081527965,-1.1905654593781005,-0.36586669651803844,-1.0344166646441602,-0.47913923638529377,-0.6077968860475185,-0.5187928663335543,undefined,1495705638680
903d185fccf839df,-1.0784006548573797,-0.9549640550670924,-0.5312307116154674,-0.5772924152261991,-1.6155962010484408,-2.062274537963378,2.163193500725077,0.47974928067630723,-0.2978779470650311,-0.6445471858738414,0.06791907733416368,-0.3350349230242567,-0.5824142156862745,-1.0483827748371999,-1.2265486005207766,-0.24535049767161365,-1.0546181349688006,-1.0536459256376598,-1.2237583299323747,-0.19417402592826077,-1.0051662074516396,-0.47856111451632455,-0.6166455097906796,-0.5016044617127089,undefined,1495705640174
903d185fccf839df,-0.7513011886770697,-0.9038937210025393,-0.37810811684888057,-0.4838451069586595,-1.2875133223983535,-1.9747021316390818,2.044967948318666,-0.19392345676517905,-0.21868902859246828,-0.8461642616915772,0.03795298205349788,-0.7064716664065805,1.9721409870766489,-1.003942745624574,-1.1465484993554387,0.22140989159777955,-0.8357327787518964,-1.0318416012872393,-1.1243126576395066,0.29407988162293935,-0.8391287704916369,-0.4877280494231271,-0.6198548897496796,-0.5874669613705715,undefined,1495705641676
903d185fccf839df,-0.4089556279745011,-0.9755095800013409,-0.5331443628446256,-0.5875428899958459,-0.9540613098281682,-1.935866726312401,1.947999112497971,-0.776780600239359,-0.2718986030905895,-0.692184260056269,0.06615777024941126,-1.287591567704819,5.854020443404635,-1.0039427520999613,-1.152864302046921,0.2618220555673781,-0.8387520210442128,-1.0287827891920789,-1.094807106282666,0.3472045198396325,-0.8167506610804561,-0.4682788258188474,-0.6207629815726169,-0.6039469502672983,undefined,1495705643181
903d185fccf839df,-0.8843586033274209,-1.0383202724843064,-0.6294846307276434,-0.6875736589023493,-1.2327008419461112,-1.9431991706181948,1.9561409955441584,-0.7908126209366533,-0.296072959279743,-0.606244584548019,0.0736426776952747,-1.6870032222140456,6.928935494652406,-1.0483827715995062,-1.132864274915028,0.10825586640056956,-0.9040747785420868,-1.0872738564870978,-1.13398924727158,-0.14408288384731474,-0.9627079900261745,-0.44832311720761586,-0.6421888141938868,-0.5448060140987037,undefined,1495705644692
903d185fccf839df,-1.1005769193869464,-1.064735976627761,-0.6447963819304032,-0.6832151348522609,-1.5050969578661997,-1.9388597982901115,1.8579782226658372,-1.4861122897592898,-0.303619114204756,-0.5942527668800508,0.06987501204363677,-1.561428455107347,7.625236742424242,-1.052086116810498,-1.1454958729357587,-0.2130207438841576,-0.9661718842055204,-1.0903516670810904,-1.1587859446453834,-0.5612575673261547,-1.0730742962155817,-0.4450051443514807,-0.6284630850789391,-0.5007710521364163,undefined,1495705646191
903d185fccf839df,-0.7623892950627957,-1.0488865716784836,-0.5312307116154674,-0.5751980720566648,-1.3119315678918666,-1.9397192870156044,1.8549828759969835,-1.4707200448844515,-0.321933658113147,-0.6235349203352776,0.07502503913073046,-1.098823345753587,4.935773172905526,-1.0493086159964882,-1.2360222971957662,-0.29182449047636017,-0.9864926444395142,-1.0963679634472696,-1.2178530216870342,-0.581136958108718,-1.0999297740509717,-0.474494517421304,-0.6506168029094663,-0.4875377479363332,undefined,1495705647690
903d185fccf839df,-0.7790214546413848,-1.0142526283333373,-0.41766453302663276,-0.4230161818581517,-1.1506312644519558,-1.9531939371679956,1.880331574104785,-1.2911538728792196,-0.31450472154251785,-0.6168533333594695,0.07660787831557209,-0.6313970452762948,1.0408380681818183,-1.019681925537813,-1.245495993870756,-0.6393690115810345,-1.0668902560485383,-1.0805419368763403,-1.22834823800205,-0.8204134024774437,-1.1481209775684333,-0.47516643842396045,-0.6572416980496422,-0.49819722494639257,undefined,1495705649238
903d185fccf839df,-0.7720913881503061,-1.0001642391504315,-0.5593031873226749,-0.5783126686853354,-1.0968164965544298,-1.9666406352447228,1.9477177219560777,-0.8413759918212818,-0.2939738526512319,-0.6685045848230138,0.08008508352171574,-0.2719774248412774,-0.6128773952762924,-1.02245943282721,-1.245495993870756,-0.7121109010733676,-1.1221076502893634,-1.0763748599864464,-1.228900986085776,-0.8879355869037064,-1.1627113369914244,-0.47459912482639266,-0.655557610782959,-0.49624855240319465,undefined,1495705650704
903d185fccf839df,-0.5212227396353868,-0.946745845093393,-0.5656835495748989,-0.6035161701411876,-0.8797677203493697,-1.9343480637322423,1.9951594246262527,-0.4214292921678997,-0.3218788439237201,-0.8839370149282123,0.11169841043426239,-0.050824638824343134,-0.9044535427807487,-0.9752419125136553,-1.1749695967426412,-0.5726889933209319,-1.0884645727674929,-1.0146793226812938,-1.1520830001069113,-0.7303632949480271,-1.075596906347136,-0.4642441905039826,-0.6275861113678162,-0.48098929493656245,undefined,1495705652190
903d185fccf839df,-0.3756912053010938,-0.8428441027419303,-0.39661030331470176,-0.4149711280496901,-0.8334512276474224,-1.927709731530971,1.9809979198804974,-0.48604007667702187,-0.27084896214943666,-0.8231279037460025,0.12376886476037763,-0.002687073266657482,-0.9784355503565063,-0.9557993938648118,-1.0833905313384862,-0.4918646583155544,-1.1215385759899446,-0.9617422472294246,-1.0948211002469748,-0.5725292307390674,-1.0038568507042043,-0.4703712251598846,-0.6207542502261768,-0.4715248592983284,undefined,1495705654276
903d185fccf839df,-0.23015977448303007,-0.7600749003228378,0.25543750847719543,0.10867015030719826,-0.8266729528329504,-1.9170371571638347,1.9251092853425258,-0.8315551560257256,-0.2964207441814227,-0.8902257513220395,0.15233367678480658,0.06865126635818491,-0.9131573083778967,-0.9224693840966937,-1.0633905005254765,-0.3463808793308884,-0.9731085740962008,-0.9119336446253867,-1.0734808273667285,-0.21180524924906247,-0.898306877399738,-0.47151616595147533,-0.4879407799133272,-0.42712207228710153,undefined,1495705655207
903d185fccf839df,-0.3022324659902492,-0.7189837919983559,0.9023809796399236,0.8591860941826793,-0.8570157597406003,-1.9109438662491305,1.9910227474442639,-0.39274479719226574,-0.25594945057862045,-0.6092550049357507,0.09720611042867573,0.015203203000282373,-0.7477857620320856,-0.8400701652210566,-0.9876009381689101,-0.03318665096358219,-0.8172846515714376,-0.8609851122203218,-1.0313250425382101,0.14488434039560322,-0.7906834035622725,-0.44586601669087955,-0.4688683358183508,-0.45506392071276053,undefined,1495705656702
903d185fccf839df,-0.19828136510783856,-0.698438237836115,1.1786400422367316,1.3151778921411792,-0.7292674046273688,-1.9384498515508135,1.9314813090863971,-0.7494566140365243,-0.3490521470663538,-0.5769533518120239,0.0818176565880911,0.06867408466181273,-0.7303782308377896,-0.7660034358366746,-0.9402324437506113,0.19918322119980544,-0.6879205539211406,-0.8040646148410261,-0.97056473752132,0.408998476488375,-0.6907784115333903,-0.47197424222863293,-0.49152800873756747,-0.46583447271762024,undefined,1495705658192
903d185fccf839df,-0.04859179087889838,-0.607450825443323,1.109734620454818,1.2020728354359413,-0.6442149757862644,-1.9052209248498204,1.9240284335001632,-0.724076622648882,-0.3862164057125528,-0.501587093422702,0.07811295763538181,0.06283290181379994,-0.669451871657754,-0.7576709333946451,-0.9507588036564498,0.2355541518136112,-0.706347846166053,-0.7768139580144986,-0.9572707966354191,0.4445534868892276,-0.6701274344081031,-0.47572823424068245,-0.5342716415029894,-0.4582347786518766,undefined,1495705659699
903d185fccf839df,-0.19966734390064458,-0.5399440275893825,1.3151743559036047,1.2894905126265286,-0.7064640131347824,-1.9197903161865175,1.8463124071684516,-1.241059705094631,-0.3860416296277105,-0.25655393905281065,0.1413273405419481,-0.09616216980752768,-0.6650999888591801,-0.7160084147091101,-0.9444429862404999,0.39922345263462317,-0.8164771076774779,-0.7635781059280693,-0.9381205248438764,0.5715290691701403,-0.6320841886068086,-0.4842361039422606,-0.5800251832890928,-0.4642648981928183,undefined,1495705661230
903d185fccf839df,-0.2869862506990564,-0.596884555477138,1.4529849453304824,1.4923415624309881,-0.8332969391250467,-1.9072823022063585,1.938676457648063,-0.6341961882780306,-0.39307163960589875,-0.14363785623255815,0.06983094382418818,0.0501511150049034,-0.7608414104278075,-0.6984175719034562,-0.9928640886728942,0.1991831929350839,-0.7987875289350402,-0.76090560298198,-0.9514774361284594,0.30547473200708064,-0.6920372379613953,-0.4761964233553563,-0.59591698794843,-0.46247596660680235,undefined,1495705662705
903d185fccf839df,-0.4643961253977214,-0.48828667852670815,1.3770612775532922,1.327699247769894,-0.7668101953408736,-1.878628001564813,1.974983558835378,-0.3552194634091028,-0.5184317615066429,-0.2546196648958304,0.01522181213854932,0.006051066568136803,-0.865286597593583,-0.7048984114530708,-1.0033904485787326,-0.006918775474536844,-0.85714045774603,-0.759081715169671,-0.9761062100289882,0.11387187488814347,-0.7391474497994087,-0.49371211172973056,-0.5858414386019992,-0.43728588824822184,undefined,1495705664203
903d185fccf839df,-0.4061836013780696,-0.5305518022334366,1.158861580010906,1.1423692160465255,-0.8741620124326149,-1.868756687004899,1.9416139339754117,-0.6046724829622693,-0.48374871053505797,-0.28643592602518814,0.02739395088474531,-0.010567880550938586,-0.865286597593583,-0.6641617112629686,-1.0086536064449505,0.06784373069569256,-0.8462393569717264,-0.7221543207639719,-0.9722159825453813,0.11385647597151624,-0.7207116577218716,-0.49698892286433133,-0.4851180521877487,-0.5035296586360877,undefined,1495705665688
903d185fccf839df,-0.4436059949353046,-0.6109729154320513,1.0797479852445533,1.1780278548499346,-0.9043608211381318,-1.8405426121048343,1.9387974139420856,-0.6215004622233131,-0.48685696990103267,-0.5000813409687751,0.08411206888035747,0.03085208643756661,-0.9436204879679144,-0.5465808197267984,-0.9970746458872505,0.16887411235496733,-0.7749828237130866,-0.6870824790329219,-0.9930734757565219,0.18190220742179194,-0.7016778233166023,-0.4857687103825785,-0.4855638439139753,-0.4689770707139691,undefined,1495705668131
903d185fccf839df,-0.4131137023745581,-0.67613163867951,1.179915809722837,1.2341682035616637,-0.8588568973119135,-1.8821288487860752,1.9039735198132235,-0.8750227162074883,-0.5012746137102967,-0.454297549233366,0.03845685075587482,-0.014517596315992677,-0.9697317847593583,-0.5336191341521822,-1.013916779035636,0.1911008392823845,-0.7457732235112337,-0.6774627378527234,-1.0162749004523057,0.19237314817129728,-0.6980271912719912,-0.4990962168668554,-0.4678884823391578,-0.47601111327022555,undefined,1495705668693
903d185fccf839df,-0.5045905800567977,-0.5916014351080416,1.0408291986729046,1.0906830886084258,-0.9487333204466801,-1.8983869376913454,2.0329655137878464,-0.041848354932058754,-0.48186287518211246,-0.6992350395372582,0.014230379024323841,-0.022765292359438496,-0.9392686051693405,-0.48732743880944773,-1.0097062218212798,0.156750412287589,-0.7396727634832443,-0.6071353988301955,-1.0086973543585032,0.2947728126507707,-0.6496469066846867,-0.47729235926864316,-0.46136862495561803,-0.46910060595784625,undefined,1495705670197
903d185fccf839df,-0.4117276200655228,-0.6685004729319243,1.1543956313986885,1.170978903541068,-0.9559333085816624,-1.934732386263783,1.9297745535444686,-0.7818515886264469,-0.42716102948581275,-0.6867537636865454,0.03573784857497812,0.05752181498765046,-0.8261196524064172,-0.5132508099586802,-1.0118114893851071,0.17695655080183134,-0.7461366579943087,-0.6080156784775063,-1.0145047076491789,0.2883670573123068,-0.653720712562271,-0.4845306180067305,-0.4470819956564537,-0.4724575125671412,undefined,1495705671724
903d185fccf839df,-0.40618356687265983,-0.6350405595830205,0.7983848361555259,0.8442562762972038,-0.9476018944966372,-1.9426541293379707,1.9556702518202302,-0.6226725985286032,-0.39969092456014926,-0.4151840686654647,0.024114080644557695,0.02950931383294923,-0.9088054255793226,-0.5530616463256384,-1.023390464667275,-0.04126917420461081,-0.8335730380022325,-0.6527895902157642,-1.012713523312351,0.2133612298934651,-0.691155748572196,-0.4934191055753305,-0.5067168695591974,-0.47462143711941235,undefined,1495705673201
903d185fccf839df,-0.4824144017907554,-0.5904274051117989,0.6318641414153374,0.6866010190896935,-1.08765194354795,-1.9348954347549967,1.987054355685991,-0.4428563205086529,-0.4575720268859266,-0.0903782749252089,0.06978281409427402,-0.04745835703679584,-0.7913045900178254,-0.5567649785858557,-1.0244431021303055,-0.03924841620310674,-0.8604716682654813,-0.6489454930492407,-1.0068501960974316,0.14637799030393317,-0.7007653835020582,-0.4868883531916454,-0.4531877082130862,-0.4834818131236954,undefined,1495705674699
903d185fccf839df,-0.44499193922270086,-0.6397366941819878,0.8826027715510475,0.9413370859385212,-1.0112395014514801,-1.9618983050850949,1.9974420867000453,-0.3943273536501354,-0.4243825505695341,0.09775661667309904,0.07902921837178806,0.010966182009750644,-0.7390819964349377,-0.6595325475565438,-1.0086535769960154,0.09209101777156306,-0.8612164100480546,-0.702427200810256,-0.9692843182497521,0.2289444550023185,-0.6961418741608951,-0.49798824112804785,-0.460729204722955,-0.4614235131980708,undefined,1495705676204
903d185fccf839df,-0.30639050588489647,-0.6825888036588452,0.9636302716835078,1.028716498935667,-0.895844267919303,-1.9715786228704144,1.995496037374556,-0.40996031391902976,-0.4224213921225978,0.18026878170464006,0.07714626490567107,-0.004367505730775178,-0.7303782308377896,-0.7280442558867443,-1.0297062305475884,0.10017342795370554,-0.8698087007773471,-0.7690181047241222,-0.9636518859772748,0.162900523156311,-0.7347534532345833,-0.4926390330745787,-0.5299406423672584,-0.4608558696127686,undefined,1495705677700
903d185fccf839df,-0.2842142931134444,-0.6215392146262286,0.8009371335385851,0.8895428679647077,-0.9403401916312815,-1.9303906845121,1.9701473434568415,-0.5480744116727054,-0.4669667674362747,0.11775094456913762,0.0991754211140875,0.03721072151290952,-0.7695451760249554,-0.739154265618171,-0.9918114806587988,0.1405857049821902,-0.9032644837499058,-0.7595250214983852,-0.9696411561794666,0.12178667595523324,-0.73963658718243,-0.49555233683738087,-0.5103104471321276,-0.4450508912473123,undefined,1495705679192
903d185fccf839df,-0.4838004495943809,-0.5569674917628952,0.5642347412564789,0.6091814968721818,-1.0584508506199888,-1.9201420321120828,2.002559710428345,-0.3450398808389627,-0.4230147485135178,0.14566635756820664,0.08316664155258029,-0.0006827664263469322,-0.9218610739750446,-0.7623001165272318,-1.0149693796874977,-0.03722788431937497,-0.9528067985240763,-0.7865856908893841,-0.9942139561802198,0.09234484834270722,-0.7683142798066948,-0.4771188271954598,-0.5290435973833807,-0.42988070291462105,undefined,1495705680721
903d185fccf839df,-0.35074293142780055,-0.6373886195755061,1.183105990848949,1.1195956617789449,-0.9711252828014008,-1.9126116020564397,1.9671362106345538,-0.5537353808356454,-0.4373283373972173,0.2501668081786088,-0.008625957464232685,-0.018091660778084873,-0.9001016599821747,-0.756745088997663,-1.017074647251325,-0.035207239376757044,-0.8944966368905901,-0.761469236491851,-1.002344250265992,0.12130932531761915,-0.7493517260545676,-0.499247036238346,-0.5673184370159029,-0.4721015975676941,undefined,1495705682236
903d185fccf839df,-0.17471913903817077,-0.6097988854358085,0.9183308687226857,0.859740596717869,-0.8631974670115926,-1.9037348710560529,1.97951208249482,-0.43376179299719053,-0.4452000315501439,0.2952736696556408,-0.025357584586228346,-0.0034968988029875697,-0.7521376448306596,-0.7567451148992121,-1.0107588592843104,-0.03520718284731397,-0.874004663613196,-0.7741857872742474,-1.0188077464056229,0.16046757350106833,-0.7527458162921301,-0.4957583206137797,-0.5653179325038393,-0.46652577465702183,undefined,1495705683708
903d185fccf839df,0.1482223390056066,-0.7318981073430303,1.1977803665825548,1.1424090853491078,-0.6597463771320441,-1.947273010952524,1.9626024127028794,-0.5382771302053512,-0.4628838302365294,0.6592404575625532,-0.04424829908202872,0.05357295763128532,-0.7738970588235294,-0.7335992704655385,-0.9644430391402112,0.041575826941925687,-0.8558647139539145,-0.7641734036414173,-0.9925976921275428,0.27215249904994926,-0.7137488131303874,-0.5139541752863,-0.5875299503146755,-0.40678574642177107,undefined,1495705685201
903d185fccf839df,0.07199153859292075,-0.6690874879300457,1.0472095609251284,1.1849481537311854,-0.7315302560753371,-1.94264015289468,1.996942419851865,-0.3104700806981255,-0.48486012025096825,0.6554197657968609,-0.047200157697271504,0.0666313374860799,-0.6563962232620321,-0.71230508892428,-0.985495692691784,0.06784373069569256,-0.8404772512225679,-0.7327430050785342,-0.9798914838691161,0.3426003850415998,-0.6833622111044128,-0.5187388416714708,-0.5943511872790741,-0.4184579065075534,undefined,1495705686714
903d185fccf839df,-0.1303666099790375,-0.58925336050156,1.1805542017397885,1.2357523791521756,-0.8488386293246868,-1.9049088076177763,1.9314102902513344,-0.7305238514515491,-0.5055526424309682,0.5553548352983163,-0.07850748229618656,0.0747055025305416,-0.7434338792335116,-0.6150925410077734,-0.9497061441067178,0.24969844029416435,-0.823252639824331,-0.6745242535865099,-0.9572358104767666,0.40501028566046926,-0.6368030889705586,-0.5259179105598629,-0.6152048399169101,-0.42920649786892445,undefined,1495705688199
903d185fccf839df,-0.17610508332556707,-0.5522713717779241,1.0880422528628848,1.1488650692261084,-0.916333373949289,-1.8856716197790293,1.9205702340890554,-0.8037388284945403,-0.4859262633626345,0.39689090705560404,-0.0921543513725212,0.0178750990671711,-0.8348234180035651,-0.6586067290611108,-0.9612851120266518,0.24161600184730037,-0.8678311195291983,-0.7276259864487848,-0.9623854625907732,0.33491656119469687,-0.6771905663443507,-0.5130013944658964,-0.6075507253336339,-0.41127269603435684,undefined,1495705689692
903d185fccf839df,-0.14284072966297928,-0.665565368713325,0.6720589496100412,0.8090631938397203,-0.9021082556872803,-1.9278215327886157,2.011853428536217,-0.2439292538336892,-0.4929631897887792,0.625410833390045,-0.1322866172810687,0.05303598104548193,-0.8348234180035651,-0.6761975653913774,-0.9886535829941745,0.0334933319656186,-0.9057200938031198,-0.7483473783716047,-0.971054511150752,0.20472270439438944,-0.717671040391706,-0.5099473798973484,-0.6112432626099992,-0.43262678713094616,undefined,1495705691197
903d185fccf839df,-0.07769813915224864,-0.5769260309270147,0.9719240310279404,0.9410429027914141,-0.8663243187792526,-1.9168950721436064,1.9731505695846292,-0.4818927564271489,-0.45752749162237893,0.6067684034401182,-0.09910288959040911,0.0815217953478309,-0.3996351381461676,-0.5937983529911277,-1.0128641342103717,0.009246044889748105,-0.9171761567429215,-0.7207484089839573,-0.9743989865295895,0.20193558213378812,-0.7083209219414485,-0.5044597685568646,-0.628392736229978,-0.45771941117231874,undefined,1495705692736
903d185fccf839df,-0.020871455903763863,-0.6955031920735004,0.759466557857776,0.928265747674573,-0.8000535712700116,-1.933947433596455,1.9721118019303372,-0.49569837682575074,-0.4074428720263777,0.6800348867655155,-0.0633360213716546,0.05452980439153814,-0.34741254456327986,-0.567875001268057,-1.010758874008778,0.05167891033140762,-0.9089680232094118,-0.696708555205364,-0.983375895049527,0.23927681391612313,-0.6935336374983087,-0.5012001729935655,-0.6021587825974236,-0.4538174604081063,undefined,1495705695122
903d185fccf839df,0.0026908046713136615,-0.7330721957952577,1.0051005932273676,0.977924851360452,-0.8663448895311624,-1.9479251988001638,1.9390525148295168,-0.7359360336242021,-0.3853035190523138,0.7355899977518986,-0.055221512355365834,0.06469850609420537,-0.36482007575757575,-0.5725041714498691,-1.0076009395329848,0.06784373069569256,-0.8876951116946384,-0.6881970783825025,-0.9923737937329439,0.27261445039399135,-0.6878853306588898,-0.503439611889023,-0.5779197318536625,-0.4603049939850996,undefined,1495705695697
903d185fccf839df,-0.06383793715927165,-0.6039287208405985,1.0676259068940066,1.1046442923178466,-0.7232194111097963,-1.9167296969134273,1.9452851490383574,-0.6209275762804419,-0.4256105094853035,0.8048552509975639,-0.09803662507180133,0.029889368732441433,-0.2864861853832442,-0.5549133415949898,-1.0244430800436042,-0.008939279093547086,-0.8838742461157412,-0.6625486575078117,-1.010915342623426,0.26639347800289775,-0.681046329345034,-0.5095172161097912,-0.6015180158919612,-0.4550903817731117,undefined,1495705697218
903d185fccf839df,-0.2079835272061683,-0.5845572259025927,1.1524814718956315,1.2676565326563336,-0.6732412130748868,-1.907659640528935,1.997631435691993,-0.24085137915129884,-0.484820203322749,0.620538583412099,-0.09312998942232249,-0.046211748847193486,-0.23861547459893048,-0.5428774809911938,-1.0170746398890913,0.13452371362489335,-0.8018382193650979,-0.6243166760899999,-0.9992796470102516,0.30099378566113066,-0.65541678276422,-0.497724938616808,-0.6044392267670925,-0.42769006483608923,undefined,1495705698698
903d185fccf839df,-0.2828282798152287,-0.4524787051853188,1.3847174072916215,1.4409800314191334,-0.6878263350623696,-1.8611587076655436,1.9813003404699248,-0.3014503495607468,-0.5335505457164482,0.355712383698704,-0.07604615567331229,-0.022909089581359503,-0.7826008244206774,-0.533619153578344,-1.0076009616196862,0.18301842910024205,-0.7924658493715313,-0.6100928849559973,-0.9937381730650741,0.3711952969564345,-0.6310084129467372,-0.49503679355163727,-0.6485818694965857,-0.40390503792495713,undefined,1495705700200
903d185fccf839df,-0.23570372415966387,-0.6326925288185273,1.890660616175259,1.9386105973437877,-0.5616208294675964,-1.8742536911576633,1.9566459167616568,-0.4385144745668207,-0.5823593722326679,0.7296787608153301,-0.15770115812522637,-0.003955488307651597,-0.9305648395721926,-0.5447291503589962,-0.9897061983705038,0.23757482502095065,-0.7887401422012256,-0.5315453849073348,-0.9789679049985553,0.5108130058431452,-0.5675648261235927,-0.4781277848376287,-0.6592432700695728,-0.3732305273378505,undefined,1495705701700
903d185fccf839df,0.30345593192200004,-0.5957105547088876,1.9161810486363569,1.9178039040975243,-0.5097089163283972,-1.843901374581308,1.9482279090656345,-0.44984804560667707,-0.4507192582805473,0.719178221431651,-0.08626461541970351,0.03782078516532636,-0.7564895276292335,-0.4910307581188906,-0.9718114572080228,0.32850212329074346,-0.8013189468466684,-0.4755368301773705,-0.9552137323842065,0.5911005016116909,-0.5175369032673074,-0.47610031583437007,-0.6760245919278701,-0.3793363107696325,undefined,1495705703207
903d185fccf839df,0.2895957644344328,-0.7272020312000477,1.7483840781361641,1.6846427599640414,-0.5449374252422552,-1.866376204574987,1.9299323448948527,-0.6189719053577059,-0.38029729117315964,0.6046748219470514,-0.08805215843790873,-0.014515096741856012,-0.8609347147950089,-0.48454991856927604,-0.9802324980143973,0.3264815066128471,-0.816479319401072,-0.4622629802738502,-0.9513584893342407,0.5547447701225211,-0.5157018059086961,-0.48678199771493846,-0.6633685931242824,-0.38794182323376103,undefined,1495705704846
903d185fccf839df,0.44621550867068094,-0.7459865403679244,2.0948240758640413,2.161177599567901,-0.3335560713162275,-1.8912920763520558,1.9197339592064202,-0.60828053743468,-0.4696753549725545,0.850802887541321,-0.17334374919649428,0.05159678144322008,-0.7738970588235294,-0.4447391210546416,-0.9749693254237117,0.4760066037474705,-0.8275879951691636,-0.3291698361491006,-0.9368261125622613,0.7548321750306882,-0.4106005479210299,-0.489680304383271,-0.7185439658183222,-0.44442985973052734,undefined,1495705706186
903d185fccf839df,0.44344348207424944,-0.4923958127415502,2.524205987364386,2.414707564799472,-0.3810759912898626,-1.9102311202299584,1.9228607981434997,-0.5911334086366721,-0.39497361589136176,0.7906471239063765,-0.2135144914959729,-0.06586665208802324,-0.8391753008021391,-0.42992579201377207,-0.9602324745636212,0.5123774778318332,-0.8677891069569202,-0.2670183254430329,-0.8948872281062876,0.9078311287157451,-0.3469772430673384,-0.49401877777707787,-0.6951301411041217,-0.500644600366038,undefined,1495705707710
903d185fccf839df,0.07753548826955456,-0.5522714010059164,1.8530175970897156,1.8840111454789215,-0.5608082589034277,-1.9207895610060621,1.9628811849640484,-0.38874418518985115,-0.3668539972563137,0.5573700291524979,-0.22754123219858077,-0.10805852928767011,-0.7260263480392157,-0.48269830747995923,-0.9833904177657229,0.5588513505115132,-0.8614623154508485,-0.2454039877197875,-0.8920535204230466,0.9567981842387252,-0.32882056853483665,-0.502448535398711,-0.683617429302175,-0.49971014571011446,undefined,1495705709188
903d185fccf839df,-0.07215408595938563,-0.5792741055334963,1.698618980700074,1.8523883419261862,-0.6294961426580424,-1.9136155046105507,1.9572349922137522,-0.4741628774728757,-0.3678635465656389,0.4651909345494164,-0.1745789140064081,0.011528542711202733,-0.6825075200534759,-0.4891791081772501,-0.9981272759880473,0.5022744227070728,-0.842873627719141,-0.24663891319855877,-0.8850846969305686,0.9391823590941237,-0.33521622277609564,-0.47836294761431153,-0.6334727902950763,-0.4718222971301919,undefined,1495705710709
903d185fccf839df,0.03595508932308198,-0.44249943560325905,2.0795123246612817,2.1206789174777474,-0.5483934280254149,-1.8896546191188193,2.010488565252433,-0.07437886425908012,-0.45792668805950365,0.622727390743377,-0.1700231469556498,-0.05080028427177016,-0.6955631684491979,-0.515102440474159,-0.9749693622348807,0.48408895740016994,-0.8757389265554514,-0.2915458177395684,-0.8901643814802268,0.9361026689009572,-0.35833562147145637,-0.4574642141429482,-0.6626064135265936,-0.4362724948567844,undefined,1495705712205
903d185fccf839df,0.008234788853357202,-0.45952289977677163,1.8581221918558342,1.9690245989105462,-0.552929422978046,-1.8814929655518018,1.8899408843411218,-0.8692042258212715,-0.3455227603732621,0.4467057827776669,-0.11115166504710017,0.010248844158774528,-0.9175091911764707,-0.5206574162006296,-0.9833903809545539,0.2779870172552707,-0.9327533420536612,-0.3313863655503213,-0.9317884097342518,0.9123736646701642,-0.38856432907224797,-0.4828847712993945,-0.7112548239312493,-0.4221300959173739,undefined,1495705713696
903d185fccf839df,0.0983257567536103,-0.5064841434684711,1.9780684785599432,2.001975009917171,-0.3805822799205601,-1.90159429974913,2.003669463397002,-0.09452469504970472,-0.4312135363059164,0.638236544125497,-0.20773177789682346,-0.03303471892803711,-0.9088054255793226,-0.48177243070604076,-0.9539166718721389,0.39316151780676944,-0.8986893213895503,-0.32578804390978333,-0.9099303727879606,0.9209505993357006,-0.3819349673434384,-0.44417218492034866,-0.6438067744073189,-0.41718907756919993,undefined,1495705715205
903d185fccf839df,-0.005625378634210056,-0.5381829972090145,1.5372021183151556,1.570529497054054,-0.43462332363045225,-1.8731519603729263,1.9136775008792077,-0.695041884962309,-0.4456441464774708,0.5721297821921668,-0.0751897907366803,-0.07459287230663468,-0.7173225824420678,-0.5132507775817439,-0.9476008839051242,0.34062576682867873,-0.8740442141296971,-0.37658458531778105,-0.9313825939081867,0.8696737736975113,-0.4197909184628277,-0.438652990252577,-0.6046279659653746,-0.44115910949383885,undefined,1495705716764
903d185fccf839df,0.055359344508921986,-0.5552064613825272,1.3426086937308102,1.4061141502353205,-0.341465763274449,-1.8580468441361737,1.899281950434079,-0.735889890471719,-0.4273381103761477,0.29355545433711533,-0.11669298149916534,-0.07840636051299597,-0.8348234180035651,-0.5160282913465283,-0.9412850885758758,0.3729554640866917,-0.838033024376958,-0.3756283098037483,-0.9426964373832755,0.9459884677676795,-0.4001756884367116,-0.47847367722581935,-0.6548389678914397,-0.4923621022393583,undefined,1495705718193
903d185fccf839df,0.21336499852715668,-0.6051027654508374,1.4568127560626976,1.4694445982892945,-0.4718061130171077,-1.865675100621663,1.8944904485233167,-0.797944166060727,-0.37866588754011443,0.21548546596693371,-0.14736200982652392,-0.05540362527638588,-0.8957497771836007,-0.4549232734383116,-0.9697061896441953,0.39922328304629395,-0.8170760482753119,-0.35765541420224006,-0.9335655991830947,0.9532103338894055,-0.38883228909138456,-0.4775480050615181,-0.6254078284684026,-0.4899229328982684,undefined,1495705719696
903d185fccf839df,0.34642227515586893,-0.5622506267459876,1.580586853499022,1.70334570293711,-0.35605088179502875,-1.894266512311263,1.9188740066649161,-0.6178231551204816,-0.40336079913866,0.2759838322546579,-0.1290070728711963,-0.049890410612829825,-0.9914911987522282,-0.4826982815784101,-0.9623377568519162,0.44569732531430317,-0.7991626507837576,-0.35187977012212523,-0.9029755426542023,0.956551796780109,-0.3784870833602921,-0.47622412187546465,-0.621507553165531,-0.5309673751067892,undefined,1495705722638
903d185fccf839df,0.34642227515586893,-0.5569674771488989,1.6297138130551099,1.8558233843132026,-0.35258460283130916,-1.895705982052764,1.895658078642371,-0.7719549995948799,-0.3990565895609375,0.31840036695711293,-0.12310635842837075,-0.06993043942654795,-1.0001949643493762,-0.4826982815784101,-0.9612851267511194,0.44973855867009593,-0.7986089742515375,-0.35301969965185576,-0.9036962142173194,0.975676666374417,-0.37571429841107873,-0.4768530903105928,-0.617505695354468,-0.5372377914116964,undefined,1495705722735
903d185fccf839df,0.051201304614274724,-0.5634246859702228,1.740090064654782,1.689093707955829,-0.5909556374813245,-1.9061572799830637,1.966917935375788,-0.3827022245586888,-0.37360944733454743,0.3101940141697561,-0.1872518406981051,0.05106285175554206,-0.8870460115864528,-0.4484424727410208,-0.9233903474133947,0.4436768499600145,-0.7619236588215172,-0.33998650249947965,-0.8691039810289303,0.9192721617547295,-0.3779582148424563,-0.4488604101405108,-0.5689124610110877,-0.5270754521734413,undefined,1495705724202
903d185fccf839df,0.1496083177984126,-0.5387699975931398,2.3455629601367014,2.326492229801405,-0.392801692111331,-1.9189401461081372,1.9188792736044966,-0.6499480795111605,-0.475546599546378,0.6814563089543594,-0.20252429840299035,-0.03163466671677231,-0.6825075200534759,-0.36604327329154557,-0.9444430009649676,0.49823318935128,-0.7948526402138089,-0.2946742915895367,-0.8872956886904679,1.0745346901378825,-0.3268651773949135,-0.5170060076346431,-0.6555975774245355,-0.5194693513204884,undefined,1495705725695
903d185fccf839df,0.45175956186354393,-0.5135283672879163,2.1701093516242804,2.0935345346840615,-0.28762015277558173,-1.8994094751064774,1.9175301734286674,-0.605191270335718,-0.41120387087063137,1.091854511619382,-0.2688653835456906,0.023787029187288915,-0.8000083556149733,-0.3493782166043883,-0.9454956237035306,0.7023145410830044,-0.8086814023940092,-0.28084947436248026,-0.8750232820763377,1.2109495200562483,-0.2888339796277773,-0.5057802707612752,-0.6943993510354842,-0.49608756122919057,undefined,1495705727191
903d185fccf839df,0.4406713864669985,-0.565772716734716,2.191163835473161,2.22027586338643,-0.3307377921881717,-1.933255648946226,1.9947780936963282,-0.14961167990655652,-0.3074715240300102,1.094241420329079,-0.23696611031586734,-0.014116214845238716,-1.0045468471479502,-0.37530157480284626,-0.9560219394359664,0.6780672540071339,-0.8687894264993555,-0.2582598646527896,-0.8566076755858897,1.1766571844032723,-0.2864710355642447,-0.49651342039202884,-0.6691130611803713,-0.47930464599205946,undefined,1495705728755
903d185fccf839df,0.6402575774533447,-0.5540324313862843,2.0680281300537877,2.012236576338417,-0.16060207453209688,-1.934052248100033,1.8639163115540973,-0.9306431032057542,-0.37196985772430546,1.1734749914596745,-0.22249136663394767,-0.004526412185923461,-0.9914911987522282,-0.3327132117203292,-0.9286534979173788,0.7002940657287157,-0.8769026163103674,-0.26960216566612893,-0.8927532001955462,1.310284897782518,-0.26939215924932114,-0.5086433465087061,-0.7111625969520511,-0.43427569245481984,undefined,1495705730190
903d185fccf839df,0.435127264263316,-0.5229205926438624,2.1898878138501057,2.252182091875061,-0.1433838158692262,-1.9099818909994108,1.949855743268087,-0.35163654263563504,-0.28474864805491257,1.156935515870107,-0.13946334080922862,0.041066957997043345,-0.9479723707664884,-0.2947540252950116,-0.9539166939588403,0.7407061731688711,-0.8725145165044631,-0.23732315171477872,-0.8864420778185668,1.4110523236252581,-0.23571165871324787,-0.4830049316750391,-0.7334363077244298,-0.42411034860487584,undefined,1495705731698
903d185fccf839df,0.16208257550399333,-0.6391496937978626,2.191163835473161,2.205376787570643,-0.17088777233876545,-1.9172258253588177,1.8993056102850776,-0.7288309718193329,-0.30111029098819014,1.4927265960986484,-0.20999149094842445,0.0289559936183137,-0.843527183600713,-0.28549564607906364,-0.9770746297987082,0.6558405553444383,-0.8618019880023023,-0.2140305841495645,-0.9056133405076362,1.3922200206711342,-0.23131647989863943,-0.4836724485309506,-0.7291105113884323,-0.46623020356051753,undefined,1495705733192
903d185fccf839df,0.5196743514977548,-0.745399525369803,2.3366305546383677,2.3193768999391606,-0.10600559350760769,-1.9437768227469867,1.9464369966703037,-0.4405573127230313,-0.3156982911101681,1.5144349090615805,-0.17004398951975794,0.0010024020829945926,-0.9436204879679144,-0.2780890204109525,-0.9886535609074731,0.6154285044337259,-0.8302908542569469,-0.18709657578587638,-0.9496652615975669,1.3130412141997911,-0.2398622021726764,-0.48702277685530637,-0.7568942997113361,-0.46824533888759395,undefined,1495705734698
903d185fccf839df,0.3020699876346038,-0.6103859004339299,1.8664164594741657,1.8304550782784355,-0.260188186468781,-1.9209782283131134,1.8911032501394007,-0.8271761593580272,-0.33056834576548716,0.5418397330662746,-0.2401194719381134,0.05725052143310964,-0.9175091911764707,-0.25586896209577553,-0.9760219702489762,0.6376551465669784,-0.7579625947244643,-0.1941514743227244,-0.9563192287779892,1.2291350829301668,-0.2594861194733309,-0.4962612523583777,-0.7137907086761002,-0.4690446977026617,undefined,1495705736201
903d185fccf839df,0.1496083177984126,-0.539944071431371,1.8440854457283313,1.9768545918879146,-0.474624394181694,-1.9414685461470649,1.9498531213210366,-0.5184613377350406,-0.26444439276633136,0.6591142781804961,-0.2061962576428062,0.03094683954900008,-0.6085255124777184,-0.2345748323576152,-0.9991799134510778,0.49823313282183695,-0.7783166391814295,-0.21179505651527167,-0.9699700066332257,1.1264890420446336,-0.2915998800941507,-0.4831120757999252,-0.6668512643101752,-0.4816234500063903,undefined,1495705737703
903d185fccf839df,0.05397326219988676,-0.5804481501437353,1.785388705204756,1.914493268711366,-0.44135016643681446,-1.9492295711194907,1.9098485164638355,-0.7808094465240752,-0.3572892363512817,0.9505136233447954,-0.18462169902063919,0.10854952920732266,-0.45620961452762926,-0.3003090269230313,-1.0339167951241783,0.6315933247980108,-0.7409532729499475,-0.26437748840017705,-0.9978103167995542,1.1213459572672682,-0.3174057661276587,-0.5101227676572392,-0.6798320022407646,-0.45179800823848826,undefined,1495705739237
903d185fccf839df,0.21059297193072518,-0.539944071431371,1.6322656021642703,1.6464100786929625,-0.3711091453861612,-1.9190379737810874,1.9614926482114823,-0.3803216681386772,-0.4335716144537836,1.1963361754850979,-0.13968667076688968,0.14168376581585482,-0.6085255124777184,-0.39289237875617655,-0.9812851575641293,0.7689947501299774,-0.7522674096877964,-0.3421587016603786,-0.9814937539207818,1.053731386462804,-0.36555093230434016,-0.48974772125266003,-0.6575778079355592,-0.40631800464134477,undefined,1495705740696
903d185fccf839df,0.18148662365737492,-0.5487492817891957,1.25392531799697,1.2635545827326,-0.39027139774650954,-1.89188603251434,1.9596254919423808,-0.3940986267705883,-0.4843077756264197,1.1838132965059232,-0.16295527193176426,-0.017533152027037868,-0.6825075200534759,-0.4049281810814871,-0.9402324658373127,0.7588915254168879,-0.7580835753039229,-0.3884841855574406,-0.9618187224573786,1.0061655869579844,-0.3928420921461475,-0.48053124854749857,-0.6296093449343949,-0.37037622012069144,undefined,1495705742215
903d185fccf839df,0.41156510720446765,-0.5786870613073827,1.3024141396730557,1.352610192572811,-0.30435497476332235,-1.86516499931189,1.9666312925596208,-0.3084564689963244,-0.4026081566848508,1.1952884453227939,-0.1518907318547533,-0.016517765782339724,-0.6563962232620321,-0.4354807418386936,-0.8507586643158682,0.9306432929494854,-0.5634659043690642,-0.4396037081670983,-0.890906044980771,1.4987772497509764,-0.2815770769508922,-0.4808398596742004,-0.6032760069411452,-0.19749825023224732,undefined,1495705743692
903d185fccf839df,0.14129216899829863,-0.5328998329979298,0.7766922144266434,0.7525794295437501,-0.4692038379860211,-1.8778896318203568,2.054511519229781,0.2068947146130733,-0.44235936561362466,0.6006341354943023,-0.15126327776616783,-0.08019272277934657,-0.7782489416221035,-0.503992424267345,-0.8191796950318596,1.0882507154720866,-0.5379390850197376,-0.5402151836611313,-0.8570974549041886,1.569440714975086,-0.2988529129698101,-0.46041432338810756,-0.5680863504481222,-0.21457535483428639,undefined,1495705745190
903d185fccf839df,0.01655097215888092,-0.6139079904226582,0.8296474929888454,0.7562729587732983,-0.7989015710531434,-1.8568193340866546,1.940067623156571,-0.6204570653924083,-0.3623613023138563,-0.011436860180612853,-0.1376639887488499,-0.0350444605517126,-0.8348234180035651,-0.5215833318268717,-0.8044428073606,0.888210484037269,-0.6050197527722493,-0.5302661282027152,-0.8770033816525894,1.4052316965995693,-0.3367013705917337,-0.46321811445650696,-0.5630118313685084,-0.18256814600064608,undefined,1495705746703
903d185fccf839df,-0.034731588885921386,-0.6150820496468934,1.072091855506224,1.013899532393045,-0.7367759597404807,-1.918502247158173,1.986065555868791,-0.37254236542517016,-0.4212824525017772,-0.012191695522554488,-0.11878168057742328,0.003492296675127991,-0.9392686051693405,-0.4836241065492304,-0.800232316406348,0.8801280738551265,-0.610600153340354,-0.5802393868108453,-0.8608897255735445,1.3258989036948037,-0.3670160504247628,-0.4634897143900841,-0.5497923025767026,-0.19731902805861945,undefined,1495705748193
903d185fccf839df,-0.17610518684179627,-0.6403236799521168,0.5240401871987245,0.5244722108301285,-0.8628991794788732,-1.968443464352572,1.943099779741263,-0.7355417405913178,-0.30570887214879433,-0.21095554921511633,-0.05590234447345873,-0.01579806357973595,-0.8826941287878788,-0.5641716690078395,-0.8928639861434815,0.7225205948030822,-0.5357094653508074,-0.665943113674504,-0.8718467306723736,1.3533235362058613,-0.4031930759808176,-0.4451134371811863,-0.553960156520177,-0.22733158224814323,undefined,1495705749728
903d185fccf839df,-0.44637798702632636,-0.8199504447452154,0.025115224310363598,0.0333661251967528,-1.0204863446014574,-2.020665008144277,1.9314234471250662,-0.9105522265113003,-0.3029608619337246,-0.469625218052269,0.022537811398511794,-0.011317113992360512,-0.9436204879679144,-0.6224992120035955,-1.0097062218212798,0.37901739891454544,-0.7168853427311684,-0.690571931525148,-0.9383234301326897,0.8718141528892743,-0.5488622363102132,-0.4535823370521123,-0.5894072848135925,-0.42089395799136226,undefined,1495705751208
903d185fccf839df,-0.4339037983315651,-0.9197431259518168,-0.47891407920716633,-0.5371345505384568,-1.1812723588503145,-2.058233308008734,1.983059689986083,-0.642203774898059,-0.3044272821650282,-0.5578771834289856,0.05399579941115265,0.011164692213351205,-0.8565828319964349,-0.754893426105248,-1.0654957644081868,0.5608720237188527,-0.7291550313351752,-0.7466944780619956,-0.9954453941298822,0.6700329267093817,-0.6297771384843637,-0.44157935166470436,-0.5798283219028085,-0.42974499882026296,undefined,1495705752704
903d185fccf839df,-0.7901096300379303,-0.853410343480123,-0.5593036955965738,-0.585618071802194,-1.302592153422531,-1.980525229520638,1.9751623823283406,-0.6714492832178531,-0.30124737172532184,-0.6473758061657201,0.07825855271302798,-0.00045888409906730954,-0.8739903631907309,-0.8474768297414914,-1.072864197200466,0.4234707397104937,-0.7786561483332706,-0.8416316367353152,-0.9638897783055974,0.3532099096596146,-0.7219339816605144,-0.43344198162392333,-0.6072929471873624,-0.45771856278943296,undefined,1495705754198
903d185fccf839df,-0.34935691812958475,-0.7195708069964774,-0.6154481387370901,-0.651046803996064,-1.1202164605857972,-1.8724555173634077,1.9620080991180529,-0.5824829016232462,-0.2431243864107858,-0.7390991069537513,0.044222323429438076,-0.10450286504159832,-0.7738970588235294,-0.8678451863119296,-1.0781273697911515,0.37901739891454544,-0.8029302595032344,-0.8528346144549682,-0.9512745278728714,0.24284925220960155,-0.739301548750629,-0.46712461407380773,-0.6423171465518309,-0.5043015221880487,undefined,1495705755690
903d185fccf839df,-0.3618310723189363,-0.7148746577835139,-0.5688734765640614,-0.6612331840510326,-1.1506106957485798,-1.8159178937363696,1.9652164677238755,-0.5008585550204441,-0.28358281736589896,-0.6480749195987713,0.02630875054864746,-0.14276929750090875,-0.2647267713903743,-0.8252568232294126,-1.0697062995358417,-0.05137211627048506,-0.8391340898744442,-0.753375735186374,-0.9062640425244771,-0.08660048566355841,-0.7370864855747317,-0.4004359441505676,-0.7344026831876749,-0.4442309996828309,undefined,1495705757193
903d185fccf839df,-0.46578215594864203,-0.6303444980540341,-0.7838829929803357,-0.8695254633917305,-1.2832241875595272,-1.7152178950823707,1.9363964196163648,-0.5831534319229245,-0.38918178826938055,-0.6021978069971293,0.00851315193327747,-0.1259972201390226,-0.30824559937611407,-0.797481789187765,-1.0202325670026506,-0.42316401631137496,-0.8004284837124469,-0.7821209666986194,-0.9558504416356827,-0.5200051326621309,-0.8529570991900959,-0.35602797823672433,-0.6227444891441445,-0.3508483863245883,undefined,1495705758698
903d185fccf839df,-1.0770146760645738,-0.8827611810701694,-0.9389197472499795,-0.9730054107527968,-1.589048816337983,-1.66662297874211,1.9401517810574946,-0.5776681576701532,-0.3953710372315714,-0.5737869035027428,0.03669706017021526,-0.10597390259668361,-0.9349167223707665,-0.7660034390743683,-1.0233904499428075,-0.6595751076981946,-0.7845548085455138,-0.8371035837777131,-1.0145606811819308,-0.7374003856478141,-0.9385444850053589,-0.3147443648090803,-0.5708831337251316,-0.37627040901356784,undefined,1495705760235
903d185fccf839df,-1.1352272690950451,-0.9807926857564411,-0.9446622257591507,-1.0118553125310856,-1.7700873705382312,-1.6081381112249842,1.9213591814132798,-0.6749274551585076,-0.2746108652801734,-0.6807341366065717,0.08192421796816944,-0.09009321466469951,-0.9175091911764707,-0.7687809301752973,-1.0507589153886547,-0.8656770937732663,-0.772390165894775,-0.8492438372391334,-1.0439123023936314,-0.818103637370214,-0.9693031222224493,-0.2884284077865469,-0.5613831978323431,-0.3614447006796025,undefined,1495705761838
903d185fccf839df,-1.198983949823789,-0.925613217477046,-0.968906890734143,-1.0179054789426751,-1.7617765273111434,-1.6182213875032665,1.923741788588952,-0.6750183261785836,-0.2742387799249649,-0.6811358562179335,0.08346225512577889,-0.07942662547042587,-0.5954698640819964,-0.8743260129107696,-1.0791799962108313,-0.8919450222586646,-0.8403939916155794,-0.8959999602875116,-1.0673236316971004,-0.8449585254881107,-1.0031475559990148,-0.2825042694912424,-0.5474505260505156,-0.33854173857377967,undefined,1495705763191
903d185fccf839df,-1.162947552312065,-0.9385276058917011,-0.86873881211891,-0.9325718553322915,-1.7195228842852208,-1.6635903081270536,1.9278285000288926,-0.7083375594381937,-0.31287952095115956,-0.6604254118020114,0.07913907697519224,-0.01610707788121864,-0.7608414104278075,-1.0020910908263931,-1.237074927296563,-1.0818821561716396,-1.158897285191647,-1.041353682574412,-1.193881947189227,-1.065448867475889,-1.1677650651105815,-0.42522124934074745,-0.6360295681630748,-0.4994852542505591,undefined,1495705764696
903d185fccf839df,-1.017416017977772,-0.8539973877062367,-0.6894573928742738,-0.7951210450529448,-1.5515163091509516,-1.7394536295532688,1.9493902926717837,-0.6338379845212866,-0.3381009134488534,-0.6757917284111454,0.04246559799413943,-0.028925603095211944,-0.8913978943850268,-1.0141269239097932,-1.1876011855605797,-0.9262953326614837,-1.0546417188615402,-1.0652858764101498,-1.185898586456069,-0.9189172617398607,-1.1430960513353157,-0.4340796878779252,-0.664627292823241,-0.48997426889007845,undefined,1495705766195
903d185fccf839df,-0.6085416809392084,-0.6673264429356816,-0.5561132603335125,-0.6379405695734705,-1.1659055260564728,-1.838402041101892,1.9646405318614018,-0.5680131730158079,-0.4074811197629011,-0.6726790869344338,0.02308874675826908,0.025416181631479514,-0.7738970588235294,-0.9965360843418329,-1.1591800863328188,-0.4858028506789476,-0.9751613532587586,-1.058591954550043,-1.1574985314196065,-0.6132427220068276,-1.0659679410343421,-0.4432867862512752,-0.6600469272592862,-0.44893180775577274,undefined,1495705767710
903d185fccf839df,-0.5766633405748363,-0.8041010251819418,-0.3640721331322262,-0.42845509379368363,-1.056568568806143,-1.9440167346369497,1.9957748185396602,-0.45235128903716953,-0.3012597428109751,-0.7114705580068723,0.056495374011082504,0.09459635292949686,-0.8130640040106952,-0.9354310534828417,-1.1149695190280793,0.16079165977574256,-0.8022035397311869,-0.9835592381094531,-1.1246065235372833,-0.10159857520345203,-0.91668387616176,-0.4428343222550247,-0.5345990507415368,-0.40786183775332796,undefined,1495705769205
903d185fccf839df,-0.5697332740837575,-0.8352128493103677,-0.31813484642835127,-0.39272260806227105,-0.8628374653726621,-1.97530307588733,1.9968503940147473,-0.44233993590475845,-0.21521188096366958,-0.5845702815099466,0.12179273048801482,0.009963687876565137,-0.8391753008021391,-0.8502543240801139,-1.0476010122023551,0.34466697191975,-0.6464413055980248,-0.9148657974981893,-1.0811073501212354,0.30592128423256104,-0.7831505672384158,-0.46614983972753493,-0.5041544874735687,-0.44298344465032713,undefined,1495705770712
903d185fccf839df,-0.6113137420410496,-0.7618359307032058,-0.0903651137815281,-0.10347281005735079,-0.9729252816656231,-1.9676305607756694,2.0131788641472,-0.33884058105764836,-0.21023499992048655,-0.6119350702419325,0.20447104451625173,0.012455701736968016,-0.9001016599821747,-0.8437734748174186,-1.0549694449946343,0.8942723623356796,-0.5955026548304869,-0.8776787521138103,-1.0583607179428067,0.7030625918281839,-0.6729772040973605,-0.48152158821546365,-0.5202925633314232,-0.495319312813509,undefined,1495705772245
903d185fccf839df,-0.47271220518701595,-0.7266150015879301,-0.3277051356697377,-0.44629481380829056,-0.7894695867828455,-2.0085646110159177,1.9932317834012487,-0.4625461413589659,-0.28089912516962984,-0.6322063423439676,0.2066264009458475,-0.04917187492824242,-0.9305648395721926,-0.858586839472918,-1.0065483388811232,0.8336541446460034,-0.6121321646735076,-0.8895783534165098,-1.0321016865513595,0.7345216163999773,-0.6582886997989821,-0.49097635887004465,-0.5083880567459902,-0.5657034205040377,undefined,1495705773719
903d185fccf839df,-0.5156787554533432,-0.9332444782156067,-0.6294846307276434,-0.6588207092021046,-0.8332352269553399,-2.0727304924549057,1.9969555861532928,-0.49233473214478607,-0.2806154724024761,-0.6575514498976618,0.17248520371216527,-0.06347050890663086,-0.7869527072192514,-0.8909910113194415,-1.019179933220737,0.9468081698432135,-0.663469934727825,-0.8877101353970992,-1.057164263013744,0.9434785246332107,-0.6123424390719,-0.4790090748525376,-0.5502172167537781,-0.5987983462157507,undefined,1495705775230
903d185fccf839df,-0.582207428273109,-0.9755096019223352,-0.7239102308337052,-0.7469919309935567,-1.014006350751994,-2.125196606476383,1.9814660280395915,-0.6827070417244703,-0.31897942330375334,-0.6490685494111067,0.08723489318248201,-0.015724295071732473,-0.7434338792335116,-0.9122851993360872,-1.036022051644655,0.484089013929613,-0.7082732402057293,-0.9081718762637259,-1.0761536076474072,0.5740236247232466,-0.7104415614707532,-0.473550853005525,-0.565890679688107,-0.5993016882740416,undefined,1495705776701
903d185fccf839df,-0.8552522895594804,-1.0236448829172755,-0.7851592687403399,-0.8407156492477542,-1.323050404131863,-2.090789084599776,1.977495017476834,-0.7496125309335302,-0.31837361868337394,-0.6466231064242565,0.08172844172716683,-0.06526904727796808,-0.8174158868092692,-1.0039427391491869,-1.0897063303488517,0.5911810760342477,-0.7743195612335839,-1.005198907075888,-1.1252642230439949,0.18675272100871337,-0.8526198139514225,-0.47041810222576563,-0.5547486659008732,-0.5337885878569321,undefined,1495705778207
903d185fccf839df,-1.0797866854083005,-1.000751254148553,-0.9140377068058333,-0.9594172828511371,-1.5118340868837343,-2.0359355014296563,1.9754332494662916,-0.7633616419100006,-0.31142868246322725,-0.6616113925468349,0.08092651843252838,-0.04481524564032034,-0.8826941287878788,-1.0428277813034141,-1.1591800936950525,0.19514201610873422,-0.7791001171774342,-1.099566101072929,-1.1867521974931308,-0.32730898259131685,-1.0250008645198114,-0.46592534711002054,-0.6134627169343883,-0.5182763754683176,undefined,1495705779697
903d185fccf839df,-1.2447224404230237,-1.030102062510607,-0.9421101825130409,-0.987238944408025,-1.6097333521080894,-1.9698875948766006,1.9975288717856283,-0.5860871444524693,-0.29404320744527296,-0.6776622071057458,0.08634116010796496,0.012203555988977216,-0.678155637254902,-1.0539377797029132,-1.2402328231206288,-0.5161119383252446,-0.9633280958168144,-1.1160824178679771,-1.24027080402341,-0.5518337164648217,-1.1035739566522373,-0.4635963557530537,-0.6249512087879596,-0.49646518242035087,undefined,1495705781198
903d185fccf839df,-1.1726496626522802,-1.0764763058181812,-0.680525495649839,-0.720286361459466,-1.6931914982843292,-1.9242531403703922,2.094595015048326,0.08635793118262979,-0.28617067539378427,-0.717800163084602,0.09077813817531176,-0.19863921345134586,-0.5693585672905526,-1.1187461557728962,-1.2760223440973184,-0.9990372256869069,-1.253052086913156,-1.145283621109065,-1.259491043581164,-1.0314644973527993,-1.2362108572988297,-0.46562657684463077,-0.6502862206811805,-0.5104592300940992,undefined,1495705782697
903d185fccf839df,-1.1158230656673196,-1.091151680771216,-0.6256563117215292,-0.6725199066605662,-1.7219194501347777,-1.9122249490330632,2.082724072785733,0.015632755517329688,-0.285943423441433,-0.7065637098502932,0.08455691278401961,-0.5154778769723115,0.5621309603386809,-1.1446695010205796,-1.3160223965205458,-1.1182530726530846,-1.3298318663282616,-1.168696513651843,-1.2782075124438272,-1.1184965119710346,-1.2690806672828205,-0.4694097214644311,-0.6646278193446399,-0.520619365624296,undefined,1495705784343
903d185fccf839df,-1.174035675950496,-0.9379405908935798,-0.4412708059846735,-0.5046252544686826,-1.7817822071147211,-1.8602363292193194,2.006328205697727,-0.4409463459720367,-0.2883978189381598,-0.6946493940159569,0.049059400239261274,-0.892409674040824,4.23947192513369,-1.1409661639038218,-1.3202329242859667,-1.1182530726530846,-1.3366708908904124,-1.162578889815869,-1.288765700154606,-1.154960030693605,-1.2800052121788899,-0.47023258640814614,-0.6640712958231497,-0.5207557803698795,undefined,1495705785733
903d185fccf839df,-1.1435433661370444,-0.9479198458616434,-0.7928153984786693,-0.8421531850706031,-1.7386337089985955,-1.8287962587939577,1.8926811416452847,-1.164794073732449,-0.29139413295058647,-0.680148443321719,0.0720482848369609,-0.8966404001517483,4.713827150178253,-1.1372628300247576,-1.2949697365270183,-1.057634833764867,-1.3215576410929861,-1.1593807531978828,-1.2728549522210422,-1.1218379745386429,-1.2655258455498772,-0.47180504859766687,-0.6657531283697714,-0.5216111329933356,undefined,1495705787192
903d185fccf839df,-1.0160300391849661,-1.029514989056501,-0.7468786200486932,-0.7978434040371262,-1.6064830727441681,-1.7860547189605178,1.8676637903937277,-1.2699939554008775,-0.2741052443603634,-0.6616749672121578,0.08715368735323402,-0.6435750507514126,1.3324142156862746,-1.1261528235310247,-1.2654960210026487,-0.9141716926566387,-1.2379673453110251,-1.1463982186869126,-1.242670709836023,-0.8948648891046355,-1.2012586734746389,-0.4711546685793186,-0.6551419749831441,-0.48556481241877275,undefined,1495705790543
903d185fccf839df,-0.7249669532636753,-0.9737485642349691,-0.7762273715159052,-0.8090527859920222,-1.211738591557758,-1.7699317246242616,1.9281125167079223,-0.7327317617896212,-0.31183790870986644,-0.6682604985348312,0.07737021721099942,-0.3420313591267892,-0.24296735739750447,-1.1057844831490546,-1.2265486005207766,-0.7686879136719726,-1.1429588676693057,-1.0674707421006566,-1.1796364408927207,-0.789354739546987,-1.1197006075788278,-0.3963578277906282,-0.5978560682167792,-0.4447844610046837,undefined,1495705791694
903d185fccf839df,-0.6833865370644979,-0.7530307495733735,-0.48976013593465817,-0.47428763509334754,-1.1046336259455727,-1.7433597633732398,1.9486197534480436,-0.49696783682945533,-0.30571299163940174,-0.7294099976134665,0.028711970434495047,-0.08472535465613158,-0.5737104500891266,-0.9058043597864728,-1.110758994943775,-0.3968961054914277,-0.7713434804373629,-0.9286399503453266,-1.0984804319011654,-0.5939022727896538,-0.986479023351508,-0.36591054856016164,-0.5578175133246522,-0.448911888902233,undefined,1495705793202
903d185fccf839df,-0.5794353326658581,-0.34975100744409515,0.1482511838666858,0.05615779045680571,-1.0568051370473008,-1.7346740303611052,1.9536058660527253,-0.3990898284308326,-0.3799888858452759,-0.7411868275621858,-0.018080588465749507,-0.15345030885066593,-0.6650999888591801,-0.6993434130627446,-1.0265483549696655,-0.32011298970948227,-0.8144599006429171,-0.8218601862367609,-1.0349353956231735,-0.43013980492990417,-0.8850685147711783,-0.3709375026691957,-0.5532291771497585,-0.49523341861634074,undefined,1495705794735
903d185fccf839df,-0.6736843404607584,-0.38086280234452874,0.6541943927503233,0.5752546944518563,-1.0920439326884657,-1.757109262837319,1.9165913409247979,-0.6741972766627481,-0.4449554441844602,-1.051286489885892,-0.01616651593097797,-0.039019495605167036,-0.7608414104278075,-0.4854757694416454,-0.9886535535452393,-0.0897637059592695,-0.7040149020239306,-0.6622003421562123,-0.9935212724967837,-0.1480248829063936,-0.7355674531367854,-0.40529453872914223,-0.5033708655185712,-0.5499001797884305,undefined,1495705796201
903d185fccf839df,-0.5420130081194425,-0.481829440477392,1.1792776718428348,1.0922638850582895,-0.8296763729232857,-1.8190227699648702,1.8905352241139928,-0.8669285877715788,-0.46830410932167266,-1.1987883222644344,-0.0051824860491091395,-0.06365426920935223,-0.7695451760249554,-0.2521656363109454,-1.0076009395329848,0.19110081101766296,-0.4599938152317791,-0.40619109470079867,-0.9602794242235533,0.37338188121778626,-0.5004065244177176,-0.4615946667626752,-0.4198230476876495,-0.6644020529409992,undefined,1495705797698
903d185fccf839df,-0.5822075317893383,-0.5270297414727005,1.5250797858276595,1.4702135946386408,-0.6463235349868865,-1.8327023923457373,1.8922104104916178,-0.7969000507760288,-0.5042985020045516,-1.2771448848519036,0.011718839565220476,-0.0264211103949536,-0.843527183600713,-0.2271681548864059,-1.0065483388811232,0.5972429260679368,-0.3801479166614779,-0.30475633568713173,-0.9493574024756456,0.5259650798509637,-0.41940511822675897,-0.4622296657087989,-0.41397220457412487,-0.6860328704089227,undefined,1495705800245
903d185fccf839df,-0.35074296593321025,-0.5334868772240434,1.5920713022434654,1.493192576265339,-0.5238620259068434,-1.845843959714802,1.8833532282359715,-0.8229640412837768,-0.5337121092909491,-1.4115179363731405,0.010767240314389094,-0.004991619339372892,-0.7869527072192514,-0.2567948129681449,-1.0023378111157022,0.8033450075364438,-0.37535373087981777,-0.2882780160669211,-0.9649532933936917,0.5885751588470924,-0.406308788285343,-0.473327449054695,-0.39816502113877483,-0.6729183395725766,undefined,1495705800709
903d185fccf839df,-0.13036664448444724,-0.5880793305053171,1.8255832592625103,1.798698327469839,-0.45631585141268827,-1.884600171066635,1.9484330431634949,-0.404249847113564,-0.4621554026772683,-1.1647654690911797,-0.06523806672286392,-0.09215930824511318,-0.7303782308377896,-0.05311132496840934,-1.0002325582763423,0.9589318133811486,-0.2932136125860211,-0.15958626661864922,-1.00587064350449,0.6849694281485846,-0.33503698121087294,-0.43676534396261735,-0.4256393384703764,-0.6128276184352658,undefined,1495705802253
903d185fccf839df,0.027639009533787468,-0.5111802780674384,1.1403593935450849,1.1486927652694836,-0.3216657849984077,-1.854597241562606,1.8506016181889404,-0.9612224053356858,-0.48527121001752627,-1.1136166212605,-0.06699664510985585,-0.023347443048716672,-0.9001016599821747,-0.0901447123244558,-1.0223378345664782,0.8659838136392949,-0.373999862090828,-0.14932056549894673,-1.0215434990669119,0.8533052323269218,-0.3037746115477828,-0.4276333394058468,-0.5152492439849642,-0.5952352627934325,undefined,1495705803703
903d185fccf839df,0.06644738188382854,-0.4824165139314981,1.2105403286761542,1.1464811131573185,-0.41787820315834245,-1.8754858574585407,1.9383056443607105,-0.43878686463444944,-0.45890215113385363,-1.403698679504249,-0.07420865236455854,-0.029119074653510806,-0.8739903631907309,0.04595282756202675,-0.9928641181218294,0.7972831009733116,-0.4846096302543767,-0.017437013749459156,-1.0174993419764664,1.0415974202689433,-0.20099765650891266,-0.39320738559264345,-0.6582254235276492,-0.5823145792213416,undefined,1495705805205
903d185fccf839df,0.14545024339835563,-0.46010990016089687,1.257115499123082,1.190862884049837,-0.5030232073598575,-1.8865078175516088,1.8596849677325478,-0.9908947544782697,-0.4079882592472029,-1.3742551749782643,-0.10043373103680919,-0.042943946827377934,-0.8565828319964349,0.024658671922317316,-0.9823377766215754,0.5204598880139757,-0.4568414381759491,-0.0549407087870607,-1.0205219637185383,0.9163002690397813,-0.2478792898483315,-0.3535633486906276,-0.6429464729205565,-0.5836614710260358,undefined,1495705806716
903d185fccf839df,-0.18026322673644352,-0.5317258322296793,1.7247778051781233,1.6674903423681788,-0.6250938622390346,-1.9122808492774925,1.956698512830929,-0.4087091741342192,-0.420705230944678,-1.6762761577966714,-0.07587569628708604,0.029696911347740676,-0.7695451760249554,-0.097551363894116,-0.9160218962155311,0.39922345263462317,-0.47049693107076956,-0.07219797899576384,-0.9819135615028967,0.9381814562629701,-0.2552571018157278,-0.31819569838664796,-0.5756934868760383,-0.4382003941453449,undefined,1495705808204
903d185fccf839df,-0.1178925593059152,-0.6438457845548413,1.9589279000771704,1.8395149420471097,-0.6033910408276938,-1.9182273976290323,1.9734819295348962,-0.295369953389117,-0.39094581555781943,-1.4882467631403622,-0.2214908139154781,0.024390208064071786,-0.7826008244206774,-0.05774055342870697,-0.8791797580219539,0.3729555206161348,-0.5196731748692187,-0.039811306092621325,-0.9378266563585826,0.791249486125831,-0.2605708451458539,-0.303937772304456,-0.4854782279617091,-0.40732731402643074,undefined,1495705809698
903d185fccf839df,-0.033345644598525105,-0.705482447041564,2.5005994602693957,2.3505791088106514,-0.3362920492659119,-1.9237057682114476,1.9163993647481907,-0.5847202204533489,-0.42599786168677817,-1.3896635799746395,-0.14193431617972269,-0.0007436456458928205,-0.8826941287878788,0.053359608639432426,-0.861284980048304,0.37295563367502094,-0.38672524133050495,0.055778147019682804,-0.8863371252822758,0.8927252456017031,-0.18378314345349728,-0.2772288319036873,-0.45261294285504267,-0.39922855919495553,undefined,1495705811191
903d185fccf839df,0.1121859587465873,-0.7013733420547144,2.489115519798851,2.3826866820891577,-0.3097755221607034,-1.935587217127862,1.9757672360774574,-0.19449827285575227,-0.4118751748542579,-1.3411385794313468,-0.18625988393310752,0.026098112158338106,-0.9088054255793226,0.08113456497643272,-0.7865480588358852,0.4133676845857333,-0.26021657667274906,0.1488154224236849,-0.7939862178053175,0.9523634263498739,-0.10565770609625133,-0.2901126503593507,-0.4521483326782481,-0.42137008986872965,undefined,1495705812703
903d185fccf839df,0.13436217151803934,-0.7213318519908415,2.291331914088394,2.2699603808558373,-0.3642280035746925,-1.9254014543076852,1.8866851876531283,-0.8147090331479023,-0.33239103434297956,-0.9969253622475933,0.07080600795111584,-0.060081392234494956,-0.7738970588235294,0.04965625695305323,-0.7591796173172977,0.6214902696732504,-0.2949813597547098,0.21422840019772288,-0.7404326276182639,1.1226702298894715,-0.02781613078860267,-0.293971401694176,-0.5447461637625982,-0.3820011260046038,undefined,1495705814257
903d185fccf839df,0.13436217151803934,-0.6690874587020533,2.469975195453028,2.4603823151949697,-0.3495091717868198,-1.9068444048261304,1.9518097034781634,-0.3797877901213682,-0.261662242005761,-0.8747202085361694,0.23393403542539357,-0.006614723293077588,-0.5867660984848485,0.09409621817411261,-0.7770743658420125,0.6760467221234021,-0.3336808047196195,0.2566527897486182,-0.7441199473968183,1.094090715787355,-0.007928100877437007,-0.3459693167394542,-0.5464639825810922,-0.35295224710611034,undefined,1495705815710
903d185fccf839df,-0.03611774020577608,-0.6544120837490186,2.592473271266297,2.6557400558206323,-0.4333273220226204,-1.9225318318486027,2.0634028836928464,0.2813256280272591,-0.26381407976132754,-0.8271244527948766,0.3587961792646891,-0.04687616319854849,-0.8826941287878788,0.07743110968385715,-0.7549690601029414,0.7508092848230746,-0.42025510930257537,0.27629758024968154,-0.7247037966390353,1.1214075572821023,0.01011997088492738,-0.34479009477946554,-0.569049165137116,-0.3544874202396486,undefined,1495705817212
903d185fccf839df,-0.10403246082916741,-0.6409107387922267,2.388947441183618,2.5699830702983304,-0.3718085664691318,-1.9304978297145468,1.9704024239175972,-0.30248778109864816,-0.3143082456924889,-0.950159180386319,0.1980033841972772,0.05175896167623631,-0.9436204879679144,0.03484279840443827,-0.6981269242264064,0.7912212792043439,-0.4679670948646591,0.21615361476559658,-0.7072887345749659,1.1569471698971618,-0.014748739436353603,-0.33287416015994314,-0.667672043732391,-0.21709042398930548,undefined,1495705818704
903d185fccf839df,-0.17610515233638652,-0.6790667282841131,2.364703030345575,2.3270794356712146,-0.35977430450305325,-1.9401478681443232,1.9747941946543641,-0.2735428068708159,-0.35889886613627797,-1.1946943547412507,0.14400984717323706,0.04091261004943316,-0.9349167223707665,-0.025336316828310855,-0.7476006493973637,0.7730359269563272,-0.5028365377470896,0.19845303446878326,-0.7127182607267094,1.1105824487332827,-0.04434194459342371,-0.26120619247293786,-0.6098935646071885,-0.1701067154031081,undefined,1495705820198
903d185fccf839df,-0.17194711244173927,-0.5599025521395059,1.5939852076095729,1.6324519486715805,-0.44881758481134804,-1.8544248774047398,1.862785509158752,-0.8989949485277238,-0.47952916440889454,-1.118828956634223,0.08279728146006209,0.034642301994061306,-0.7216744652406417,-0.06792470581237701,-0.7833901464467934,0.742726705052603,-0.49498627564551667,0.07705050406798253,-0.7637879833767468,0.9783867974847716,-0.13815190526862756,-0.3145687991235012,-0.5561698156320538,-0.19716673690952854,undefined,1495705821701
903d185fccf839df,-0.02780155690025236,-0.434281254857552,1.4127901371357785,1.387320932713448,-0.5769053714297613,-1.775803737839092,1.8801132967509764,-0.7146937384232361,-0.47858651364452526,-1.1313409342556555,0.08632481914381901,-0.027362763553564016,-0.5780623328877006,-0.054963052614697125,-0.7591796025928301,0.7023146541418905,-0.498031816359743,0.07209814366806522,-0.7795657917813128,0.8705206839160428,-0.1574503465550233,-0.3451693834069612,-0.6067498724563954,-0.23234030519579074,undefined,1495705823198
903d185fccf839df,0.0830795759678273,-0.40786557994208955,1.329210339620259,1.3742196415529477,-0.5796002271626499,-1.772437987068262,1.8721476183932666,-0.7612693101389283,-0.3920139647436651,-0.9222487621242226,0.12191409199859506,-0.02816287475673482,-0.3517644273618538,0.006141965293519536,-0.7549690527407077,0.7386854716968101,-0.45650473413604425,0.09116030619665469,-0.7707917909358425,0.8640225412974031,-0.1424263590751357,-0.29656877526852815,-0.5766217845724149,-0.21827681774939287,undefined,1495705824711
903d185fccf839df,0.07199153859292075,-0.505897143084346,1.9123532379041417,1.8242486338106578,-0.4096085090130479,-1.863844321403378,1.8784065543030701,-0.8112030061955474,-0.30544793525213604,-0.8414687435217301,0.21615493809246164,-0.08695506798772287,-0.7042669340463459,0.005216166224248379,-0.7549690527407077,0.6598818452296741,-0.5142707339271133,0.07445400082552482,-0.7614370546652668,0.9064760571698397,-0.1434174638639837,-0.28551264657887143,-0.5446524691959832,-0.2527697233993092,undefined,1495705826226
903d185fccf839df,-0.09848833862548494,-0.6726095633047778,1.9365971404682858,1.8842913435285564,-0.36493772779724504,-1.9277027429521145,1.8710536232949553,-0.9392760139474167,-0.1945009966659196,-1.1024429780096223,0.39759975814203996,0.028569346619040373,-0.7477857620320856,-0.04477892613257617,-0.7676006728481398,0.7892008038500552,-0.4655598683067455,0.07202215178220596,-0.7811610643736933,0.9488987738358666,-0.140585394077187,-0.3360001697620487,-0.5235291598900507,-0.24384350105211672,undefined,1495705827744
903d185fccf839df,-0.20659751390795256,-0.7037214020471999,1.8517420837405596,1.9332855964716635,-0.3815697030992799,-1.907310253885625,1.9329934507918416,-0.522190198251183,-0.21393186571899697,-1.0216634486893845,0.4925512948606057,0.020205797740900224,-0.8087121212121212,0.0015127627347709973,-0.7654954126465462,0.6679643119412596,-0.39886059017470454,0.1002037489540806,-0.7816438445994518,1.0136492352950996,-0.11991977708247838,-0.3070144826589476,-0.4631717880044982,-0.22978873970861347,undefined,1495705829203
903d185fccf839df,-0.2149136282026568,-0.7301371061906546,1.772628488974207,1.7177730933215656,-0.49976264756226835,-1.8952098557968498,1.8531472789407286,-1.0826180908406515,-0.20348977286813671,-0.6333910851193124,0.5201495921113091,-0.01899035035236292,-0.847879066399287,-0.04755634924193874,-0.7318111537120088,0.6659437235280848,-0.49391258407081634,0.14400238686218356,-0.7804333958957093,1.1357743082027942,-0.0767188909072624,-0.31408094988973095,-0.6196319053191055,-0.17069698273169337,undefined,1495705830776
903d185fccf839df,-0.21352754589362158,-0.7248539419795698,1.5990892941017925,1.6604341023445277,-0.6953760376528567,-1.9060478054304073,1.9017197861012924,-0.8856626594767492,-0.17859356497358062,-0.2155783006875225,0.4790582216694906,-0.02945504211582214,-0.9218610739750446,-0.08458965889333792,-0.7697059330497334,0.6033048608957906,-0.5497544502139831,0.09062200482137653,-0.776039399356384,1.04547782515583,-0.12354160773618705,-0.33265065334680194,-0.571164618893575,-0.19558787146305373,undefined,1495705832202
903d185fccf839df,-0.10541843962197342,-0.7465735553660459,1.7483840781361641,1.7493208438784924,-0.6499543966342249,-1.9163966160223922,1.9146663221706044,-0.8059924399618722,-0.2223286398942626,-0.5582371064448485,0.35698395848354597,-0.07193228590533088,-0.8348234180035651,-0.13828802523189437,-0.7928638468028999,0.5689545752246028,-0.5916542747943243,0.09459275623833184,-0.8051531304847235,0.9264170451132279,-0.14820917846212,-0.3384372706699222,-0.6363428953875925,-0.24806351242028551,undefined,1495705833707
903d185fccf839df,-0.008397301714412357,-0.698438237836115,1.5799487156190197,1.5058141118431831,-0.606291610083243,-1.9392627570123058,1.8702462673464855,-1.09461404265158,-0.2930933195903388,-1.0022314146524927,0.33992777824342163,-0.018815795386304013,-0.678155637254902,-0.19383811921673863,-0.7644427751835156,0.5830986375873837,-0.5584463239057522,0.01059259246410472,-0.8117301329595995,0.8453442247901635,-0.20619273126429738,-0.3492408800635756,-0.6543023544677151,-0.22094177882220234,undefined,1495705835194
903d185fccf839df,0.01932296424990269,-0.716635702777878,1.5799487156190197,1.5242690805671255,-0.6211338669787291,-1.9481884024806864,1.9036605868188328,-0.8722330756362605,-0.3022302249889878,-1.1674253319561037,0.2927925967613187,0.05054688693330149,-0.7042669340463459,-0.11421639467972418,-0.833916553254184,0.3911410424524807,-0.6062600408346511,-0.04063458847170217,-0.8192517055145332,0.7401882420625429,-0.24629725931207216,-0.40509900945032845,-0.7569598572908111,-0.28201845897454436,undefined,1495705836688
903d185fccf839df,0.05535931000351225,-0.7448124957576855,1.7037230671922936,1.6431318359563094,-0.6285704287562761,-1.9785942902167348,1.8650602907260883,-1.148090326443239,-0.31705489186258945,-1.193075746419369,0.2695573289378648,0.11731678168863388,-0.40398702094474154,-0.16235975939026095,-0.7602322474180945,0.1809978689517887,-0.592971514451124,-0.046251909164739,-0.7859398886615223,0.7221412663419369,-0.24396376580775272,-0.3631821351441514,-0.7818317377190795,-0.2490479169936655,undefined,1495705838203
903d185fccf839df,-0.12759461788801574,-0.717809747388117,1.8606739809649944,2.2471383729018286,-0.662955514141925,-1.9824328767666959,1.9621237931863438,-0.5246208865982549,-0.24839575547086326,-0.9757828563040044,0.2052355817401394,0.022789764497596763,-0.517135973707665,-0.16976646276301935,-0.7518111771627848,0.23555420834305427,-0.6214354433125998,-0.060862014541544884,-0.7719252769282005,0.7365542109431032,-0.24549338353252922,-0.36299340931382074,-0.787694377947399,-0.2724365509485354,undefined,1495705839738
903d185fccf839df,-0.03611763668954687,-0.7324851807971363,1.8204791727702907,1.9618563410696466,-0.529694027426598,-1.9832364635661255,1.989221304312339,-0.311674906829729,-0.1949702139620448,-0.6286892256065274,0.330135396639967,0.07649313462970436,-0.8304715352049912,-0.15310145787896023,-0.7707585925994653,0.3062754811574909,-0.6057801360622147,-0.05722057086954133,-0.7830012277691137,0.799718631754017,-0.23496260443827413,-0.3758397261138411,-0.6246567099246332,-0.21658322795166884,undefined,1495705841224
903d185fccf839df,-0.03473162339133112,-0.71487467239751,1.862587886331102,1.9978192807201023,-0.5393728636165667,-1.9711849804572639,1.9800774692890681,-0.3815375370235913,-0.20396662036936702,-0.45723635412679253,0.34066375176480407,-0.03243076459546848,-0.8348234180035651,-0.19198644337354903,-0.8307586703140273,0.20120386614242336,-0.6169481659691586,-0.09808072254037771,-0.8178523426785551,0.8497327835732292,-0.2591459911962647,-0.36813535443867107,-0.5587491530089377,-0.22656146752892126,undefined,1495705842711
903d185fccf839df,-0.02502949579841112,-0.6872849382578124,1.7579541132406011,1.7384497324713448,-0.5894024918511152,-1.9253152722504976,1.8558112447088788,-1.141257363380784,-0.26118281208041966,-0.26671707704911324,0.19139177254678022,0.009662887708644345,-0.8739903631907309,-0.18735726671634959,-0.8539165472560248,0.2133273966214725,-0.5863749391707347,-0.1238558043371829,-0.8329654541538267,0.7579734490300688,-0.2880499151494813,-0.3823027348367535,-0.5605674346247939,-0.239892386917529,undefined,1495705844224
903d185fccf839df,0.06506136858561277,-0.656173143357379,1.687772923972582,1.796045547322948,-0.547045991570734,-1.9111395224820564,1.9707889976941004,-0.3495259065406583,-0.30342967329610915,-0.3867259267836421,0.22681509551436177,0.04094998271276634,-0.9001016599821747,-0.13088142546533238,-0.7876006962989158,0.29617242603273053,-0.6166911652135919,-0.07122904142574915,-0.813661253318215,0.7825493688239297,-0.2496514503570444,-0.38379246631825376,-0.6212478482139325,-0.23736331452260057,undefined,1495705845705
903d185fccf839df,-0.18026322673644352,-0.6139080196506506,1.6373701969303887,1.6140278195816375,-0.7503016530925218,-1.9091829612020041,1.9063377215072155,-0.8333293061232392,-0.320837468004008,-0.792477630207243,0.07118416364506325,0.02177002029138861,-0.8870460115864528,-0.13458475125016248,-0.8139165224411742,0.3264816479364548,-0.5826691355486634,-0.08554782851432882,-0.8440554003048022,0.7572343220331699,-0.27186759810009736,-0.3953144556944606,-0.5721254418994058,-0.20961120626513946,undefined,1495705847207
903d185fccf839df,-0.00839740523064156,-0.5916014204940455,1.7879404943139163,1.819867635812674,-0.6508492498779469,-1.8911360151739431,1.8985561272969176,-0.8129758322870985,-0.32026751176411644,-0.7420595648550178,0.141491618835718,0.009071044459675829,-0.9175091911764707,-0.14384307866301227,-0.8433902167991215,0.4254913281236685,-0.6025868159954354,-0.03886769796084316,-0.8546345773716082,0.7493657151177356,-0.2520297691522162,-0.34152540395228487,-0.5732313821257303,-0.21750821571348336,undefined,1495705848700
903d185fccf839df,-0.0499777696717044,-0.6591082329619821,1.9314930539760662,2.0431591045431836,-0.5988139093905508,-1.9092085828728136,1.9731979217598017,-0.3506977160669668,-0.25124912769691327,-0.6981216371079513,0.1310726496493921,0.056129527438120407,-0.7913045900178254,-0.12625219700503473,-0.82233758533425,0.3426463835065751,-0.5578962672561298,-0.07131769966404315,-0.8482464893776404,0.6583916996903211,-0.28308522142101966,-0.34506815106166405,-0.6719771040591487,-0.23866524812854584,undefined,1495705850213
903d185fccf839df,-0.06522395045748741,-0.6955031920735004,2.061647767801564,2.10358472794809,-0.5616105437485521,-1.9081091824874954,1.9713412763243805,-0.32413603991728224,-0.28686445560059787,-1.0026900260497134,0.10642178553275235,-0.029396790940441057,-0.8870460115864528,-0.14384310456456137,-0.751811169800551,0.44367676516584986,-0.5770667385994337,-0.03130616081819738,-0.8022004769982277,0.6882492864472683,-0.24873542631760354,-0.3250498702049367,-0.6976158342821872,-0.24607958864547566,undefined,1495705851708
903d185fccf839df,0.1343622405288588,-0.6749576086832672,2.169471722018177,2.1007291520518927,-0.487656377644818,-1.9103359353419511,2.0145621365789905,-0.001040870065947407,-0.2718005923909843,-0.9337338823341579,0.08120495870425926,0.022156329977929767,-0.8696384803921569,-0.1336589521808913,-0.6791794940652582,0.6255314464996001,-0.6121870825757352,0.04700702085145824,-0.7510887721494109,0.7585431927097269,-0.18350789866570505,-0.3134715101745095,-0.7370037254062263,-0.2143362239770405,undefined,1495705853252
903d185fccf839df,-0.08601414993072369,-0.6796537578962306,2.3602368275964083,2.3949190602573602,-0.5241397406571244,-1.9239503382618217,1.9507183271843371,-0.46086630121191385,-0.26963551985803286,-0.6623210090445616,0.29859384390757726,-0.03987863124784382,-0.9914911987522282,-0.0845897365979852,-0.624442581579148,0.7043352425550654,-0.6020549065763632,0.046348392555246386,-0.7320154649838928,0.834057167966708,-0.1620334786532623,-0.33216711501812,-0.7248641770207241,-0.238640524912841,undefined,1495705854703
903d185fccf839df,-0.018099429307332358,-0.5968845700911342,2.156073367907626,2.2276299539158027,-0.612709880722124,-1.938775945339405,1.959252045708999,-0.45981911522617663,-0.13866898165084746,-0.42006183827597,0.49719855894556164,-0.017145415621846703,-0.9088054255793226,-0.12347469619102489,-0.6486531696065141,0.5143980662450081,-0.6374953113576083,0.04897656416475414,-0.7180778174055816,0.8628214693106722,-0.16121431136952732,-0.33555871925496406,-0.6702933134003307,-0.2764094526476855,undefined,1495705856204
