UUID,iqrAccX,iqrAccY,iqrAccZ,iqrAccXYZ,meanAccX,meanAccY,meanAccZ,meanAccXYZ, covarianceAccXY, covarianceAccXZ, covarianceAccYZ,pressureDerivative, pressureIQR, iqrGyroX, iqrGyroY, iqrGyroZ, iqrGyroMagnitude, meanGyroX, meanGyroY, meanGyroZ, meanGyroMagnitude, covarianceGyroXY, covarianceGyroXZ, covarianceGyroYZ, class, timestamp 
903d185fccf839df,-0.662596285833147,-0.2523064885279525,1.1001643312134315,1.1662036058499812,-1.433267367725298,-1.4598760789376808,1.849014657937713,-0.5635322979346762,-0.4386343086300816,-1.0647400054012084,0.09912942564007385,0.3454324694423867,-0.9066294841800356,-0.35122986007064155,-0.9339166631458304,0.06178188066200341,-0.9272077411030342,-0.5076171489157061,-0.8591702598236097,0.23880524403461653,-0.5361467306688986,-0.44525991002723947,-0.7129644421058163,-0.5263987915570256,undefined,1497840939208
903d185fccf839df,0.25494539747362926,-0.34505485823113174,1.2564773612430797,1.2082888810358523,-0.6959216596050151,-1.451559215851932,2.01791499440511,0.7407024966120095,-0.5330063869014084,-0.9371488526574141,0.08048331125731244,-1.0755498140384743,2.135336592023173,-0.2929023753533711,-0.9076008149168707,0.7609121703595058,-0.7933796942331839,-0.43357474238670834,-0.9284999080900292,0.13211903380551546,-0.5391732097734974,-0.5021252971794731,-0.6365993365884011,-0.48120930336601514,undefined,1497840940617
903d185fccf839df,2.485735940287286,-0.08882260695519976,1.995932654214237,1.4886822061168663,0.9447108256185756,-1.4180481922491328,1.7379365922665886,0.2763800691324571,-0.29085805243770757,-1.4407949710409338,0.023163642053514334,-0.6173302125628235,2.766359597816399,-0.23364898148524585,-0.6149689033097429,0.8174892677522754,-0.550203949402979,-0.11388190134639554,-0.7207484494849288,0.8519750258013771,-0.21729274861594988,-0.11655031830046679,0.1898729415478187,0.672502967754235,undefined,1497840942120
903d185fccf839df,1.3055445126834615,-0.1906697968132375,2.1509692814154064,1.765008253793028,0.7793563598330886,-1.4926567580526446,1.807812034245099,0.3127019565002796,-0.16317787248520835,-0.6696561852451004,-0.0032749426290152174,-0.39229352355039016,0.3967594139928699,-0.243833159770465,-0.7518111550760834,0.4315530933631931,-0.6527186274133709,-0.12757172887379406,-0.785640580533978,0.591939093507188,-0.291569267960757,-0.24634031689653707,-0.02906416673913163,0.37924602173104854,undefined,1497840943636
903d185fccf839df,1.1489248029526231,0.08111843959688826,2.943379217606392,2.4847991202415485,0.9261126797925553,-1.469483158038666,1.8750561831845725,0.8805290585373922,-0.12584039067771635,-0.35922074323120295,0.019121102380650207,0.09861357726860026,-0.12111463903743315,-0.31327070602226026,-0.7981270562047543,0.17897711095028465,-0.6708820412189814,-0.15912555244142867,-0.8074985663683855,0.4968072218565394,-0.3300060453986702,-0.2840820878471618,-0.19391084800916422,0.13478810600999727,undefined,1497840945134
903d185fccf839df,0.23969938921489492,-0.10496549017554557,2.7551661552742703,2.663215075522402,0.005131368970602035,-1.5490639451206754,1.9052384691589013,0.2066940222070557,-0.5531885862207464,1.1416607942514494,-0.0092837140576279,0.0029285738127094087,-0.10805899064171122,-0.2595723396837038,-0.8212849478712194,0.2678839621305103,-0.6372904190441796,-0.12712359830279127,-0.8253319315666146,0.4767978324480278,-0.322935031111346,-0.27210290630065626,-0.3113383242075652,0.03248593181098072,undefined,1497840946674
903d185fccf839df,0.28266559442712486,-0.22412968093414892,2.7864285579706407,2.764346978130212,-0.21495168855898825,-1.657769539632855,1.9440964860565533,0.1925781676179819,-0.5011430358666566,0.8563841883868271,-0.1271952652868583,-0.016311287789119583,-0.06889204545454544,-0.21513227485644806,-0.7686533029489366,0.19716260452190906,-0.4334275146493795,-0.02325698865124568,-0.718007849602668,0.5109669819644382,-0.23294077623468534,-0.2716571875357938,-0.2962408497512329,0.002543434768602274,undefined,1497840948125
903d185fccf839df,0.13852014240186714,-0.3603173066382725,3.2872676803620586,3.1167046561295404,-0.27582244025976665,-1.7717951153335054,2.0089475002263257,0.36223564677951897,-0.5344127397902696,0.07320537092835756,-0.25269098644546645,-0.2680820648530549,0.2400916332442068,-0.1632855843610812,-0.8149691672664385,0.13250318174116157,-0.5103448760787769,-0.019425557759643546,-0.7963161554051738,0.31003267366313086,-0.2795816538245896,-0.42842793997127193,-0.6354712661644865,-0.4884388299739548,undefined,1497840949644
903d185fccf839df,-0.022257469201979616,-0.3708835181484728,3.1016064071390974,3.082422137086819,-0.39657652362142143,-1.8250787921251967,1.99612193983019,0.0904313835032988,-0.38760415849371566,0.052334117342944284,-0.17654524342241965,-0.2162709194513533,-0.23861547459893048,-0.11884557133692362,-0.8076007344741595,0.13856506003957228,-0.5023710217282935,-0.019989191025901274,-0.8053140544556142,0.2988380036621328,-0.28385446946208626,-0.4181134314948355,-0.6288938574505761,-0.4966222432170652,undefined,1497840951113
903d185fccf839df,-0.020871455903763863,-0.4254760298857312,3.2738695803884568,3.085071229875531,-0.4544335667160916,-1.7872682505738835,1.8552774134611512,-0.8048469554450567,-0.25423224089348345,-0.5739469763614128,-0.09946825455643986,-0.12477572674600686,-0.43880208333333337,-0.1123647188365346,-0.8244428528980775,0.34870820527554275,-0.5001373408255809,-0.005049778230806809,-0.8217145800191683,0.4459547535156877,-0.25610003973897927,-0.4367258608570966,-0.5428238061652206,-0.5063804325698222,undefined,1497840952618
903d185fccf839df,0.5681848169353061,-0.32861846751172524,2.380653427702236,2.11361788132984,0.24313212798769668,-1.7856447708648588,1.9066138579416705,-0.009287444276610657,0.13250003106593922,-0.8644210593658576,-0.17462146903794415,-0.0895330462822982,-0.7303782308377896,0.022807021980676814,-0.7360216962018974,0.5891605441505159,-0.38355721506208046,0.011118226639838273,-0.65115332104596,0.7012609780727568,-0.13667904277345216,-0.49940985559071427,-0.4441389030274031,0.015746269662276595,undefined,1497840954120
903d185fccf839df,0.5681848169353061,-0.43075913564083135,2.362788870842518,2.10059091128962,0.27970806672850956,-1.7839537432524932,1.938416095844303,0.22104743708433477,0.11692272589077028,-0.9355638748969648,-0.11637594185443033,-0.04261794729113462,-0.8304715352049912,-0.09662551302174666,-0.7991796494943821,0.32041968484387945,-0.4077095404165734,-0.06464911228607564,-0.7699591701784843,0.6734513859737079,-0.22227524255415682,-0.506603878698165,-0.3926057880993522,0.08093904663228868,undefined,1497840955656
903d185fccf839df,0.4365133465723512,-0.48887373736681805,2.386395652074458,2.113332395711477,0.451170631730575,-1.8093587562538158,1.9419137286895822,0.26842034034941686,0.1756605754995778,-0.7352828342894404,-0.1449027569845657,-0.0164667003591316,-0.8826941287878788,-0.08644136063807661,-0.7897059491382756,0.24565717867365006,-0.46202626352613213,-0.09699778680738734,-0.7722611213851053,0.677070019778535,-0.23880378989041848,-0.49837462535520566,-0.44315917372390956,0.056723156402741524,undefined,1497840957147
903d185fccf839df,-0.09848826961466546,-0.6373886195755061,2.824071068782285,2.8574272830240326,0.005244515431013083,-1.8850636897194626,1.8812230711938303,-0.5222740696110886,-0.47701943048020773,-0.5293774095059295,-0.1244203562468088,0.012211604421949573,-0.8174158868092692,0.003364490381058782,-0.7991796494943821,0.34062579509340024,-0.5321963852684009,-0.05849982144507169,-0.7399848327681741,0.8537979778424702,-0.1826155780340438,-0.4640637631076335,-0.4570850946613689,0.06999715539893542,undefined,1497840958622
903d185fccf839df,-0.16085900605601325,-0.5205725472653729,2.900632620302528,2.926942673052167,-0.06665251472992977,-1.889577755787571,1.8904747281591114,-0.4959261411934474,-0.46077469910343305,-0.359971872456588,-0.16715037146651843,-0.0677542898576738,-0.8957497771836007,0.07187618576048474,-0.7865480588358852,0.12442077155901911,-0.5074511625412337,-0.052337866826182765,-0.7351150524041238,0.914036693991665,-0.16826692829857148,-0.4853635895640139,-0.4725581607601165,0.05580561559791513,undefined,1497840960112
903d185fccf839df,-0.31054851127413396,-0.5786871051493712,3.0339770069802388,3.0664710789205887,-0.18666602438989946,-1.9433296089023269,1.9483672944105772,-0.20522716193167323,-0.4426143446593973,-1.1758477311195168,-0.20141431402662027,-0.027274892432739825,-0.6085255124777184,-0.027188018573049547,-0.8654955593493615,-0.017021717540411097,-0.6251361230576699,-0.07615606693935072,-0.9106650373183056,0.5979220098076777,-0.30785025663137616,-0.4357659469978297,-0.5932364327130573,-0.44126029677231593,undefined,1497840961620
903d185fccf839df,-0.24263385966156212,-0.5070711584665926,2.5829027278879613,2.5915767023739007,-0.3321057847629516,-1.925606427967724,1.9027664573075198,-0.5791239485015065,-0.5262354635233637,-1.3122413888065287,-0.19406306839896972,-0.10907489382545028,-0.5258397393048129,-0.13551055031943363,-0.8844429232504056,0.015307979717601875,-0.629434518454921,-0.09827703994639414,-0.9273524311062541,0.5921167956859554,-0.32242134895999286,-0.40563639718748284,-0.6484202863604439,-0.41157905533092004,undefined,1497840963118
903d185fccf839df,-0.2648100034221947,-0.5481622960190666,2.533776022468823,2.72551478619708,-0.5017272155065663,-1.9242205307667415,1.9274524517513745,-0.48871579264132464,-0.4565505240269431,-1.5163069333357762,-0.14363457864431142,-0.09994656996699587,-0.9349167223707665,-0.08088635901005692,-0.942337740763374,0.055719974098871174,-0.6448291454387232,-0.06001972885226915,-0.9422766290854645,0.6499995532897672,-0.2982070788017895,-0.40800422942516096,-0.6014535219318339,-0.4387462786532675,undefined,1497840964617
903d185fccf839df,0.3214740357879854,-0.5540324460002806,1.9040587161488607,1.9080508203636979,-0.3467011984330317,-1.9238758032882022,1.9071450837408166,-0.6178470447886869,-0.5791770101629743,-1.0841581386013368,-0.1641045326986447,-0.021445002140312155,-0.843527183600713,-0.2975315002074724,-0.9297061353804094,0.2537397301794002,-0.6110733988198174,-0.15184741401262553,-0.9313895914714618,0.7955918528438991,-0.3181532308212808,-0.4294212724603768,-0.5477828952590819,-0.4414964126047784,undefined,1497840966135
903d185fccf839df,0.09278163454992783,-0.6109729592740398,1.6105734887092866,1.6406241507809656,-0.35740860085394266,-1.9370453218305028,2.0169473641304303,0.027538595085916502,-0.47954604876172074,-0.5929177702410201,-0.017508215628068268,0.03206110137520162,-0.8304715352049912,-0.2762373445677629,-0.9054955768019785,0.4800476675149341,-0.4577792536072229,-0.19460111644649886,-0.916920185948436,0.8271894648786388,-0.32756290149733736,-0.42736440523862584,-0.47426300803353744,-0.4473947220862006,undefined,1497840967640
903d185fccf839df,0.16346845078057012,-0.589840346271689,0.641433922382825,0.6868264062384888,-0.40063938094743856,-1.9154183353887082,1.982723066762562,-0.2708857855204888,-0.3701454844849884,-0.24200511492942525,-0.0229877665168501,-0.01689705070960102,-0.8000083556149733,-0.23920400901481464,-0.9244429480652564,0.48610954581334476,-0.5457323221871215,-0.31588965321331647,-0.9108609481023744,0.6182171612962905,-0.42320533504867625,-0.42510762544941866,-0.4278758538442583,-0.45420085312814157,undefined,1497840969106
903d185fccf839df,0.284051814757799,-0.6250612900009608,0.2796816651782889,0.21722153065840175,-0.16934490297513838,-1.92706220201997,2.015419437842834,-0.017893234938538612,-0.3178519317837507,-0.48000333140694634,0.052754754844855256,0.08340605474337748,-0.6520443404634582,-0.3253065342491199,-0.9023376644128867,0.9185196494115502,-0.523390987678559,-0.371359907093986,-0.9221258134180788,1.137745309192994,-0.3383006087175388,-0.423394466365518,-0.5673533078515484,-0.5571518983689078,undefined,1497840970629
903d185fccf839df,0.3533525486794061,-0.6837628628830803,-0.01890790289045425,-0.10557687309589901,0.054194149189489345,-1.9045640803381154,1.9303373314856884,-0.49432095260155495,-0.21409500163209005,-0.9792375805148889,0.07896058833264663,0.02982677133257434,-0.7390819964349377,-0.547506651173006,-0.9181271748227092,0.8760869535582199,-0.5042298865201872,-0.5424000482221584,-0.9267577021939708,0.9839610325419711,-0.45463145485727785,-0.3964707748997696,-0.4313775647878078,-0.5334871683355485,undefined,1497840972120
903d185fccf839df,0.2646474905611395,-0.6949161478473868,-0.31430703569613605,-0.35210568737601566,0.300639450503267,-1.9152063735285425,1.9540292534113932,-0.27325625715212487,-0.18573509201495697,-1.0622220014442878,0.10012992969136315,0.021263465586166826,-0.7086188168449198,-0.6549033968008934,-1.0023378037534683,0.6376550900375354,-0.6481078759903601,-0.6199089454412886,-0.9749377415237462,0.6387740823726461,-0.5654389422515216,-0.4269445355084172,-0.5331724832555272,-0.5823059893256533,undefined,1497840973623
903d185fccf839df,0.03456900701404676,-0.7289630469664196,-0.05272234883293413,-0.17084325992350904,0.29622688218664733,-1.8938938342819458,1.9508182623347599,-0.25375867352652953,-0.06380112866388493,-1.3477309566165157,0.11895293517608325,0.15421676729036624,-0.7434338792335116,-0.7039725864822505,-1.0223378272042443,0.4032646294609729,-0.6458026593413343,-0.6380211647406595,-1.0278196384722278,0.3903509605068516,-0.6300130468508203,-0.44583792337036987,-0.5935814869426856,-0.5702335564742284,undefined,1497840975113
903d185fccf839df,0.07476359969476198,-0.636801633805377,0.04425529451923753,0.024606948398547438,-0.21316197969692569,-1.9003737782254633,1.9436257367676664,-0.4694806977659063,-0.16148944461907125,-1.1801722622018267,0.13305550775327368,0.1729383064504002,-0.08194769385026737,-0.6613842104489588,-0.9791798679136005,0.4113470113783938,-0.6706744795366135,-0.6213528579949738,-0.9781492774469903,0.4076742086452912,-0.6046355886649117,-0.4197962257137509,-0.6134007905901029,-0.5855388527973661,undefined,1497840976619
903d185fccf839df,-0.1081904317129952,-0.5546194463844057,0.39260996002407084,0.34611944462272437,-0.6856971888115927,-1.867475604590636,1.972130204269452,-0.3604636137739965,-0.2616872945271189,-1.1359930851425866,0.09603323821651018,0.17498425259323036,-0.3604681929590018,-0.6382383789660598,-0.9160219072588818,0.02339037576738358,-0.7034665863059946,-0.5985985921538477,-0.9069147461317542,0.020264722462328816,-0.651589985249035,-0.4132914368568266,-0.5823225390387499,-0.49062020633469644,undefined,1497840978140
903d185fccf839df,-0.4228156919458391,-0.46069695900100677,0.5182979628265028,0.42707628652881563,-0.9200053696505063,-1.8366504533604675,1.9681828776506938,-0.40801538442477847,-0.2651031799000236,-0.8008250720836767,0.027346968249011727,0.05154074530162857,-0.7826008244206774,-0.5576908424089997,-0.8370744141076393,-0.02914547413723249,-0.6377546130305789,-0.5328563039495751,-0.8100648890225268,0.09476240640481906,-0.575757501755167,-0.44309428282739266,-0.446251937076439,-0.29122627644986104,undefined,1497840979628
903d185fccf839df,-0.34658489153315325,-0.40786557994208955,0.8194393200044063,0.7687297727127164,-0.9708578595696746,-1.7753751567846696,1.9654689204762108,-0.35632224487679426,-0.20659508226052575,-0.690157386182178,0.007205937245203701,0.001067345251623697,-0.9827874331550802,-0.4928824469128547,-0.7707585852372316,0.2921311220151339,-0.5036588808222929,-0.47164840353458504,-0.7486958611106931,0.18833875815683224,-0.5063814848711516,-0.5096924326612948,-0.4546668481026216,-0.306452666745893,undefined,1497840981119
903d185fccf839df,-0.4491500481281676,-0.2746130000005806,0.7805207875697069,0.7755265512560947,-0.8742648792635679,-1.7057821470710794,1.927857436247167,-0.45981490875031467,-0.2823328573249897,-0.5110530286344638,-0.04614962050391295,-0.051295062555832355,-0.9436204879679144,-0.4641816267527105,-0.7444427664572071,0.26182206969973887,-0.5641910771909088,-0.412106065219426,-0.6694010037695147,0.20248992833728627,-0.4445065698386147,-0.5225410070673169,-0.476354926446379,-0.3595805262039942,undefined,1497840982616
903d185fccf839df,-0.3798492797011508,-0.1401864485188135,0.4551352736907099,0.45107641323682085,-1.000645237050782,-1.6308738138881815,1.9575321573863396,-0.1857013592298467,-0.26713029108250536,-0.22457597119662423,-0.09610870263107972,0.004937839838432639,-0.9131573083778967,-0.46047824916478225,-0.7654954052843124,0.18503904577813843,-0.49398643599351794,-0.45079401748575026,-0.7056374881256292,0.20284409536924877,-0.4721573036316587,-0.49413168625400217,-0.4634784757164464,-0.3641878519442087,undefined,1497840984111
903d185fccf839df,-0.17471907002735132,-0.131381165091008,0.19418847057056068,0.14567356422596126,-0.6203727327037855,-1.6177112828429103,1.9512364037042842,-0.015361675794893646,-0.4495927109046524,-0.3295038106911392,-0.1611470763982787,0.0013955833478701209,-0.9001016599821747,-0.5002891114332895,-0.6444426123921578,0.7124176527372079,-0.25325928961008365,-0.4725413451382177,-0.6560580843388545,0.8347347040627561,-0.33512218254448145,-0.4796790130423066,-0.625282587664494,0.15632891853112668,undefined,1497840985625
903d185fccf839df,-0.09710225631644971,-0.29339747994046494,0.15080373538669442,0.11494121695352444,-0.6801943466795185,-1.5685177499519705,1.909025392169802,-0.18809293099379415,-0.4373657753186028,-0.6201090991429127,-0.18803009492979955,0.05273998406856533,-0.7869527072192514,-0.469736576577632,-0.6339162966597222,1.2923320389390895,-0.14848591079799411,-0.46798795908817953,-0.6549805757758163,1.1811535305543617,-0.25405206978118267,-0.4755782473004487,-0.7258363755421287,0.186155949696385,undefined,1497840987116
903d185fccf839df,0.2909818122380583,-0.4331072248613092,0.613999838692569,0.438765047576131,-0.4428930310792121,-1.5357267205863556,1.9357179182762434,0.16532580181157633,-0.33740998260720334,-0.6522927829924677,-0.10875166611788878,0.08154022701482115,-0.852230949197861,-0.4521457467227527,-0.6549689796602302,1.3084969440975391,-0.2853675678140952,-0.43154820208755273,-0.6082558721357769,1.2925304857134627,-0.20881511378407305,-0.42608049602802817,-0.812675662146591,0.08289704397680034,undefined,1497840988652
903d185fccf839df,-0.06383797166468139,-0.36031724818228783,1.1161149827070418,0.8735307710015412,-0.7883381668143604,-1.4539704238782536,1.9091805374801343,0.012121580438492194,-0.19926777262240225,-0.5459148292722257,-0.07937800788521306,0.020137248462784828,-0.8783422459893049,-0.40215074502134995,-0.6170741782358041,1.4539806665527621,-0.3079826863288281,-0.47216137165132716,-0.6030362503225678,1.3717092931002433,-0.21743721334643124,-0.43952538678319125,-0.7558545567798136,0.08189074621054762,undefined,1497840990125
903d185fccf839df,0.21336496402174696,-0.36970948815223004,2.0023128893979862,2.179880273951622,-0.759435353883156,-1.5267032472302904,1.814412845587228,-0.7131384778718491,-0.24467686693010254,0.26555624698794333,0.03372038938371264,0.04258321501091999,-0.9523242535650625,-0.32715815828921135,-0.6476005026945483,1.6338149007969451,-0.3759838497492684,-0.3697450071261876,-0.551469754877153,1.447562035880218,-0.14152064237775985,-0.4735993247102174,-0.8518234953970596,-0.02916847918068074,undefined,1497840991641
903d185fccf839df,-0.18164920552924954,-0.22765180015086958,2.286227573459225,2.306483415140459,-0.8705517343985361,-1.6190575817535655,1.8683475361517106,-0.5493753328083841,-0.42855420323572674,0.33353348927988885,-0.22529231205683728,0.05562456869290073,-0.7913045900178254,-0.213280611964033,-0.7444427664572071,0.8477983765971135,-0.5359816585532821,-0.2685065704572429,-0.5957105911636881,1.012725336403387,-0.1962374607780862,-0.4945994473503797,-0.8493385811631433,-0.17395093818116006,undefined,1497840993123
903d185fccf839df,-0.14699876955762653,-0.22471666670427798,2.711781420090404,2.5033057728303,-0.8261998080164638,-1.7168390460853895,1.9471391552426187,-0.15147577467228965,-0.3059712175393795,-0.0005070458567455958,-0.41760047005604145,0.03996450162688871,-0.8609347147950089,-0.243833159770465,-0.6802321904261592,0.8356747047944567,-0.5713245323090024,-0.15687577094366495,-0.6078290671249621,0.600447354833944,-0.2611207989343849,-0.42419747367340976,-0.4006647489353468,-0.38826644285127376,undefined,1497840994619
903d185fccf839df,0.038727115919513486,-0.1619060619052895,3.0818279449132717,2.7745015835865696,-0.6368401283429879,-1.7596551222406558,1.9906492974136158,0.2497976383324558,-0.42178476130075004,0.10689457255453413,-0.5357404607842124,0.03287130334895078,-0.9218610739750446,-0.20124479668794792,-0.5612846135621956,0.8235510612565214,-0.41381647971106594,-0.016461743529210256,-0.4716781257927319,0.6073920522762898,-0.15169905838770123,-0.1927089395212611,-0.2866099934160771,-0.1938857322532726,undefined,1497840996113
903d185fccf839df,0.005462762256925697,-0.3573822024196732,3.238778604549023,3.071309369529168,-0.6193030163427768,-1.8041039937498538,1.9326752229676036,-0.20764273692282817,-0.38342973883384907,0.5059126030781776,-0.5724970668325862,-0.08035095085057439,-0.8783422459893049,-0.21328062491480757,-0.5181266984449544,0.799303774180651,-0.3363160913972419,-0.021876408441084,-0.43786253941298897,0.722110470743426,-0.12888167489903748,-0.20177551037384894,-0.2406918615252884,-0.12781627526325223,undefined,1497840997611
903d185fccf839df,0.01100684995519844,-0.5311388172315579,2.9995244231577565,2.9146597108143335,-0.5545751244435805,-1.849309867134592,1.8576678970841316,-0.7743463192289365,-0.3839952978520201,0.8035964361075404,-0.4212700568112525,-0.08654682183378812,-0.7695451760249554,-0.16884068959529727,-0.5065476716271502,0.9629731032663845,-0.3091291735323672,0.030693355308580136,-0.4232951785988603,0.937041971394181,-0.070990023505297,-0.16319146871561926,-0.25381840810412826,-0.16219288039440993,undefined,1497840999109
903d185fccf839df,-0.06383800617009112,-0.5563804621507776,2.891700723078093,2.8385450252655615,-0.6272538584010567,-1.8204319596912215,1.9714280367932013,-0.1442772826225967,-0.38651852767219697,0.13722904653903512,-0.12153085339676613,-0.018376336641384737,-0.7564895276292335,-0.15958231037934928,-0.48654769234977685,0.9488288147858314,-0.2734199361041158,0.10160332478400821,-0.39821860872270237,0.999836829029741,-0.015985710006507562,-0.20911710570516295,-0.31529765099192125,-0.19157380674585944,undefined,1497841000646
903d185fccf839df,-0.15115687846309325,-0.24232708741992726,2.9019086419255826,2.8854447299006356,-0.6233350071272171,-1.648741405519631,1.9408407670432513,-0.023969816893995303,-0.42787588774292135,-0.21136275669240717,0.3160064878144289,-0.06323605951351706,-0.9131573083778967,-0.11051299119024681,-0.4981266455452432,0.6315933530627323,-0.2964667133935085,0.0471716725923178,-0.4024936606210146,0.9321452595495993,-0.056151445933125294,-0.19122730761652423,-0.3014186599600812,-0.21095801364586853,undefined,1497841002118
903d185fccf839df,0.19950476202876996,-0.1454695250459213,3.0288731746249686,2.95730626176997,-0.594298484427631,-1.5603351319114205,1.8741515241805973,-0.2631084445179584,-0.49728628269618,-0.26418316767676864,0.4508918432315933,-0.06697325080876022,-0.8130640040106952,-0.20494809657122892,-0.5960215614954002,0.635634473359639,-0.6279437216460322,-0.13486879400673749,-0.5667787803357164,0.7012301722698152,-0.21782087058469138,-0.37435864882619846,-0.5196937177667637,-0.41595271187257365,undefined,1497841003617
903d185fccf839df,0.16208243748235437,-0.15427475001774213,2.8298135472914563,2.8623134330850784,-0.5994824738305231,-1.46373226347824,1.8201037580904287,-0.398888806776729,-0.5018057663636537,-0.3381153511375,0.49047122910899404,-0.06961430703985129,-0.5519510360962567,-0.17346976264630035,-0.6697058010713856,0.39316154607149095,-0.6931627261519111,-0.17048526882760326,-0.6576323698385204,0.6158149938041736,-0.2756928201399384,-0.37126105157739875,-0.6091743921269756,-0.4475116961536035,undefined,1497841005114
903d185fccf839df,0.027638940522968,-0.3368366482574323,2.3857575141944554,2.218769957003826,-0.6072481721518002,-1.4395361276301915,1.803283515234035,-0.4636642140962842,-0.5147123127466002,-0.17457938972308124,0.2532103531596156,-0.10703651378822791,-0.7826008244206774,-0.20494816132510166,-0.6918111141726904,0.24565723520309313,-0.6609735377286924,-0.30597226230718744,-0.7369901984653546,0.37450595486539734,-0.3988656100713849,-0.4466134613507262,-0.656213264045916,-0.42643607545611034,undefined,1497841006628
903d185fccf839df,-0.24679189955620937,-0.2276517416948849,1.9442535243435644,2.076267007983409,-0.7598056309784575,-1.2627655047073485,1.7471608192838641,-0.47584046050252654,-0.4211494752787695,0.22161400684157093,0.49675209025115025,-0.029495760082044537,-0.8217677696078431,-0.4012248811982061,-0.7791796039569048,0.12240018314584426,-0.6579745668259442,-0.45430246810031544,-0.7912924471654131,0.19317386098029404,-0.520820092252227,-0.4462870376048799,-0.6773437348290983,-0.44286253466286174,undefined,1497841008118
903d185fccf839df,-0.3313387797581897,0.00011031140015212339,1.902144810782753,1.8010576090047314,-0.7633336272972344,-1.1536057086849538,1.678572846012076,-0.6139176582729272,-0.5162268216888038,0.05844562550701752,0.5045823503513853,-0.023326349701920955,-0.8130640040106952,-0.41881573695463453,-0.7991796421321484,0.039555238528750834,-0.6779452932241439,-0.4989307212647367,-0.8449439929861251,0.15629458414990025,-0.5601108849515309,-0.433594243059246,-0.7133264698461533,-0.44126071669236405,undefined,1497841009632
903d185fccf839df,-0.31054861479036316,0.013024641358822647,2.1796796408656665,1.7887781314100923,-0.775028468949046,-1.1331410121747938,1.7724700687684283,0.07475968817250447,-0.4191501549916907,-0.5019757652658428,0.4974800696937742,0.01640277168964786,-0.9305648395721926,-0.3901149038437158,-0.7918112314265706,-0.008939363887711695,-0.7151313367381555,-0.47268700377295764,-0.8517868730570197,0.09687198458622291,-0.5715884075494999,-0.4082202284153511,-0.6561640722765606,-0.4393728055132749,undefined,1497841011107
903d185fccf839df,-0.4491500481281676,-0.13314221008537216,2.427866481892216,2.3577951571577653,-0.857334618039233,-1.192210518355513,1.739508092775937,-0.32015346828651314,-0.36766343498832627,-0.5343367297571292,0.5201322287882193,0.05898240806612003,-0.9175091911764707,-0.451219934702707,-0.7886533043130113,-0.027124829194614567,-0.7499394755062735,-0.5455918519296872,-0.8712799873397562,0.037788152760936555,-0.6246493201122391,-0.3943301210397339,-0.6945986775133012,-0.45208248749093854,undefined,1497841012663
903d185fccf839df,-0.5752773617820303,-0.3274444082874901,2.661378693048211,2.596814747814162,-0.9303013537703739,-1.3781816370704851,1.7292781557310715,-0.9408055725479383,-0.318129867365358,-0.6743156880689672,0.3748496214249373,-0.04103407376798375,-0.8304715352049912,-0.4688107645575863,-0.7612848775188913,0.057740732100375246,-0.7796649396156928,-0.5435589787643674,-0.8468821075069297,0.09248343068997544,-0.6038749765026599,-0.40435233411861277,-0.6676234166741659,-0.475482997685096,undefined,1497841014134
903d185fccf839df,-0.2232296044757221,-0.32157431676226095,2.56695258466825,2.6167582591778276,-1.047671440661814,-1.4856643827551088,1.8056871686938294,-0.7653184511663704,-0.33730171286065685,-0.323044139255709,0.25237916799348487,-0.14080606612983687,-0.39528325534759357,-0.3141964921407569,-0.7360216888396636,0.35072885021816064,-0.6576216196429496,-0.43212450431955146,-0.750941837958759,0.39720326759961505,-0.4663366291081836,-0.31095746002381713,-0.3997223439879448,-0.2820351825625841,undefined,1497841015606
903d185fccf839df,-0.18857930652573804,-0.30924688488974245,2.5478122603224267,2.5558443693939146,-0.9937743854755342,-1.4347681770437644,1.7556603597911944,-0.9378628121910313,-0.14901575863201613,-0.0983681090928847,0.14558241877386208,-0.062309275486403894,-0.4126907865418895,-0.2827181323142792,-0.7139163978250601,0.25778085047630683,-0.6926623194244484,-0.42165614763461595,-0.6960658507790471,0.44489225535458327,-0.43671751970401973,-0.36775055172226273,-0.3446515665635696,-0.3279782172913023,undefined,1497841017115
903d185fccf839df,-0.018099463812742092,-0.06974459028826234,2.0546295218062873,1.9156528892896942,-0.6957977391942985,-1.341959640289056,1.6983253302056527,-0.9930731530309928,-0.3515006309355299,-0.05722045328870907,0.2533478064634071,-0.03815623568842181,-0.673803754456328,-0.5206574550529531,-0.7654954052843124,0.2678839621305103,-0.6982449134056197,-0.5057829707197875,-0.7439590212604877,0.48053965518958086,-0.48078374091989257,-0.39487133684903764,-0.32229950646015454,-0.2659666904568151,undefined,1497841018621
903d185fccf839df,0.05535927549810252,0.04354930434916544,1.7783707133464288,1.860171998917646,-0.5433637131252472,-1.220133443185778,1.7437368170073602,-0.3403942925763071,-0.4485258745975971,0.030444742124935968,0.267162990471932,0.06804795503000964,-0.5388953877005348,-0.4539974225659423,-0.7833901390845596,0.2678838773363457,-0.6713522964796298,-0.4954666041958829,-0.7274115635493803,0.41492687956028573,-0.4787129956683253,-0.3939590466274103,-0.3372372047109277,-0.25191546375281587,undefined,1497841020128
903d185fccf839df,-0.023643517005605102,0.11457835294579202,1.7707145836080993,1.888688789301577,-0.6111053161852169,-1.2450679507430584,1.7358184782545616,-0.43387360708785233,-0.559256902967853,-0.3547442750863448,0.3748125097162672,0.03436672919511913,-0.6999150512477719,-0.3864115910096602,-0.7065479944817161,0.4133676845857333,-0.6059525469140008,-0.4805018575775124,-0.6857245647253954,0.5528045611363952,-0.43865471458920485,-0.330320738937211,-0.3133276430921749,-0.2843320856664163,undefined,1497841021627
903d185fccf839df,-0.19550933851140706,0.016546672891566295,2.296435746443664,2.3821046663517484,-0.6676766449435038,-1.313191210063043,1.7464165951169894,-0.4939865726821909,-0.5114750293635414,-0.08383207175365644,0.4290341059153841,-0.00986628028032717,-0.843527183600713,-0.4762174549795702,-0.7139164125495276,0.22747176989619025,-0.6965066820175878,-0.5474220717278302,-0.715852831118604,0.2700429104083307,-0.526985556369894,-0.41908326013857,-0.5536907657650325,-0.42969482663937714,undefined,1497841023139
903d185fccf839df,-0.1982812960970191,-0.06152632185857823,2.36597905196863,2.5502285091421992,-0.7328776758156647,-1.3994941802094845,1.8707380468793173,0.03795240724206264,-0.6493736911902525,0.15735244885823654,0.4203414298063873,-0.0027528538469399214,-0.8826941287878788,-0.4632557499787921,-0.6897058392466292,0.37497602423514503,-0.6789513373014419,-0.54992358424786,-0.6662664336223026,0.3289727596504154,-0.4974192231188701,-0.3088736843711277,-0.5876425063560725,-0.37354282556076435,undefined,1497841024644
903d185fccf839df,-0.15670089715054653,-0.1536877934756054,2.163729751782905,2.370443858507716,-0.6283955724567653,-1.450937757764467,1.8586672343158779,-0.19287786268009458,-0.5546234509716274,0.3804984523101548,0.30704090482014545,-0.039622940949973026,-0.8609347147950089,-0.4910307969712142,-0.681284783715787,0.366893585788281,-0.7901033245029485,-0.5494866112227067,-0.6291623453597717,0.3174855201821488,-0.48653919598711065,-0.29681918391806067,-0.5953576771368057,-0.42064110880303973,undefined,1497841026118
903d185fccf839df,-0.08601425344695289,-0.25758950659907565,2.163729751782905,2.0654292305448285,-0.7067725895793778,-1.4597655742234694,1.8886443928048269,-0.13707852953648395,-0.5421914650148064,0.27154007233691774,0.217545469335898,-0.07331325957951573,-0.7521376448306596,-0.5234349688177375,-0.6718110907219144,0.3062753398338832,-0.7913920219815276,-0.5021668569289538,-0.5967881020022731,0.38399140517614777,-0.4495936989374208,-0.327489135290174,-0.5494973282785032,-0.4862379463169446,undefined,1497841027628
903d185fccf839df,-0.05413587857717112,-0.3397717232480393,2.529309819719656,2.269772805001972,-0.7460536655150145,-1.418731366931974,1.8210610057655543,-0.4567644783355101,-0.45959854740840184,-0.19609325838396077,0.26236772630631094,-0.06106447301070406,-0.8957497771836007,-0.5576908424089997,-0.6265478712296768,0.31839912469542614,-0.7048581199102026,-0.4972461600348935,-0.5853203294402958,0.424982065796404,-0.4432773336499743,-0.3274888040807753,-0.5443871699342939,-0.41486901441235363,undefined,1497841029114
903d185fccf839df,-0.1137344849058582,-0.36266536663075805,2.5503643035685366,2.671610861233142,-0.924294501922664,-1.467475354002304,1.818678398589882,-0.6422573410286307,-0.5003737906958933,-0.3417589615091316,0.286372944822067,-0.039138578029586014,-0.7738970588235294,-0.500289124384064,-0.5991793855376865,0.1708946442386991,-0.7188639982030062,-0.47566982067686914,-0.5875103314954953,0.4056570162093596,-0.43975906627289424,-0.2933399154518766,-0.5638811345911812,-0.4334169791217801,undefined,1497841030642
903d185fccf839df,0.022094921835514723,-0.40727850648798347,2.7373015984145526,2.715832934614357,-0.803704987499048,-1.5288554665454082,1.8928520754659754,-0.24994537935549452,-0.47457606002075614,-0.6494804159990363,0.26360313798550983,0.02428593159143595,-0.8348234180035651,-0.4549232863890862,-0.6202320611759607,0.1628122905859997,-0.6877853178202645,-0.4697738512703804,-0.6059889083051035,0.33654879299257645,-0.4582780692638807,-0.33485097497992733,-0.5622653856605488,-0.5170636551489955,undefined,1497841032102
903d185fccf839df,-0.07215401694856617,-0.3896680565443419,2.7232653605609487,2.7782809781401094,-0.8324226547827523,-1.5756685160514563,1.9481674262047746,-0.06442490588898796,-0.43339253126658017,-0.37255303891775493,0.2774370436080954,-0.05259028266860858,-0.7608414104278075,-0.4151123593667062,-0.6370742164110477,0.08400849453053444,-0.6517957779781431,-0.44919811740095056,-0.6213539051370961,0.17737506377400608,-0.48579082044388855,-0.3383756745915112,-0.539977383058763,-0.4772071167633332,undefined,1497841033619
903d185fccf839df,-0.0042392273143553654,-0.37205760660070025,2.7181615282056786,2.623831642303318,-0.6116504551654841,-1.6147880888716801,1.8631457979946413,-0.5900665969583504,-0.472565665302727,0.2650313856553368,0.017495374155571397,-0.07899003945295792,-0.49102467691622104,-0.40307656999217023,-0.5718109587435666,0.19312148422500244,-0.6317908084390821,-0.47598013697670105,-0.6076821355891149,0.20178160179879187,-0.4844037968176306,-0.3261267829782867,-0.5564937933901505,-0.4263489140044995,undefined,1497841035146
903d185fccf839df,0.26741944814675156,-0.41490970146356154,2.4686989196930234,2.3775249039286686,-0.37861770616674906,-1.6160505335024489,1.818165601056015,-0.7692892092273166,-0.49513978233470807,0.8388754460112442,-0.10403962927774343,-0.08147052399242109,-0.21250417780748662,-0.4308515910830433,-0.550758327278695,0.39720286422144835,-0.6473900118292323,-0.4661324093092067,-0.5794779916915107,0.3571057195750171,-0.4429591011563666,-0.3509506384107316,-0.478574954399313,-0.42865092289784523,undefined,1497841036604
903d185fccf839df,0.3755287614508581,-0.45482677979180053,2.6486184768176617,2.4653982102883116,-0.2406453608633697,-1.62231385874279,1.7970114342351198,-0.8397413715995267,-0.5342488341111276,0.8694879131084096,-0.13292602723505956,-0.18056624165156177,-0.5563029188948306,-0.47621742907802106,-0.6770742044147295,0.4962126292028267,-0.6886531751348978,-0.4515983035252988,-0.6069334782016492,0.5073637515995744,-0.4203409928792077,-0.37215156385102865,-0.45941893657247057,-0.4686118714128368,undefined,1497841038112
903d185fccf839df,0.3796866633238664,-0.521159533035502,3.003990371769974,2.8094532763549975,-0.24932648888576478,-1.6313396609607023,1.7912732025536835,-0.8881818176423326,-0.4558292364236566,0.312280202575794,-0.05030540609831719,-0.10043356273587045,-0.17333723262032086,-0.5354708229461463,-0.5770740871608492,0.4840888443412838,-0.7202209221311486,-0.4300092960098865,-0.6206822117211294,0.6578681611071763,-0.3931400282541975,-0.3515102295781409,-0.484116408431818,-0.4373804330592266,undefined,1497841039623
903d185fccf839df,-0.06660996375570316,-0.5152894415102728,2.861075695850877,2.8657687579254643,-0.5435694257156647,-1.6580187688511707,1.9554967005044566,-0.0368164662199849,-0.36628592705746044,-0.5721119457512067,0.010334496828651873,-0.040586473015402205,-0.19074476381461675,-0.5076957889044987,-0.5233898710356399,0.47600649068858436,-0.6728995482194047,-0.3750140131486347,-0.5217053264421098,0.6537259769262208,-0.3342479543186385,-0.3143969065310237,-0.49721446499553273,-0.5708315851190492,undefined,1497841041119
903d185fccf839df,-0.033345679103934836,-0.5921884647201592,2.413829989901663,2.309779417434704,-0.7108457188068401,-1.5902006373304187,1.8401349956897814,-0.6700693104991663,-0.5102404756185955,-0.30426462137008997,0.011540617748831614,-0.11325971046178483,-0.7608414104278075,-0.4938082589329004,-0.4960214000681172,0.48408881607656223,-0.6503995095395076,-0.31360345847506477,-0.5409885377748846,0.6029265049008162,-0.31927861341388764,-0.324545318523081,-0.5114008280505971,-0.5548461645519456,undefined,1497841042617
903d185fccf839df,-0.08740026674516865,-0.3462288882273745,2.2760194004747856,2.2277853136541843,-0.8735037328634659,-1.6186685983815094,1.9781945446744027,0.10819869522003209,-0.43661077420235483,-0.055770060934704865,0.15386299263808206,0.08241562434650972,-0.9740836675579323,-0.43548079364179176,-0.5718109587435666,0.5042950959144122,-0.6585847159670262,-0.25530871214060175,-0.6355434393811793,0.6253774440829835,-0.31365154498533393,-0.3644561356619317,-0.6246625084015839,-0.6150063773687052,undefined,1497841044113
903d185fccf839df,0.11079994544837155,-0.27285198423420876,2.8151394256947997,2.7560592947425304,-0.581554511036333,-1.665882277803174,1.9164572172818257,-0.2184104050557602,-0.470571724382485,0.5102512875437658,0.01903885168279026,0.07030377348108159,-0.8783422459893049,-0.30864150346351177,-0.549705704540132,0.67806736706602,-0.5354469023206629,-0.12271587159618608,-0.6172327859347383,0.7967621387230476,-0.22372614377110123,-0.374037433617475,-0.36404554990921056,-0.5603945591029473,undefined,1497841045617
903d185fccf839df,0.21336503303256643,-0.38966802731634953,3.0205786528696876,2.6712689254110784,-0.43565190118034275,-1.7358596137531548,1.9190659927929803,-0.29645424831629086,-0.3103339422376678,0.79269430528398,-0.09966144117539132,0.056571613258872236,-0.5432472704991087,-0.33363903669114947,-0.6202321200738311,0.8356747047944567,-0.5024766318604168,-0.16858538404123924,-0.6205422764823256,0.8971753980453931,-0.23338635509994066,-0.3910722772349956,-0.345895049599176,-0.48689043152569367,undefined,1497841047236
903d185fccf839df,0.22999715810574572,-0.3515120816664517,2.736025830928447,2.5884058568169435,-0.36464973571410436,-1.7168576808182043,1.9314339663389206,-0.13086984662971501,-0.4111933614133546,0.6675307991862255,-0.3246213909451058,0.021954698858530252,-0.5519510360962567,-0.23735230727007595,-0.670758409085481,0.8558808998381421,-0.4646160593169142,-0.12070832829542619,-0.6243415438340998,1.070330916685016,-0.18795002634759386,-0.4065003395476752,-0.33599053230444953,-0.40763369861837323,undefined,1497841048629
903d185fccf839df,-0.041661655377000145,-0.4454345398218583,2.502513619772453,2.378532172532373,-0.49431122792782684,-1.6386092165990511,1.8149309315348716,-0.8414082208362322,-0.46345858746367785,0.691383879799948,-0.29711149337504655,-0.07798366263523071,-0.4866727941176471,-0.25494313712495525,-0.6718110465485116,0.7649534602447416,-0.46326940011146067,-0.17337308799413112,-0.6358862811138575,1.0929820318346888,-0.2130935321695711,-0.4097953280987295,-0.3206419146234694,-0.41801553152630566,undefined,1497841050123
903d185fccf839df,0.02209488733010499,-0.39084202808459995,1.5506002182887573,1.638920198870667,-0.4080347994487044,-1.6208930240276649,1.8415787541249966,-0.7170422189385272,-0.4681051041418405,0.41141697788165804,-0.07947058618788659,-0.08471533552920585,-0.8304715352049912,-0.39752155541337597,-0.7223374533559022,0.6558406118738813,-0.4606389485371987,-0.3226089059844127,-0.6475429670312036,0.9560282553968038,-0.31258762013658464,-0.36334602286912493,-0.1986521219289438,-0.36859959855791036,undefined,1497841051610
903d185fccf839df,0.550166437026043,-0.37029656160633606,1.5512383561687595,1.3425092070427773,0.04214958118507418,-1.669369149979185,1.903673736359912,-0.25014167569585116,-0.41968231133025513,0.6982274555757888,-0.16230406449003995,-0.04285966077190779,-1.0045468471479502,-0.5438032735850776,-0.7002321697035325,0.33052265517447527,-0.6215775947708959,-0.49192015489497015,-0.6914829386577426,0.6826750503265469,-0.44577881669827796,-0.32964987534422835,-0.38585615224689135,-0.3388805435317191,undefined,1497841053110
903d185fccf839df,0.831527481617938,-0.3597302916401511,1.7841124294447517,1.432254384034349,0.5963943616838013,-1.7177311450161523,1.8567974440532258,-0.28611156392797904,-0.30400895696303376,0.16812794246561447,-0.25209468048885997,-0.06948420848293804,-0.9218610739750446,-0.5595425053014147,-0.6770742191391971,0.35072879368871757,-0.6160573325334828,-0.5319316918306661,-0.678391904547101,0.6548962576089177,-0.45070239016494273,-0.43057591182687327,-0.3972042059042504,-0.45559343745282876,undefined,1497841054627
903d185fccf839df,1.0311135345826452,-0.42136692489888145,2.1732997868873416,1.8193310679690493,0.686939350090757,-1.7740544766980064,1.8452183984523562,-0.3334149635707893,-0.11239412115929967,-0.25576419776678666,-0.2797745358865553,-0.053311737787355686,-0.7216744652406417,-0.50584408715976,-0.6802321462527565,0.28404883902423833,-0.6419267955165971,-0.5037627592561033,-0.6873618166721219,0.6269788754224587,-0.42602649122396646,-0.3431384338464455,-0.5545227027654678,-0.5177049759550397,undefined,1497841056114
903d185fccf839df,0.6624337212139773,-0.40434343149737656,2.436160241236649,2.378591247023741,0.31350684333470197,-1.70656709881967,1.8957921939051685,0.024279254180454665,-0.4484868526608225,-0.6269674280215024,-0.08675005714773293,-0.07055513200906059,-0.6476924576648841,-0.4382582297019289,-0.6623374050902754,0.3931615743362125,-0.5678079000455435,-0.45429613486873144,-0.6876067052363175,0.5600110328648304,-0.4102487206054805,-0.33390871838710917,-0.5662161305623434,-0.5197772993826996,undefined,1497841057674
903d185fccf839df,0.11357190303398358,-0.28517932842275023,2.9503974636016688,2.8225392246712264,-0.26861217236529245,-1.6666416089265397,1.8543306656207263,-0.43791418808335864,-0.5065358614258233,-0.9036911664258437,0.06398359516809014,-0.028971080402545365,-0.843527183600713,-0.3308615358771396,-0.6476005100567821,0.43761502819104686,-0.6086957005871915,-0.3689787176192235,-0.6598363633745018,0.641622793339742,-0.3467540742172363,-0.3176391832371015,-0.5891336309485559,-0.595702043755467,undefined,1497841059153
903d185fccf839df,0.03595512382849172,-0.3004416599179216,2.694554746973739,2.7740012017828497,-0.5814002185649285,-1.6440177074181501,1.8816385746415971,-0.4085193240879652,-0.4750926681289746,-0.49196918591801986,0.19668013675793455,0.05280800989599974,-0.843527183600713,-0.25216561040939633,-0.6612847455405435,0.3648730821692708,-0.5419248910944199,-0.2976001088167688,-0.6371666957731611,0.6057906103150524,-0.3167800897085222,-0.365151972571432,-0.5644523969543692,-0.609306214379229,undefined,1497841060640
903d185fccf839df,0.07199146958210127,-0.2487843108552472,2.864265876976989,2.6114356834114054,-0.6194264441350895,-1.7063155404731276,2.0023782312057543,0.23972509323638214,-0.43550683650494465,-0.4274880866382562,0.026705257430638778,0.02806312865362245,-0.9392686051693405,-0.22068726353369322,-0.700232154979065,0.3749761090293096,-0.6085965389091066,-0.248665453619521,-0.6535392329309668,0.5179578779606149,-0.320110282763161,-0.3355393263479129,-0.5864727715735827,-0.5998094080867059,undefined,1497841062121
903d185fccf839df,0.22861121381834942,-0.3027897491383995,2.653084425429879,2.8184827323173094,-0.6381875560613937,-1.7731064755023167,1.9168174987850626,-0.4156890548787146,-0.44346440812972243,0.31303864793739405,-0.26042109991755286,0.010130325515364769,-1.0437137923351159,-0.2716081420090144,-0.7033900526436891,0.47398584574596647,-0.6509689122523119,-0.23917870426762114,-0.6934560389212395,0.6633499991913369,-0.32367416697282114,-0.29393017219988704,-0.48513174410921567,-0.5963219052341593,undefined,1497841063630
903d185fccf839df,0.1315901104161981,-0.3972992515199199,2.6262877172087773,2.4354942954495233,-0.47596155116495825,-1.806992249042664,1.9920273192733544,0.0847623192351908,-0.4707161611975828,0.25234064871926976,-0.4825744917371776,-0.037190500312515536,-0.9784355503565063,-0.3188256817487309,-0.6686531930572901,0.2941517810901126,-0.6143410981636929,-0.1753806297501613,-0.6814984900016209,0.6904204671474964,-0.297266375874398,-0.3425028046375138,-0.3851310801721263,-0.6201057262837332,undefined,1497841065113
903d185fccf839df,0.2632615117683335,-0.40082137073664054,2.9529495068477782,2.804859269562011,-0.49515466080047016,-1.786469322246547,2.0170499264655124,0.291348947967303,-0.4686905677524203,0.27058565979313093,-0.4624924896993842,0.007352210459831022,-0.9479723707664884,-0.3438231890748195,-0.6781269007756304,0.3810378742688342,-0.6085965389091066,-0.2555493636459962,-0.6873618166048342,0.7521990310453496,-0.3281826621892407,-0.36261864720201464,-0.32085678910320586,-0.5284772156364929,undefined,1497841066625
903d185fccf839df,0.22029506501823545,-0.4513047482590569,2.8731982824753226,2.6439664483525256,-0.5545854166043027,-1.7522597862067706,1.9322492101264992,-0.21803469582268828,-0.42431479478932727,0.1516713092574693,-0.45262973198767203,-0.010544222892333695,-0.9044535427807487,-0.2493881613984847,-0.6423374037262007,0.4699447819785029,-0.5729400239541015,-0.2219720960746806,-0.6084307934720625,0.9444486199517094,-0.256241259513653,-0.37583187644458516,-0.2526930540933388,-0.5482412383769637,undefined,1497841068117
903d185fccf839df,0.3575104850578241,-0.2857663141928793,2.344286684376697,2.3450119202919724,-0.42355591204264986,-1.7321631096316583,2.0004690061995283,0.24971048625200482,-0.39167113249720953,0.5043823513715291,-0.31823031904499555,0.021303250167864978,-0.843527183600713,-0.23827817109321983,-0.5981268216969938,0.3709349322029599,-0.5351653629981736,-0.28593482641352286,-0.636788868536356,0.9676232783155623,-0.2875879264987342,-0.33614986354891396,-0.2907727331811753,-0.49864099036851034,undefined,1497841069626
903d185fccf839df,0.4905679687189948,-0.29515852493482914,2.3698071168377948,2.3224208745246187,-0.2668738843724385,-1.6565699790468496,1.943081377925909,0.05453748902854712,-0.40115831804792296,1.5224772699899956,-0.2904293834584487,0.08597226338017558,-0.7477857620320856,-0.3058640026495019,-0.5633899473861271,0.36083182054875645,-0.5130449388795686,-0.31368578473306125,-0.6577373196955385,0.992276189219283,-0.30017421995755167,-0.36968887960103947,-0.20424641627864557,-0.4785609097503955,undefined,1497841071158
903d185fccf839df,0.6166952133620379,-0.30689888335324156,2.2364624760231346,2.3314144748895633,-0.22800423830285724,-1.6266066462557107,1.8405136845078616,-0.5064336726958246,-0.3606060563357976,1.6709896864368017,-0.32171054433985136,0.21083803998586065,-0.22555982620320855,-0.29845731222751803,-0.5381267071712629,0.47196537039167774,-0.5433112683572024,-0.3446792115054675,-0.5872934259846194,0.9616332804521933,-0.2917152226469208,-0.36464359724067047,-0.1865120720008826,-0.5056012552120431,undefined,1497841072616
903d185fccf839df,0.6541175724138633,-0.2975065849273147,2.339182852021427,2.323285982734688,-0.17262604984888905,-1.629401734429773,1.9460504302264525,0.2265411653439861,-0.5150832716451094,1.70205015981729,-0.41502014782661756,0.16911173525453432,0.2879623440285205,-0.21513230075799716,-0.5539161954943841,0.484089013929613,-0.5105089151787189,-0.24215518607409237,-0.5942132725717105,0.9802808026129166,-0.2406171899621538,-0.39035029746872574,-0.0652516804685494,-0.5915822826365847,undefined,1497841074115
903d185fccf839df,0.7248043196336861,-0.3280313648296268,2.3174904844294937,2.368096815112673,0.1279220121677436,-1.643745189954659,1.8921893788728006,-0.022874229176690398,-0.19080604376571636,1.5989466302821613,-0.19810410089508007,0.04280491051437143,-0.2560230057932264,-0.21050312410079772,-0.5623372657496938,0.8518395534234632,-0.3360699537466072,-0.20657037620415344,-0.5878391766946989,1.3826421884247446,-0.1330030194678454,-0.3059816450883589,0.12514230192452233,-0.45767754310792685,undefined,1497841075602
903d185fccf839df,0.9437946277842334,-0.3421197540125325,2.7404917795406645,2.721784113041513,0.2523480841267653,-1.7125602330274272,1.8258498828485816,-0.5167155364255986,-0.2906485653362647,2.9411618550672856,-0.2681734546183664,-0.14196274085428093,-0.016669451871657744,-0.25031396046775584,-0.593916212947001,1.1488689048970413,-0.31405637592283525,-0.20477815423971146,-0.5883149584029206,1.422139205517806,-0.12480854451506847,-0.3438864884120021,0.1968055049889065,-0.4909756817044503,undefined,1497841077112
903d185fccf839df,1.196049324102778,-0.34916402167396615,2.5790749171557463,2.6142136911106113,0.6368274369840845,-1.787596674030709,1.914579543108272,0.003387858966082713,-0.25389175298218863,3.651975361561742,-0.28044533195010957,-0.07925050511402733,-0.5954698640819964,-0.31975153262110023,-0.5686530758034098,1.0963331539189507,-0.3762583424582594,-0.23871640042006478,-0.5484821153176438,1.3555101300658396,-0.13802007670744082,-0.3790207802895876,0.13941182476468555,-0.5199962507039868,undefined,1497841078624
903d185fccf839df,1.3554410604300482,-0.4882866931407043,2.834279750040623,2.6755208315816126,0.5337544651551206,-1.849053650882239,1.9842983274174602,0.3767570809937973,-0.5662054968745891,3.0330841240263364,-0.5930017149118687,-0.04416053600299239,-0.7695451760249554,-0.25494313712495525,-0.5991793855376865,1.1630132781717593,-0.3147765267091714,-0.21888795346717047,-0.5850334565608176,1.5516555314723655,-0.10412416354992347,-0.3564294777837954,0.18227015141218053,-0.4127380885134191,undefined,1497841080111
903d185fccf839df,0.9146882795108832,-0.42782408987821674,2.935723342005012,2.7711802842233704,0.23270240437970635,-1.8357560246237508,1.9365384276939996,-0.0397997011621547,-0.5032599824376928,2.5182032349023453,-0.516419070325946,-0.001135575415709582,-0.691211285650624,-0.2493881354969356,-0.6002320082762496,1.1529101665175556,-0.35169910842371044,-0.21019915371196893,-0.5969280347820182,1.6015618893539465,-0.10223987992887043,-0.3641606191374753,0.18607401729241863,-0.3563987500576699,undefined,1497841081654
903d185fccf839df,0.7234183063354703,-0.3761667554295385,2.649256106423765,2.6491489612864747,0.02205133048424829,-1.8438082041228498,1.9419610808647547,-0.07237898756002246,-0.589292530271113,1.7324377037994227,-0.5484026963070344,-0.06230628117699095,-0.6085255124777184,-0.3715982490180162,-0.7665480206606415,0.8437571149765992,-0.5428501821963023,-0.3430199827368805,-0.6588358177063598,1.043737800403068,-0.2956799298303315,-0.44061264801310185,-0.20968490046904645,-0.4681738225302621,undefined,1497841083100
903d185fccf839df,0.39909105653134536,-0.3955381772975634,2.690089052498471,2.514090119012664,-0.10204559454433763,-1.8298910012471903,1.9733741149255395,0.055578099089485924,-0.6127918656556477,1.2835410979949955,-0.37813640977935375,-0.10038940643815006,-0.8565828319964349,-0.3567848422724994,-0.7212848306173392,0.7204999781251857,-0.519404054908717,-0.2936736832495592,-0.6354524763498596,1.0144961545603033,-0.27355910758500795,-0.3353500463082198,-0.2830246491736573,-0.3728868432389122,undefined,1497841084624
903d185fccf839df,0.4074070673098204,-0.3579691881898023,2.9535876447277807,2.6412829125930806,-0.2529882024268648,-1.810569961936415,1.982620516997741,0.1473451529749709,-0.5057806318610858,0.4207976068686622,-0.4470459760929813,0.02096323639021823,-0.847879066399287,-0.31419653099308054,-0.5897057367172165,0.7326236499278426,-0.4626743442957854,-0.25115429950474627,-0.5646657403985463,1.0982175025729237,-0.2158565469935431,-0.30022378820214657,-0.2521392364410189,-0.41538442139630444,undefined,1497841086102
903d185fccf839df,0.3672126126507441,-0.4066914914898621,3.2553671397856863,3.0750541373508464,-0.22962937774075448,-1.7987094758064632,1.9609824710533832,0.07427154289381538,-0.2946377645969298,0.10101985996783049,-0.5395709650474637,-0.011758611531506187,-0.669451871657754,-0.2290198048280464,-0.593916212947001,0.8316334431739424,-0.4417955582083129,-0.13688899441369995,-0.5624407543073145,1.1625676121240702,-0.15667223812141115,-0.31168680881892824,0.017099680916845623,-0.41681321146332173,undefined,1497841087602
903d185fccf839df,0.3547383549451634,-0.1977139475627018,3.241968785675135,2.7723414239471773,-0.07213479031318908,-1.697101073900084,2.029112844119072,0.9621394514769099,-0.06737767526765545,-0.7508626084587441,-0.6848088577807423,-0.013438047321513493,-0.6868594028520499,-0.20772564918833697,-0.591810967469875,0.8781073723830655,-0.36179992931561444,-0.10385002526108318,-0.5016734520513533,1.0611380553214955,-0.1335089694427065,-0.15118749160238867,-0.004340425314458447,-0.33697102193826955,undefined,1497841089107
903d185fccf839df,0.14129209998747916,-0.29515852493482914,3.0741718151749424,2.6491129791107353,-0.28881327941634144,-1.6795386082711645,1.8747590009242856,-0.11628459154543758,-0.034373031652504826,-1.2029739917332731,-0.5592471317534305,-0.056614778000712136,-0.7956564728163993,-0.18920891665799008,-0.5760215085956889,0.8073862974216796,-0.2923045884763842,-0.1409420763961777,-0.5160518994305913,0.8763721088019107,-0.17846104455385695,-0.17610693519497006,0.059911574203141534,-0.30988400118344,undefined,1497841090608
903d185fccf839df,0.1177300119394503,-0.34975097821610285,2.572695063177421,2.0484211019710976,-0.3632097308068114,-1.653465104191925,1.9287831048065323,0.2064824358312215,-0.1570551896111089,-1.3046404372417428,-0.42930433695433523,0.01912028826265802,-0.9131573083778967,-0.1503239570649504,-0.5465477921510402,0.8760867839698906,-0.2660499057846958,-0.09878367194694922,-0.4973284329312482,0.9281570808916215,-0.1505986265478696,-0.17435090397284542,0.1327111115775136,-0.2966397145437291,undefined,1497841092104
903d185fccf839df,-0.4144996466619543,-0.3908420865405846,2.2026485383545533,2.215572772563548,-0.7596204926928752,-1.6784531810098127,1.9852292684158945,0.035517181330821046,-0.3376268488427152,-0.9720610747397076,0.05975962687827835,0.07128057583359322,-0.8391753008021391,-0.18087641421596054,-0.5823372450270671,0.5891605441505159,-0.3528023821709876,-0.1675784398231515,-0.548125279742998,0.6883878828761126,-0.2369741139864197,-0.21602384457763799,0.11855043836560514,-0.32122446633917295,undefined,1497841093648
903d185fccf839df,-0.4491500481281676,-0.4471955848162225,2.2294444841648073,2.121439829770151,-0.6148904502947482,-1.6948766468404863,1.855677143063864,-0.7647900772686655,-0.25867997285899497,-0.5700190940228219,-0.07249795223292695,0.051757669487327254,-0.6563962232620321,-0.24012982103486033,-0.628653146155738,0.2739456708405918,-0.43866702897285503,-0.21905893902650062,-0.5751189774509722,0.5436732962067355,-0.28708783997265247,-0.2511160964154882,-0.12085738169157156,-0.31339607683357495,undefined,1497841095098
903d185fccf839df,-0.346584926038563,-0.5833831812923538,2.3876716736975125,2.2640903750624854,-0.6674503620853027,-1.7660651859913876,2.0629821203762715,0.47691332121446567,-0.2032374771888524,-0.7332561775530575,-0.13908190106924082,0.09095117788814457,-0.8696384803921569,-0.19198639157045083,-0.6486531254331114,0.06986440390303203,-0.49346716903444476,-0.1805926403204051,-0.6015459338694272,0.363634662638599,-0.310035057574276,-0.23050396248771207,-0.18593758088617365,-0.4103494394126106,undefined,1497841096605
903d185fccf839df,-0.16085893704519377,-0.6227131861664867,2.4093637871524964,2.314790091017731,-0.5451534242058874,-1.780676502921396,2.0994075653382556,0.7297290328469542,-0.24802153587635958,-0.4237015730947629,-0.20843031633657286,0.05792674151172399,-0.8304715352049912,-0.20217059575721907,-0.6328636812833929,-0.010959952300886545,-0.5793216901152933,-0.22378331841488455,-0.6275950607510623,0.3348857651250052,-0.34101313232866604,-0.41052341490325156,-0.4660605211423875,-0.521344070604461,undefined,1497841098106
903d185fccf839df,0.06644741638923826,-0.5951234812547815,2.572695063177421,2.6234069456356806,-0.5939076292365066,-1.7630837598215228,1.9679146298409882,-0.047368812245983785,-0.395595908154859,-0.5620174603849791,-0.24522560191573206,0.06037018072571563,-0.9697317847593583,-0.1651372602042708,-0.5381266629978602,0.02743148193192944,-0.49866322258950013,-0.1971596224089222,-0.5641689695116922,0.47639747799556437,-0.2890444779155776,-0.4083730863397141,-0.4844227654147426,-0.4416734957199957,undefined,1497841099607
903d185fccf839df,0.22722506249849475,-0.5528584013900416,3.0301491962480234,2.7764492817254163,-0.31256295941760803,-1.7282010742661662,1.9226504122951256,-0.1710555018078162,-0.47083646354493847,-0.04039407639066159,-0.32463172004477825,-0.00461819933769169,-1.0437137923351159,-0.10866139305170448,-0.5570741373324111,0.005204868063398404,-0.5176688666611745,-0.15463390445807204,-0.5075297863764324,0.5244868208491867,-0.23572361962631758,-0.40173335624222006,-0.4903074877151673,-0.43841843815262027,undefined,1497841101102
903d185fccf839df,0.3117720462167043,-0.50237508232361,2.829175409411454,2.6914258871734087,-0.457735286614344,-1.738328606901864,1.9244018593068701,-0.17378399261321573,-0.4081124410219164,0.008610687722654947,-0.39555275100977333,0.09763411331821864,-0.9349167223707665,-0.08366388572561585,-0.4718108414896863,0.011266746361809101,-0.5733348079276895,-0.10288742280511887,-0.4428442668547771,0.6503691104340067,-0.17511460409554808,-0.3600041046595699,-0.4800342118183637,-0.5164958119862243,undefined,1497841102617
903d185fccf839df,0.27573570046309476,-0.4700892281989413,2.7373015984145526,2.6203906645615382,-0.5311237365802328,-1.7726033619677317,1.963052117999098,-0.04535834131346189,-0.3762746839868114,0.2624644121366035,-0.36224047016205096,0.03911229824984426,-0.8565828319964349,-0.0919964140691945,-0.4928635024034929,0.07188496405148534,-0.536616253326464,-0.10645287110316379,-0.4734133321680556,0.570528172841282,-0.20272856352669047,-0.3333844548490846,-0.4292737745422744,-0.4903941230506885,undefined,1497841104125
903d185fccf839df,0.051201304614274724,-0.41256169992706065,2.4635950873377532,2.441839770219155,-0.6525052497598329,-1.7781795594801342,1.9700894830667934,-0.09760285187589127,-0.3836475233618623,-0.028973328579230555,-0.235632174931273,-0.030105909828946516,-0.9044535427807487,-0.12254889712175374,-0.5433898797619484,0.011266689832366028,-0.4814317791490799,-0.07985450742004074,-0.4939069911463213,0.5056391243902838,-0.21577022101905305,-0.3221420143052991,-0.34348666902523256,-0.49718257325380444,undefined,1497841105601
903d185fccf839df,-0.40202559598883203,-0.44954364480870806,2.502513365635503,2.457333857984727,-0.9017276872454687,-1.7352283899300986,2.0470297231380994,0.3465698160670757,-0.31735702602310734,-0.56446810453705,-0.08013049697021322,-0.08025038296460092,-0.5954698640819964,-0.14476887773228342,-0.5402319673728565,0.13856494698068614,-0.435131306752407,-0.16241076237229557,-0.5018693628048368,0.49510658742231534,-0.25766793160961265,-0.27908526511845466,-0.35148775184209313,-0.5159790323530233,undefined,1497841107105
903d185fccf839df,-0.39648154279596903,-0.38555895155749215,2.216684522071208,2.1343335497923244,-0.9464704697609105,-1.7276863128416264,1.8777806663163314,-0.7667770925806302,-0.2863469106698217,-0.812790835632337,-0.03683244442946128,-0.03579253574941965,-0.5998217468805704,-0.07810884524527252,-0.6349689414849865,0.03753465011557598,-0.5440542237600542,-0.2135366154009112,-0.5696684608849496,0.3298966674945642,-0.32762078746141204,-0.29535001692840857,-0.36759368408518595,-0.6229365558769596,undefined,1497841108608
903d185fccf839df,-0.20243937049707608,-0.3620783224046443,2.227530832935649,2.1994398119999867,-0.6839486235839046,-1.7330062954344791,1.9414456401715214,-0.30033368605033245,-0.2785821128011187,-0.4899739181311911,-0.03979620650217477,-0.06143383668373874,-0.9392686051693405,-0.17346978854784945,-0.7465480119343331,0.09411166271418099,-0.5694801502008678,-0.20877424229810554,-0.6692890540920259,0.3305434038726346,-0.36451714845290617,-0.3389775237481589,-0.3788303987616913,-0.6263725842698507,undefined,1497841110112
903d185fccf839df,0.030411105141038442,-0.3632523816288794,2.2600692572550742,2.2475127726463806,-0.5563648334296756,-1.6686633890224791,1.935139358895437,-0.19003892679290943,-0.34972340089075166,-0.28026359096739883,0.07776365824560168,0.031062842963513478,-0.9305648395721926,-0.23827811929012166,-0.7749691203648864,0.2840487259653522,-0.6365502435013753,-0.2924387626707374,-0.6915459100596226,0.37161105832213714,-0.39877028500085,-0.3786314549435817,-0.40915330813058937,-0.5759113109746097,undefined,1497841111611
903d185fccf839df,0.07753552277496428,-0.3908420865405846,2.386395652074458,2.409553986314211,-0.6334047024873463,-1.64797042890735,1.812774486409551,-0.9191363222627038,-0.30582456079362885,-0.0025655653680451184,-0.03634566891120694,0.03254547516386735,-0.9871393159536542,-0.27531151959694267,-0.739179579142054,0.2113069495319053,-0.6523686405455658,-0.2725216544066997,-0.6665812894511105,0.42986337263939445,-0.3718522875028945,-0.3604394496766886,-0.3960833496184643,-0.5774577796552075,undefined,1497841113106
903d185fccf839df,0.11357197204480306,-0.47713340817639793,2.7596321038864877,2.6078298824266097,-0.7003748737062425,-1.6660756075000909,1.8251003862426385,-0.8218138193706347,-0.3276558069850536,0.08256098553775466,-0.2353605008724459,0.04339517687654772,-0.8565828319964349,-0.2642014645378051,-0.7149690352880907,0.2678838773363457,-0.6317682386646601,-0.22894466854177897,-0.623236046443236,0.5138618912026565,-0.323353539248887,-0.31360857545133447,-0.288944171158694,-0.4266023742230867,undefined,1497841114599
903d185fccf839df,0.21752296941098448,-0.5082451446208468,2.835555263389779,2.836919620623187,-0.5194083246246284,-1.704680419490145,1.8998973354435515,-0.25494286744439265,-0.3568660422442109,0.40430474444281184,-0.4522612952077139,-0.03327526573004407,-0.7738970588235294,-0.19106059250117968,-0.6507584592570429,0.4355942701895428,-0.5418433653399579,-0.11397640965358524,-0.5901901081588565,0.7884315696667992,-0.21428785203212405,-0.2783708755424781,-0.07642070557802676,-0.40973288526750307,undefined,1497841116138
903d185fccf839df,0.18841665564304394,-0.4906347823611822,2.8783021148305927,2.924237431929814,-0.49177065569600636,-1.7300737852973613,1.9308711883977008,-0.07220129762606595,-0.3136684725248363,0.24526586057442976,-0.5195137436998102,0.08499188383563688,-0.5650066844919787,-0.17532149029258812,-0.5886531139786535,0.4376149151321607,-0.48028692971891196,-0.06583337426525786,-0.5550171402855263,0.8456829887456454,-0.17802966664867997,-0.22855355636249522,-0.02825304331634201,-0.30925139447119016,undefined,1497841117603
903d185fccf839df,0.11357190303398358,-0.4841775296978699,3.04227127459857,2.899898262464197,-0.4932723711125731,-1.7029707568251282,1.9406935100957878,0.0013625289199094752,-0.38505605243412183,-0.14580659901303805,-0.3565994975773217,-0.027584967336127805,-0.5693585672905526,-0.11606807052291378,-0.5539162102188517,0.4598416137948564,-0.4672255927329177,-0.03337070622623312,-0.5229227680234584,0.8546602815792427,-0.1483365165347706,-0.23889413215830824,-0.07706377863781125,-0.3393832667018028,undefined,1497841119114
903d185fccf839df,0.02209502535174393,-0.4736113181876696,2.36853109521474,2.3277002407360325,-0.622347582718177,-1.6861536491503053,1.9295457575005661,-0.20765550974147268,-0.4327212940462829,-0.6047156056738867,-0.14718057959642644,0.04017192421902342,-0.6650999888591801,-0.0901447382260049,-0.5476004001651357,0.637655118302257,-0.4695044346825418,-0.026854106429210226,-0.5160728907012586,0.7821336038637907,-0.15743436677928216,-0.23926449368514546,-0.05328201116123471,-0.3636013734172554,undefined,1497841120627
903d185fccf839df,-0.016713416009116605,-0.38555895155749215,2.1745758085103963,2.1128876241189043,-0.5892584969078307,-1.7264820957768439,1.8702199614554353,-0.6693112042855035,-0.45809544149280224,-0.17078875897785498,-0.14374052831116635,0.018089393499568174,-0.9479723707664884,-0.16884061189065,-0.5939162571204037,0.44165617675267504,-0.5908781506973734,-0.10639587927193998,-0.5572211357239137,0.7728021479965368,-0.20738589257858933,-0.24196443895114464,-0.1906223871156342,-0.3830700336177244,undefined,1497841122095
903d185fccf839df,0.012392794242594724,-0.3344885590369544,2.3117480059203226,2.192781803723103,-0.4023982367594383,-1.713443013565225,1.9893685759251076,0.1627366705281901,-0.5028880464209503,-0.020729452992845416,-0.18982589441872233,-0.00437969246499919,-0.9871393159536542,-0.2873473478238023,-0.7002321844280001,0.29011049120487675,-0.6937523770726807,-0.18455073661882082,-0.6287005552179707,0.633523209984935,-0.2931434788856201,-0.2959574446050649,-0.4321584658827784,-0.4768497562333292,undefined,1497841123607
903d185fccf839df,0.3699846392471756,-0.4190188649063959,2.510169749510782,2.343596738201481,-0.003045761891427564,-1.71043130647597,1.9088281422447233,-0.15155613585127994,-0.26370345508042065,-0.772003272004672,-0.18742351849593683,-0.015375958142520506,-1.0437137923351159,-0.3512298924475779,-0.6581268773248544,0.30223427606641967,-0.6862597633158976,-0.2683355796657635,-0.6448631877191547,0.5078719001108293,-0.3438546424136512,-0.39252150984540096,-0.5319690142317929,-0.5675906629116984,undefined,1497841125112
903d185fccf839df,0.6721358143014875,-0.44073847829287194,2.544622079196315,2.3318818534313266,0.17556536942016207,-1.6641353488998882,1.920328288242193,0.0648041517055931,-0.26145376203385484,-1.1870283743482404,-0.019943870054974364,-0.0852661088851502,-0.9349167223707665,-0.35956234308650925,-0.6960216345758777,0.2416160301120219,-0.7200859936037816,-0.33799162641487435,-0.679616348193882,0.5646305705104847,-0.36758042986707856,-0.4902069706201904,-0.6617169391389215,-0.6527363066388315,undefined,1497841126608
903d185fccf839df,0.6097651468709592,-0.39729928074791226,2.737301852551502,2.4697090078222588,0.23969668512762596,-1.6944340937692939,1.8597533455032875,-0.3357757533516598,-0.24466096708840948,-1.0029230834603242,-0.06556194106834393,-0.030159903079614192,-0.8739903631907309,-0.2919765115302272,-0.732863769088338,0.20322445455559823,-0.7715314928818011,-0.3260603610581878,-0.7198899919548254,0.5278898821796345,-0.379643720128468,-0.5008978824675733,-0.6339003965264612,-0.6280597745017282,undefined,1497841128143
903d185fccf839df,0.27157762606303776,-0.37205760660070025,2.5344139062118756,2.3707688543560748,0.11428317929910004,-1.7234191477687544,1.8117436115700953,-0.8079666456877467,-0.3903817136686251,-0.25410314315633664,0.03167910924032123,-0.008936629207606496,-0.8957497771836007,-0.3364165375051593,-0.7391795938665217,0.0920910460362846,-0.8022719522215895,-0.3572564407935941,-0.7355348605734765,0.541301926978667,-0.3955912833500168,-0.4925543817419815,-0.6633335069837515,-0.6376541882567424,undefined,1497841129606
903d185fccf839df,0.006848672038912246,-0.3468159616814806,2.4878394981757963,2.4053378514507995,-0.22372539244592513,-1.7792673159965597,1.9571692507934877,-0.09108049276928294,-0.5059800815895434,0.13663859968749378,-0.24803055639793556,0.0402231819426989,-0.8957497771836007,-0.32900987298472456,-0.6697058231580869,0.1284619483853688,-0.7440998283981232,-0.35588852444990415,-0.6966885666840378,0.50454583687718,-0.38748359419940875,-0.5232217579231977,-0.5850415176069902,-0.6284943363253077,undefined,1497841131097
903d185fccf839df,0.08446548574981384,-0.32450939175286786,2.3627891249794675,2.219961170852556,-0.2659687482164034,-1.7980526283292475,1.8873899760289068,-0.5638538389775277,-0.46778191720623497,0.3699524079037204,-0.3361969823325827,0.025604978395971822,-0.8957497771836007,-0.32345488430747943,-0.6707584532588837,0.21736868650670832,-0.7709949949186201,-0.3551665699447948,-0.7171682325054468,0.6135360295726802,-0.3771500336223771,-0.4839423926056354,-0.5978604465489581,-0.6612059943579458,undefined,1497841132613
903d185fccf839df,0.024866982937355963,-0.32744443751548247,2.283675784350064,2.290435104803448,-0.4053296532275296,-1.826052411886654,1.9297798199602874,-0.38553945927097727,-0.5953666958343157,0.14041045089844179,-0.26314318840521855,-0.03877741661243731,-0.9175091911764707,-0.36789485847931336,-0.7612848701566575,0.08602925253203851,-0.7796452729315217,-0.4342333717902533,-0.765684120084705,0.49777051355731755,-0.4565254069548054,-0.48754506271848674,-0.5905331290618383,-0.5829578982461978,undefined,1497841134116
903d185fccf839df,0.18841675915927314,-0.3661873981635017,2.3627891249794675,2.165812987806545,-0.2936887096351339,-1.779469956953088,1.886966579242543,-0.5890676278472192,-0.5126921027828082,0.1657089706885376,-0.2009611930755487,0.07820147841431849,-0.7782489416221035,-0.4549232993398607,-0.7170742807652167,0.03551394864351499,-0.7996204321551061,-0.45527774417835676,-0.7350870650138076,0.46183054207415725,-0.46799885613903697,-0.45342879302659433,-0.5685315335264751,-0.6301840978232425,undefined,1497841135606
903d185fccf839df,-0.04443375098425112,-0.366187427391494,2.258793235632019,2.15806769314266,-0.3204520920448944,-1.7634727428184729,1.9144164960791672,-0.4365075159848341,-0.4871788246948993,0.10998484542910347,-0.10016007350079688,0.0773257159116659,-0.4213945521390374,-0.49658581155000847,-0.6760215964006341,-0.0816811685858801,-0.7389810827190648,-0.47103410823041797,-0.7477652863101125,0.40841333605952174,-0.4910915972651934,-0.4521663866827608,-0.5395086119128358,-0.6284605677525287,undefined,1497841137100
903d185fccf839df,-0.05552185736997714,-0.4108005672487195,2.0941861921209886,2.0302067630572336,-0.2798133014674941,-1.7707492882896558,1.9136249252366102,-0.45317113653955715,-0.43272533305101885,0.20362130833924982,-0.16988225344699273,0.010832460424553448,-0.6520443404634582,-0.5984275166975526,-0.7623375002574543,-0.04935161265147482,-0.8337988258928003,-0.5060552874086487,-0.7942101173193388,0.2912619622829729,-0.5423554229335757,-0.44265726086261464,-0.5975041370234574,-0.6256195278636976,undefined,1497841138640
903d185fccf839df,-0.14284083317920848,-0.4454345690498507,2.4578528629655314,2.385735941310605,-0.4200073448399291,-1.7838302960615144,1.9140325510586058,-0.4939867047378202,-0.44080154989647125,-0.13068234386660102,-0.17344891985167485,-0.027843568962183433,-0.9088054255793226,-0.46603331554667465,-0.7486532868603943,-0.0938049251827015,-0.7366716401996615,-0.4383497866311646,-0.7426856007817245,0.2778037234130587,-0.5030340061886287,-0.40069426985949574,-0.5318635623884028,-0.5910546290534395,undefined,1497841140087
903d185fccf839df,-0.15808697945958175,-0.4366293440780299,2.283037646470062,2.2985493843325844,-0.5978881921219075,-1.7658904943180693,2.0316742902386533,0.285338452540854,-0.34961781587081947,-0.6254325079389595,-0.09961018003151072,0.051944107432878965,-0.9001016599821747,-0.3956699054717355,-0.6823374064543501,0.04763762044617177,-0.7094952376520536,-0.3460281327221547,-0.6876766744889747,0.31317395288588734,-0.44073307536359757,-0.3487431923643352,-0.46755280319780795,-0.5512029796221705,undefined,1497841141601
903d185fccf839df,-0.347970904831369,-0.452478719799315,2.185422119374838,2.1578499878738135,-0.893355124940875,-1.6991601183768843,2.098042702578232,0.7517499562287806,-0.3869842748507965,-0.6493435909828379,-0.037423990712120325,0.057276936884431674,-0.6389886920677362,-0.37622737387211747,-0.6539163127482643,0.16685343914762787,-0.6363018866015931,-0.3443752324789856,-0.6926094260836274,0.3158840799037002,-0.44445873247831746,-0.3259528110737735,-0.43291231485679776,-0.5021509030232368,undefined,1497841143099
903d185fccf839df,-0.2675821335348554,-0.3315534840463475,2.424037908749153,2.3209830662637922,-0.8609140367416129,-1.7071494091741084,1.9445856265546362,-0.22403681681990284,-0.49089299953014986,-0.4949361591331632,-0.06472331052025089,0.0418630720217977,-0.8000083556149733,-0.4354807418386936,-0.6581268773248544,0.32244024499233276,-0.721376398195856,-0.31535135224221494,-0.6497189760518877,0.3967721194468264,-0.40604961944589135,-0.36057239498360266,-0.47899310017849894,-0.4524119399468535,undefined,1497841144602
903d185fccf839df,-0.17610515233638652,-0.3849719657873631,2.357685038487248,2.231519511964032,-0.7702970455826399,-1.7773037656755637,2.1412977487065867,0.9619304640402527,-0.496543229330196,-0.48661660128259265,-0.12425888658445146,0.006511775860584501,-0.9566761363636364,-0.5243607937885578,-0.6128636283836817,0.2456572917325362,-0.7349828889112292,-0.33438818178356505,-0.6165051147774815,0.2971595746566532,-0.4204940467335535,-0.2840099723907307,-0.5612308203631009,-0.4883724662567853,undefined,1497841146105
903d185fccf839df,-0.09433026422542794,-0.412561641471076,2.499961576526343,2.414605528707425,-0.631028712010903,-1.8163977181287874,2.112898477009673,0.7485038553592527,-0.3949711322129143,-0.26596427258278105,-0.2040171238711686,-0.07813239889007323,-0.8739903631907309,-0.515102466375708,-0.6107583829065556,0.148667973840725,-0.8070477612844823,-0.38712893614753535,-0.6243835244607945,0.30250283602079087,-0.4426280470526692,-0.292636127855833,-0.5910854278059022,-0.5750989665409295,undefined,1497841147608
903d185fccf839df,-0.015327402710900852,-0.459522929004764,2.7162473687026214,2.6564622453434956,-0.48097068044734426,-1.7840865131410935,1.9562146352787495,-0.1905598496037679,-0.38579717629490373,-0.1421374983475831,-0.2937241377286438,-0.15516848483828086,-0.5301916221033868,-0.4864016332647893,-0.6770742485881323,0.14664744195699322,-0.8384669429188865,-0.40612776758388786,-0.7005857914189497,0.2545366774324729,-0.4731255003956223,-0.33165660586124035,-0.5749660545916397,-0.642586762985504,undefined,1497841149090
903d185fccf839df,-0.06522408847912635,-0.3744056958211781,1.9895524190304879,1.9515584827738532,-0.1597997922076288,-1.781344997016468,1.8686420877574224,-0.6976000547727582,-0.45911803546793634,-0.15591106475870672,-0.22497893598744015,-0.1495100432033882,-0.07324392825311943,-0.4901049331480703,-0.662337383003574,0.019349100014508503,-0.790881333302161,-0.44055364879408393,-0.7193162552491197,0.25159556999044386,-0.49528377653085365,-0.32254981624374507,-0.5819013100073415,-0.6409986598974897,undefined,1497841150601
903d185fccf839df,-0.018099567328971295,-0.35033808089820123,2.4993236927832903,2.2232244638253302,-0.27949443814755337,-1.779432692231551,1.9035159465808105,-0.47534517852621966,-0.5961292249989859,-0.1748419392479146,-0.1889054847999097,-0.1411947857895583,-0.4779690285204991,-0.45677496223227576,-0.6360215568613158,0.025410921783476127,-0.734401920770582,-0.40414555487852766,-0.7072187684787122,0.33430061754766516,-0.4561935304667542,-0.325315253565121,-0.5636190189780406,-0.6527458615872368,undefined,1497841152158
903d185fccf839df,0.12327406513231332,-0.40434346072536886,2.5510024414485386,2.6875294764887294,-0.46609755752041415,-1.8050217131749167,1.8560742491482447,-0.8344069869508414,-0.5535534440253915,-0.3426292175943824,-0.24731639815177298,0.008490112913355104,-0.8826941287878788,-0.42159326367019345,-0.6339163187464235,0.11835900631949456,-0.6683564133043125,-0.37588796066615804,-0.7173851345418317,0.4717471404838472,-0.4245250144745404,-0.37301040929863144,-0.46464862743019014,-0.5801878277854159,undefined,1497841153604
903d185fccf839df,-0.10957647951662068,-0.5199855614952439,2.824071068782285,2.8691114472701607,-0.6308127086621285,-1.8194606676431897,1.9586813951177364,-0.1917406442123836,-0.5005647438315606,-0.6179314496929181,-0.3318495837527112,0.02516425049263271,-0.9523242535650625,-0.31419647918998234,-0.6507584003591725,0.2618220273026565,-0.6150893989416013,-0.29273640827185177,-0.6775243032587867,0.5204986184840816,-0.36726496977619805,-0.32229061505548395,-0.45802641971411845,-0.5640096064983481,undefined,1497841155093
903d185fccf839df,-0.10957644501121094,-0.3879070115499777,2.8821304338367066,2.819068241915256,-0.71929028140081,-1.7932404215127051,1.9154079377463318,-0.41688156080139777,-0.2962213509766979,-0.9699993714885042,-0.33988328278403,0.04650476067310971,-0.7260263480392157,-0.38085657643086596,-0.5402319820973241,0.16887419714913193,-0.6559444028813785,-0.2655554139032888,-0.5727890411112304,0.6285495102210612,-0.307614762659064,-0.26055099016260325,-0.46242501510852946,-0.5762600645666199,undefined,1497841156606
903d185fccf839df,-0.14838492087748123,-0.38262387656688523,3.1819957693915555,2.8803293084157335,-0.7173565654042877,-1.7934640285478387,1.8680267229127445,-0.6767464063680307,-0.25529518654776406,-0.8373910335646457,-0.43361709608943766,0.024552681879050832,-0.8391753008021391,-0.33549068663278997,-0.5939162718448714,0.1547299369333003,-0.6260049487884267,-0.13888387444594805,-0.546746910936482,0.5997390229374504,-0.25112884205903246,-0.2830879818786154,-0.468664323611161,-0.5702682771026317,undefined,1497841158103
903d185fccf839df,0.07337748288031704,-0.44543448136587366,3.2796112964867796,2.914402396025488,-0.6489978222224526,-1.8152517324843402,1.973623938136292,0.004939427878609579,-0.24438687016580907,-0.7119470450551141,-0.513169661469346,0.016684667824448905,-0.8391753008021391,-0.3003090269230313,-0.6391794618881738,0.23353359166515789,-0.6316755001971356,-0.15604615116942716,-0.5398410591150348,0.6056674256054918,-0.24947010372573525,-0.2998217489204851,-0.41806414334886055,-0.5884934964417281,undefined,1497841159603
903d185fccf839df,0.444829391856236,-0.43839034523040554,2.772392320117037,2.784114912012653,-0.5941750604843209,-1.8718825254372702,1.986499462441314,-0.05879925363795372,-0.4823212797068151,-0.3933453336849931,-0.18555591501023408,-0.009125083164026576,-0.7347301136363636,-0.32623235921994015,-0.6907584472607247,0.27394575563475637,-0.6789484834020633,-0.18725489809884138,-0.6145530051240095,0.4722244958198072,-0.30198492636159624,-0.29869116719923405,-0.5158113045101974,-0.5623773169393023,undefined,1497841161094
903d185fccf839df,0.3491943707631199,-0.3867330253957234,3.0741718151749424,2.844588990757494,-0.5319363067903096,-1.8668746606305124,1.8271884512402947,-1.0573671194877017,-0.5458945523616898,-0.3779957608897732,-0.21380110305603423,0.019991876237631705,-0.843527183600713,-0.30308647593394294,-0.7476006493973637,0.21938927491988316,-0.719697458400969,-0.21849531079307238,-0.6427291618025753,0.48435847162575724,-0.3266272231302283,-0.30594972518537517,-0.5379906616983398,-0.5329821626951411,undefined,1497841162641
903d185fccf839df,0.44205733075439474,-0.3591432912560259,2.2638970679872896,2.430234092147847,-0.466560419994736,-1.8695253348106022,1.9007178252202734,-0.5814508313037905,-0.5164554032983659,-0.6475558514957687,-0.09545760347275455,0.04433871154987831,-0.9697317847593583,-0.3919665537853563,-0.7454953891957701,0.2699044940142421,-0.7224770800350807,-0.2420665286995184,-0.6884883048687563,0.3432933156924866,-0.3728058863741324,-0.39243711925579866,-0.5897091006009073,-0.6114480338862106,undefined,1497841164095
903d185fccf839df,-0.08047020025408988,-0.38321083310902193,1.9436153864635624,1.9840119067511457,-0.7485530833276518,-1.844651389392912,1.9456007306916039,-0.3416798333394979,-0.4150966955664744,-0.7553546715145613,-0.31035803716749727,-0.09834396656067662,-0.9827874331550802,-0.4614041000371516,-0.6970742425899731,0.16887405582552426,-0.8702028371413622,-0.34809267186268444,-0.6727034994025144,0.31577629164716386,-0.4207963198607802,-0.41471272681294635,-0.571474964503842,-0.6236015274854912,undefined,1497841165605
903d185fccf839df,-0.17610508332556707,-0.35562115742530903,1.5965375049926323,1.7464898632101242,-0.7942318603405699,-1.8219715871761937,1.9427947209681977,-0.41678250084115925,-0.4205986934384436,-0.3573797073154941,-0.20490672246108294,-0.03928075719277035,-0.9392686051693405,-0.44566494602546186,-0.730758523611212,0.18705952113242713,-0.8893742020434523,-0.35212675862957293,-0.7265509562275092,0.26884182925376715,-0.4480741688489666,-0.39643803160917157,-0.6151967071252785,-0.6968123005893966,undefined,1497841167099
903d185fccf839df,-0.34381293394754125,-0.40258241573100473,2.0514395948171247,2.064134152577764,-0.8378946434346517,-1.8054596110951522,2.0299990970521358,0.14330484518054032,-0.45208145732193344,-0.6464356223759506,-0.22885452944813198,-0.011900212046326207,-0.9784355503565063,-0.4678849266359915,-0.6960216198514101,0.15270926372596083,-0.889409434376412,-0.4157475104693794,-0.7277264200938843,0.22581857744250017,-0.48525311109472213,-0.4037088018804742,-0.632187166603004,-0.7253219576612595,undefined,1497841168606
903d185fccf839df,-0.32302266546348546,-0.42430197066149605,2.180955916625671,2.1514550127585066,-0.9627938682642578,-1.8134069756598452,1.9237601977369585,-0.6187566181554613,-0.3842358192167411,-0.8178212352380786,-0.14415341346902885,-0.0038304927504311825,-0.9653799019607844,-0.49565993477609,-0.751811169800551,0.10017348448314861,-0.9017354705587936,-0.40022546590919494,-0.7667336403153996,0.26012631325063557,-0.4854011774856005,-0.4009662685710359,-0.6104569705605932,-0.724072657662034,undefined,1497841170108
903d185fccf839df,-0.2828282798152287,-0.4636320047636214,2.7570803147773275,2.721731816384273,-0.9433024696336456,-1.885536525437888,2.0196955239390064,-0.025297110480127432,-0.4777937629966378,-1.1097789021578657,-0.26053492458880456,0.0141481578358448,-0.9697317847593583,-0.393818255530095,-0.7876007110233834,0.09209098950684153,-0.823851062777872,-0.31832150417232147,-0.7773058211646839,0.28508718891689083,-0.44432195725734136,-0.3674128384637761,-0.6021469427844375,-0.7209554765466308,undefined,1497841171600
903d185fccf839df,-0.26065199803295713,-0.4084525803262148,2.7098672605873473,2.556749005879423,-0.860461464561527,-1.8645570672920782,1.9576426264159226,-0.38204997809191366,-0.5249450607562317,-0.765472715323951,-0.22112671595086664,-0.0005480571147113381,-0.9218610739750446,-0.36696904645926764,-0.7633901377204849,0.07794670102628835,-0.8227731682764682,-0.30164685945012903,-0.7493955417885177,0.2606806541903709,-0.4342177878260666,-0.3592911626525968,-0.6173278919723098,-0.7197697369311435,undefined,1497841173101
903d185fccf839df,-0.21629960699546283,-0.23176089052372312,2.3015400870728326,2.3586904194801876,-0.8811151453670719,-1.8498292877026103,2.006417638132764,0.005008867296466256,-0.5132008469258432,-0.6540300949908849,-0.17094144849777695,-0.040732534558240295,-0.9479723707664884,-0.3715982490180162,-0.750758547061988,0.0476375639167287,-0.7884130172612399,-0.21739337669966627,-0.7120745530494524,0.30989408801759655,-0.3827163468494527,-0.34181272775816024,-0.5958598560970578,-0.6761866491464434,undefined,1497841174637
903d185fccf839df,-0.18719325872211254,-0.19477884334410253,2.0961006057609954,1.9679867818835084,-0.894805410495891,-1.81159016666797,2.0789134972564858,0.5746151397815664,-0.4910827480829131,-0.47689857757670023,-0.22253473837316456,-0.06722703425428919,-0.843527183600713,-0.26975646616582477,-0.7097058921463404,0.1506885339891783,-0.7114129082483008,-0.16678682389543373,-0.6516920754956984,0.3717958372846636,-0.33890193042318184,-0.3033545417253201,-0.47839937709095465,-0.5936414970575083,undefined,1497841176098
903d185fccf839df,0.07753548826955456,-0.22002051749131452,2.014434967748533,1.9366773977611362,-0.8146798346272786,-1.8075512664984406,1.9243282271668118,-0.40638599980887347,-0.4013049068841138,-0.6077952118061405,-0.2601818859271499,0.07333397441901676,-0.7738970588235294,-0.2679047644210861,-0.7760217136545143,0.23555412354888966,-0.7483507015660669,-0.1551468750275571,-0.6796093517439118,0.40950662753054434,-0.33298105716296567,-0.32064375261534883,-0.4858453665180323,-0.5557057708352483,undefined,1497841177602
903d185fccf839df,0.16485446407878587,-0.32568336329312597,2.2702774302395134,2.1803459143006636,-0.5260837479741497,-1.8119791499177087,2.0213207398607347,0.2629180695729362,-0.47583697170471817,-0.3965328617980016,-0.2952562943952802,-0.03524916237581264,-0.7738970588235294,-0.26975649206737384,-0.6865479857554077,0.32041968484387945,-0.7047360723606493,-0.16786342750417343,-0.6256919274218564,0.5178038969121165,-0.29995311986885376,-0.2981003036917906,-0.502335787342791,-0.4311228166945115,undefined,1497841179100
903d185fccf839df,-0.04443378548966086,-0.3931902049890549,2.34237252487364,2.2295339921051114,-0.674094927865584,-1.8449588494190714,1.9562093657203647,-0.3025955025508023,-0.4330430084742374,-0.31721643001959277,-0.21905204096208586,-0.037681702007342326,-0.8696384803921569,-0.31327070602226026,-0.5928636196573732,0.26990443748479903,-0.7313542262200325,-0.12619266032713725,-0.6230891135861035,0.4358071743182989,-0.2920267864535597,-0.3465599550042332,-0.48686465277231755,-0.40189766461695897,undefined,1497841180598
903d185fccf839df,-0.04443378548966086,-0.5117672784515637,2.5771610117896384,2.4503214221917844,-0.6064356054846465,-1.8651067679060518,1.9425659327807083,-0.3799573434003999,-0.48092851730104946,-0.2001262482661244,-0.2631084005565765,-0.0757004376132306,-0.8043602384135473,-0.32067735759192045,-0.681284783715787,0.18099772762818103,-0.710831232457649,-0.21636111274358075,-0.6520069322665336,0.3383504119983044,-0.34934431404065025,-0.39216242492823133,-0.4633085893967963,-0.4612109687985596,undefined,1497841182096
903d185fccf839df,-0.041661724387819614,-0.5375959529829009,2.661378438911261,2.457384858264166,-0.6326229916609823,-1.8671681452911308,2.025141839579564,0.10549203373765291,-0.42708450138958204,-0.22909147465420363,-0.0995131821602455,-0.009297322985901088,-0.8826941287878788,-0.37622739977366654,-0.5918109969188101,0.05976126398410702,-0.742731664090949,-0.12412812150773402,-0.6204583124273222,0.2880282942991865,-0.3008511852204069,-0.2796102939816327,-0.5600494454602807,-0.48998436730806627,undefined,1497841183608
903d185fccf839df,-0.10680434940395997,-0.3503379932142242,2.709229122707345,2.672176212074795,-0.6802766231014418,-1.8386303066313172,1.9877249644731558,-0.04537867416855859,-0.3395128269923697,0.3426639083073927,-0.25868848393550237,0.0020014290405698156,-0.9218610739750446,-0.27901481948022366,-0.49496876260508654,0.09815281127580916,-0.5901037627225674,-0.07400286996470358,-0.5675554260677599,0.3622949978309227,-0.2506446365629044,-0.23725659479094188,-0.4042406566864377,-0.5285831083220741,undefined,1497841185114
903d185fccf839df,-0.06660992925029342,-0.38966799808835717,2.7130571875765095,2.8661778634915636,-0.6812023400079911,-1.8420100324940605,2.0190722505666647,0.18710056333241587,-0.3518077223952533,0.33143348008017764,-0.34530380421441464,0.013758478296736097,-0.9610280191622104,-0.2512398113401252,-0.5202319439220805,0.2880899875858665,-0.5684419943711321,-0.0415212015443804,-0.5746571886488075,0.424674100481915,-0.2313035797376316,-0.25258318342878217,-0.412973924267649,-0.6220777969253024,undefined,1497841186615
903d185fccf839df,-0.2592659502293317,-0.3503380516702089,2.790894506582858,2.8483814910589005,-0.7161222835061264,-1.803661437409623,1.9687272385874943,-0.07119899248058707,-0.37084281094491894,-0.2723822077555041,-0.47134631165986,-0.006136250415187124,-0.9610280191622104,-0.24105563305490604,-0.5191792917345823,0.30627542462804785,-0.522709743135439,-0.08594680074366506,-0.5988941419109922,0.48240287194847536,-0.25299026338840763,-0.2145548002615238,-0.36981637768102366,-0.5920394093096607,undefined,1497841188101
903d185fccf839df,-0.43806183822621236,-0.41373575915129573,2.609699690246013,2.5047522422419464,-0.8961116973166353,-1.833825084912124,1.8696256295389773,-0.8523630669584692,-0.41994607433039666,-0.6280478726727237,-0.3913608722103655,-0.04378469000546552,-0.9784355503565063,-0.2216131532583862,-0.5760214644222862,0.3749761372940312,-0.5311279532784893,-0.020293173856072606,-0.5653724204319451,0.6081003821668992,-0.1968308492099147,-0.19512917228593274,-0.4601864146951962,-0.572300808337539,undefined,1497841189602
903d185fccf839df,-0.4131135988583288,-0.42547594220175416,2.2709155681195154,2.2376080570502084,-0.8683403123119886,-1.8250508422005016,1.954334309303774,-0.2388762034828521,-0.3938521376271676,-0.5733194047703528,-0.4186484962511121,0.01673678342986834,-0.9349167223707665,-0.2419814839272754,-0.5939162644826376,0.3325433849112578,-0.5901020799171456,-0.0929383693011459,-0.6473610498444199,0.5889601159714816,-0.2604603201185766,-0.3665232341129412,-0.4158949200583413,-0.5907656517410175,undefined,1497841191101
903d185fccf839df,-0.2800562532187972,-0.4389773748425231,2.1777659896365082,2.1268332400033847,-0.786939308160124,-1.8494449653024474,1.9873778280590306,-0.08511071975643278,-0.44220847028236376,-0.6539916450225297,-0.32365374203951863,0.05883081935113507,-0.8304715352049912,-0.17439563942021877,-0.6518110525466707,0.35072876542399606,-0.5168524105025487,-0.07647271542433695,-0.6689462115580127,0.757757878117317,-0.22333621083162222,-0.39152933195070916,-0.5409268096989585,-0.5853367302491383,undefined,1497841192605
903d185fccf839df,-0.128980562175412,-0.4659801524400839,2.4782689547974606,2.479770209930247,-0.63327099527363,-1.8138448715545998,1.9612533332156057,-0.17250360596249206,-0.3724514910051237,-0.9668264487138427,-0.03641801209832934,0.03531433319711794,-0.504080325311943,-0.21420647578717691,-0.6623373535546389,0.510356974212823,-0.5896722285160944,-0.15374096292641606,-0.6287355391989493,0.7423440340236497,-0.22726507114134725,-0.42414444126216744,-0.7020486305305597,-0.6935673097070291,undefined,1497841194123
903d185fccf839df,0.017936916446277203,-0.27343894077634545,2.2511368517567405,2.2969320922130914,-0.47326669197516913,-1.7945424653348716,2.071339638926304,0.596853969174083,-0.26574705111145897,-0.780367474491356,0.012092651969817191,0.06608455089083805,-0.504080325311943,-0.10866141895325358,-0.6381268391496108,0.6113872993426547,-0.6106945488130229,-0.09262805544852037,-0.660920868295754,0.8165029454082422,-0.19046553754614992,-0.4662272078445908,-0.7057039761853627,-0.6503465291967975,undefined,1497841195603
903d185fccf839df,0.024866982937355963,-0.15310080770547635,2.330888330266146,2.2981959971792616,-0.4886129474033783,-1.7070003359542065,1.9349158177446135,-0.1233171864648037,-0.402982816367594,-1.1331661528495134,0.03752652767145799,-0.021650216640387923,-0.4649133801247772,-0.04200134761391904,-0.7191795704157455,0.7508092282936315,-0.5084425925142088,-0.0751554636266659,-0.686620155508295,0.9189949988506799,-0.16700071453520338,-0.4781052334009573,-0.6974633557525723,-0.6407152427588639,undefined,1497841197147
903d185fccf839df,0.12604602271792537,-0.19008281104310845,1.8523797133466628,1.8387706888141182,-0.5254357450496815,-1.6706595465152805,1.8650366099246538,-0.5755689877305219,-0.4179129390656635,-0.5633607548678059,-0.0378551303047668,-0.21734415691291048,-0.7477857620320856,-0.19754141910001963,-0.7097058626974052,0.59724298259738,-0.5102437934150844,-0.16383567427892215,-0.6879915307031574,0.8264965335546361,-0.22122078029560022,-0.44819817377335025,-0.7217361082461031,-0.6398703432991076,undefined,1497841198602
903d185fccf839df,-0.011169431827073065,-0.12433698511355136,1.7566780916175462,1.78432901907263,-0.5295088798205879,-1.6136467566145578,1.8809258976410683,-0.3771784691332329,-0.4010853533071622,-0.6843039337336567,-0.10299120393640951,-0.1050145863185196,-0.49537655971479505,-0.3447490010948652,-0.7149690500125583,0.61138721454849,-0.5973993751308861,-0.27504849955962224,-0.7312947939162575,0.5920705992591693,-0.32719182794638185,-0.4318699846574822,-0.7188048262933919,-0.5546001442603244,undefined,1497841200097
903d185fccf839df,-0.17333312573995502,-0.22295559248192146,1.3713190531810704,1.367490861930487,-0.7371668185125374,-1.631539973213037,1.9197181672916164,-0.3262401816963559,-0.5309096006751741,-0.6146688966022229,-0.018509549244519998,-0.04819209309121685,-0.5432472704991087,-0.3947440675501407,-0.7686533103111703,0.3951821910141089,-0.6422200723690024,-0.3712079146297021,-0.7682729395646571,0.2887982147002399,-0.44963847932806233,-0.4214610129646612,-0.4974382358835456,-0.5483130518879508,undefined,1497841201620
903d185fccf839df,-0.2842142931134444,-0.2828312392022723,0.7792450200836014,0.8313365627029699,-0.8998659744790884,-1.6392357796359556,1.906174675263752,-0.46875734047242656,-0.5603167107885314,-0.7038002817907858,-0.03810523584422148,-0.022887327127924254,-0.9088054255793226,-0.4086315716201899,-0.8402323412211987,0.03551399104059729,-0.7147599294065365,-0.43425236879972245,-0.8402001554747716,0.018586293052979798,-0.5581236332775728,-0.39529737615728955,-0.41869346363757726,-0.49173757293989345,undefined,1497841203102
903d185fccf839df,-0.2842142931134444,-0.2435011758721547,0.7594663037208265,0.8464289665786903,-0.9711767150855825,-1.66538381995004,1.9496348575850113,-0.2736565216968143,-0.48520787879449456,-0.6344170189632886,0.041214840103019526,0.016548861999007524,-0.8913978943850268,-0.466033276694351,-0.8749692523432343,-0.25949472962272374,-0.7668415463648734,-0.6047415474489412,-0.8843780202615535,-0.3062285142620888,-0.7144339157628316,-0.36559704436160134,-0.4973056238049705,-0.5083547193454645,undefined,1497841204607
903d185fccf839df,-0.3549009713224478,-0.4524787782552997,0.6267600549231179,0.592376921482849,-1.0691274060004023,-1.638483437752865,1.9065270783555768,-0.5762732403527825,-0.3522675783586525,-0.6007645414786803,0.06124635872183203,-0.026151999817499504,-0.8870460115864528,-0.6391642104122673,-0.9391798136498145,-0.6211835745388532,-0.887839359928301,-0.7200454516101236,-0.9409892169301733,-0.5707122133821293,-0.8313906726861374,-0.4377747289911108,-0.62704952014069,-0.5532155372012486,undefined,1497841206108
903d185fccf839df,-0.2689680778222517,-0.36207835163263663,0.6624886603686548,0.7176555595428581,-0.9359379167397132,-1.6628356351079239,1.9557623027978717,-0.2604554315406604,-0.37119588443156515,-0.7533481763694595,0.060314102905015536,0.07745189462830077,-0.8739903631907309,-0.6521258765607217,-0.9444429936027338,-0.6333072039444277,-0.8996187712834108,-0.7340665886461094,-0.9476781671801322,-0.602386815894,-0.8469133634161549,-0.43844802666056304,-0.5988716102192883,-0.5624789467759049,undefined,1497841207635
903d185fccf839df,-0.30223253500106867,-0.27050395346971556,0.9878741742476518,0.8693620855322484,-0.9133710959689307,-1.6600498647985975,1.8952004823644786,-0.5988327372108808,-0.4040599124185023,-0.43509898782324435,-0.06757221730913292,0.1377677120072362,-0.47361714572192515,-0.6641617242137432,-0.9486535213681548,-0.5282355889293602,-0.8779023354269972,-0.7205964184187499,-0.9592019150671603,-0.438978510892897,-0.817679451032308,-0.44433394601389276,-0.5134569276580171,-0.5783470730698496,undefined,1497841209186
903d185fccf839df,-0.2176855512828591,-0.3145300198728349,1.0555035744065104,0.9908047553320919,-0.8224352471074798,-1.630626915328415,1.7950022510329913,-1.0835239983119311,-0.4139954297398449,-0.6454995317897826,-0.23658031320021905,0.1571832863693854,0.21398033645276296,-0.5688008262388772,-0.9412850738514081,-0.2716184014253805,-0.7930734315872493,-0.6499777637434487,-0.9519462223715578,-0.32328999121077034,-0.7606885803304385,-0.4333442885950058,-0.48146383142891686,-0.5571749382061811,undefined,1497841210634
903d185fccf839df,-0.059679862759214664,-0.23469598012832624,1.5499623345457045,1.4149031768313172,-0.8084569836558949,-1.6853500609700514,1.9078051524946316,-0.3466106852171168,-0.38654486115457143,-0.7439975866958851,-0.36253435216639285,0.12914867371511995,-0.6607481060606061,-0.44288738693296653,-0.938127205635719,-0.0129805831111437,-0.6748353744630591,-0.578466163782632,-0.9372459227257761,-0.1051094164976532,-0.6777300286551712,-0.36787508273323144,-0.47882673356528344,-0.5135633264814797,undefined,1497841212105
903d185fccf839df,-0.2842142241026249,-0.27402595577446687,2.186059748980941,1.9815841282092184,-0.796967858541529,-1.7157745830040094,1.8133162229114368,-0.9780950305420117,-0.42413185819404525,-0.7465595436293263,-0.36081428043836855,0.011505730619056192,-0.9392686051693405,-0.3290098988862737,-0.8791797432974864,0.11431768816953718,-0.615846447375022,-0.49242679056079813,-0.9032134349519395,0.06431967858628966,-0.5926710306603352,-0.40982177209166204,-0.4513377891464939,-0.5368396973801162,undefined,1497841213603
903d185fccf839df,-0.3521289447260163,-0.3415327974703958,1.8593979593419396,1.8263665776694868,-0.8569951833472211,-1.7859033174133399,1.9632493601987033,-0.11101281105632302,-0.37537838535143414,-1.1578048633540547,-0.3408125678326689,0.011936331557021219,-0.9001016599821747,-0.21883565244437636,-0.8539165914294277,0.2092862480598443,-0.4646839528206659,-0.3111652771413954,-0.8833145051061716,0.31693117614608235,-0.4597217353829783,-0.39267887843946475,-0.4107420560189713,-0.5143710726549403,undefined,1497841215108
903d185fccf839df,-0.45330805351740516,-0.4348682844696695,2.155435230027624,2.004484694914518,-0.8272489494824833,-1.88312343259522,1.9481516316711658,-0.4563416169547142,-0.44055581971431845,-1.1137772714723853,-0.05947431869882673,-0.0009173905520883017,-0.8391753008021391,-0.06885051783242273,-0.8370744435565745,0.15877117028909307,-0.4775959362057877,-0.15907330275960319,-0.8440204147578558,0.43281987656137255,-0.3455333665155382,-0.33093985204890275,-0.6278877744258519,-0.5715348211181168,undefined,1497841216605
903d185fccf839df,-0.37846326640293504,-0.5469882367948316,3.262385385780963,3.248975682606742,-0.7938410070879507,-1.8921282711133685,1.9514546806980075,-0.3337198878771226,-0.400073880507148,-1.3554588163247143,0.05045824056270227,-0.03185151667395637,-0.7521376448306596,0.31999968678437785,-0.8044428220850677,0.1527092354612393,-0.352811171673152,0.10150833154793391,-0.8079868379049309,0.3530559265648448,-0.2065477739520032,-0.2635207374400837,-0.6750137128522861,-0.5412479017720498,undefined,1497841218111
903d185fccf839df,-0.0846281021270982,-0.6039287500685908,2.8853203608258693,3.032350821645962,-0.6847200452623313,-1.9011703782563294,2.0401790727087157,0.20473654774899652,-0.3935917230173875,-1.0307922503796207,0.2015661059970413,-0.018538943609657358,-0.8739903631907309,0.23389716155007256,-0.7644428046324507,0.26788384907162416,-0.4189011474477896,0.13985430608481864,-0.7816018641746201,0.391290267725346,-0.18241482558086403,-0.2770598267786082,-0.6257156637921963,-0.48372266005710446,undefined,1497841219605
903d185fccf839df,-0.07631209134862316,-0.5781000463092613,2.7877045795936954,2.800835065831557,-0.7020514413612624,-1.8818912646892698,1.9209068449059898,-0.5231647170124698,-0.4798866507263299,-0.9868415303728465,0.05326174368700835,0.01825009981458702,-0.843527183600713,0.11261287299981221,-0.7328637838128056,0.2820281940816204,-0.4728756629031331,0.22898415559975327,-0.7565882651926261,0.4373624129196611,-0.12663042193044943,-0.26865307078504863,-0.6552338963048163,-0.5421030265218788,undefined,1497841221111
903d185fccf839df,0.06367535528739703,-0.6004066308518702,2.378739268199179,2.2790505176940345,-0.7556296369045592,-1.9231374330834707,1.940456812594994,-0.5314147455942184,-0.3905481375287223,-0.7236257883312701,-0.08739952956479011,0.07572704585917134,-0.7216744652406417,0.16445964119982634,-0.7160216653888876,0.26384267224527447,-0.4652863212100608,0.15752955166141644,-0.7567981696473848,0.41075389778839766,-0.16166130229725695,-0.28219314855655503,-0.7406205288782357,-0.5809493569102389,undefined,1497841222660
903d185fccf839df,-0.029187604703877844,-0.5270296830167158,2.3768253628330713,2.302271819867886,-0.8144946870432741,-1.9067838444193665,1.9843114638645165,-0.21966152143977188,-0.44457963165577263,-0.38534440289569966,-0.17538217773121575,0.027394066283034632,-0.4866727941176471,0.015400292706369332,-0.6970742646766745,0.2941517810901126,-0.5108039366743365,0.16645266908693165,-0.7691545375638407,0.42624473509204525,-0.1636157631227015,-0.3421781430473699,-0.619541029173568,-0.5719305198351422,undefined,1497841224104
903d185fccf839df,0.052587214396261274,-0.5440531764182208,2.362788870842518,2.432991757158392,-0.7010948841339658,-1.923952666474935,1.925556340932367,-0.5857123067750873,-0.45498746267944856,0.015243698008245769,-0.24287391396198607,0.04035376375769743,-0.5606548016934046,-0.19661564593229758,-0.749705924323425,0.43761494339688223,-0.6241162387058077,-0.004745797681741839,-0.8169077721703033,0.5182350475958193,-0.26191399418986905,-0.40973052657882947,-0.5569070539399574,-0.5973779138536317,undefined,1497841225605
903d185fccf839df,-0.11512053270948369,-0.5393570418192535,2.44700655210109,2.3294897154984806,-0.7383291139509248,-1.9263913801050112,2.004056059171463,-0.10099813150727281,-0.40931880856572755,0.16966105414322882,-0.18989560201818742,0.020867623127584063,-0.7216744652406417,-0.2521656363109454,-0.8402323412211987,0.3608317922840349,-0.6800221268420775,-0.02601182129913761,-0.8749882988355234,0.480524252665055,-0.2890759601121309,-0.42853659012013423,-0.5850358656712531,-0.6602332295629041,undefined,1497841227104
903d185fccf839df,-0.19273731191497556,-0.5393570418192535,2.528033798096601,2.485747607268132,-0.6853577695255937,-1.9126488682503122,1.9806797136613963,-0.2075106499188063,-0.39244236997429716,-0.18855347498620553,-0.17527893263293942,-0.09347393112546798,-1.0088987299465242,-0.3169740059055413,-0.83602179873131,0.23353350687099328,-0.7111404756029693,-0.05205288482024351,-0.8850846965146084,0.4033318476083176,-0.32189407735674336,-0.45373722157283786,-0.6034998063616414,-0.6038574155010182,undefined,1497841228615
903d185fccf839df,-0.43528991514601006,-0.42782410449221286,2.6001294010046268,2.378613778603563,-0.8127049780031654,-1.881534891112495,1.8700174775877136,-0.9217407127571773,-0.3505496345171496,-0.5024076731629874,-0.3216057358031285,0.04200991662111628,-0.9958430815508021,-0.2577206379389651,-0.8444428542621522,0.2880899875858665,-0.7106778228260714,-0.03457396118972823,-0.8951461102494171,0.39213718012477145,-0.31648439287845354,-0.4514588083697658,-0.6036785126256279,-0.5831283823071831,undefined,1497841230135
903d185fccf839df,-0.4740982184852317,-0.4700892135849451,2.267086994976452,2.1189948964965106,-0.8798705763475011,-1.8711278505987865,1.8741857139825484,-0.8926851741748794,-0.3195613507541719,-0.5996791083890971,-0.3120855528868622,0.05003919576940478,-0.8565828319964349,-0.2910506736086324,-0.8476007813757116,0.2517190287073392,-0.7090185566103024,-0.01542314043945475,-0.8734210129728165,0.4251206506341995,-0.2996198107223141,-0.47255391256469326,-0.5760412204549428,-0.5640764800210586,undefined,1497841231609
903d185fccf839df,-0.5738913829892243,-0.4612840032271205,2.2607073951350762,2.1166527754415205,-1.0048829374448636,-1.8428508873529252,1.9455823210198364,-0.4197123936194715,-0.3637888799185536,-1.0143071008490907,-0.3145293579146017,0.022400977321119335,-0.6955631684491979,-0.29845735107984167,-0.8391797111204019,0.2941517810901126,-0.7516854836289433,-0.03245875694951272,-0.8529903266259602,0.3624489786640244,-0.3091275225734884,-0.5264642669589074,-0.5275751419372607,-0.5606766197412678,undefined,1497841233104
903d185fccf839df,-0.41865768655660157,-0.5205725472653729,2.0023123811240873,1.897442841236476,-0.8921619850386613,-1.868211644745232,1.872744584303275,-0.9403155721829067,-0.40365109588917353,-0.9050401685924235,-0.25349725436939974,0.026718694953340047,-0.8565828319964349,-0.3290099118370482,-0.8402323559456663,0.17291537397548165,-0.8042358118605709,-0.0741421924500366,-0.8266753205334024,0.2941722701551097,-0.33328519887019986,-0.5389909067246458,-0.5522616823580783,-0.5751676677098698,undefined,1497841234608
903d185fccf839df,-0.4990465268639347,-0.6144950054207796,2.0099685108624166,1.9586838898097734,-0.8951859814923679,-1.8884131367548913,2.0056733919679317,-0.1489990115470679,-0.4265015900421147,-1.0005638855404944,-0.07728428977172361,0.0028530636092758553,-0.9349167223707665,-0.3243806833767506,-0.8391797037581681,0.20120386614242336,-0.7395967850046634,-0.1336148680636177,-0.83227276911852,0.18330346671129338,-0.38263055593997825,-0.5408626450400426,-0.4681812813412525,-0.571828154000413,undefined,1497841236141
903d185fccf839df,-0.4616242023175191,-0.6209521850141111,2.05526740554934,2.095132312698502,-0.8419369313431069,-1.917491359391644,1.983125435596435,-0.3337901252858243,-0.39516747457895246,-0.8365924616267143,-0.042717614333166905,-0.03024025927535374,-0.9566761363636364,-0.31512235596390076,-0.8276007726494031,0.10017342795370554,-0.7765742784148745,-0.17135287901640966,-0.8307824488544503,0.11163910039266815,-0.41225517254472144,-0.553772726161746,-0.4563909886492379,-0.5660406792344026,undefined,1497841237603
903d185fccf839df,-0.3784633354137545,-0.652064023756533,2.092272540891831,2.0701134430652464,-0.7913004437484463,-1.8986850808593931,1.9205307912271878,-0.6524641524138163,-0.4157573792636618,-0.3429105760402176,-0.009735938506713135,0.04231571155099645,-0.9566761363636364,-0.3243806833767506,-0.7812848862451998,0.14664752675115783,-0.8007065540011629,-0.16391166900509108,-0.8225052209205815,0.1956684164526265,-0.3927685397556274,-0.5360841538443752,-0.27257720393736834,-0.5603831083200244,undefined,1497841239110
903d185fccf839df,-0.19966741291146406,-0.5017880234835,2.01379708400548,2.1246473320822346,-0.5661979591662867,-1.8877236809388749,2.046995541454442,0.3171319113708223,-0.4926861135926506,0.12554719829946243,-0.09441405204870591,-0.032703505680139404,-0.9523242535650625,-0.28549564607906364,-0.7633901524449525,0.2719250541626954,-0.630175629609786,-0.08666242230509721,-0.796994847913681,0.46430969709515924,-0.305790010300504,-0.48098879056003063,-0.17382129416422074,-0.51087416502018,undefined,1497841240601
903d185fccf839df,0.13852017690727686,-0.5258556530204731,2.5235678494843836,2.4887882440461473,-0.3966073864240244,-1.8328351567046974,2.0115352338398558,0.2480532304014108,-0.5865536704003381,0.41687351436956055,-0.133556929282345,-0.06694817494620581,-0.6476924576648841,-0.08921888735363555,-0.6928637295490196,0.49823321761600153,-0.44695885693064,0.030984671802926713,-0.7464498859264678,0.5798134339376141,-0.2098224965324757,-0.49048656329224916,-0.08231374611914387,-0.49213872915971035,undefined,1497841242096
903d185fccf839df,0.20920688962168996,-0.5563804913787699,3.2011360937373787,3.038361134630875,-0.28555271873452187,-1.8358119258059449,1.8955581592047748,-0.4973541812724793,-0.61790483022048,0.04761780107742532,-0.15888712269294736,-0.10929256116975004,-0.8174158868092692,-0.049407999183579236,-0.7244427135574959,0.4699447819785029,-0.48270177591973185,0.0895390689278228,-0.7280272827597185,0.7354917193919929,-0.15366539155395667,-0.5017539804241766,-0.1634880085321655,-0.5118464386414485,undefined,1497841243609
903d185fccf839df,-0.030573687012913065,-0.56812082056919,2.8770263473444873,2.8758409407209835,-0.45523586818554623,-1.8375239170818318,1.9646773480623707,-0.14158238626735464,-0.48770999035680995,-0.3442099057455154,-0.14713313779999293,-0.011546501633389477,-0.9392686051693405,-0.08736728921509324,-0.7307584941622768,0.5002537777644549,-0.562488665452399,0.13439530927162335,-0.7189804060881948,0.8256034237995257,-0.11366737802015484,-0.5061207271572974,-0.23746059103143363,-0.5424001487160108,undefined,1497841245104
903d185fccf839df,0.033183062726650475,-0.5340739214501572,3.0537552150691147,3.149160833687202,-0.2757607373944835,-1.8140964298232218,1.893893488636558,-0.4135157514273068,-0.2843312303272333,-0.7384681893581166,-0.05839384849398356,-0.025885988946452387,-0.9610280191622104,0.0005869895670489341,-0.7054953275697504,0.6558406118738813,-0.40078642472450243,0.25007919148744573,-0.6628519870822848,0.9439866773447065,-0.019843421816946642,-0.3066082997059434,-0.0906517490486046,-0.3316743933998225,undefined,1497841246605
903d185fccf839df,0.09693967444457509,-0.4800684247110202,2.7424059390437217,2.499423143098385,-0.4603992766458743,-1.8019890439329833,1.9024876957834493,-0.4070331188578546,-0.23432732254938135,-0.9959149344944344,-0.02957840899233414,0.01650434601039401,-0.7390819964349377,-0.09940311744195288,-0.6939163522875826,0.577036815818416,-0.6185161939447966,0.09323750980715279,-0.6987946046536485,0.7159818951099739,-0.15056319205858568,-0.2636860379807218,-0.19440393733054462,-0.28510862133657394,undefined,1497841248107
903d185fccf839df,-0.009783384023447578,-0.4518917048011936,2.3959656871788946,2.257900832612846,-0.46261070009477656,-1.7905524788613794,1.949887315836836,-0.07062887901307231,-0.1470618998939999,-1.3817752499095148,-0.038775191030840046,0.009907270676907153,-0.9001016599821747,-0.1836539409315195,-0.7065479576705472,0.3608319336076426,-0.6105224998869748,0.00705248020400215,-0.6895378242919988,0.670956842402057,-0.2044574784713559,-0.276043118738121,-0.16377922334459497,-0.3187505411385822,undefined,1497841249656
903d185fccf839df,-0.2440198039489584,-0.4818294697053844,2.031661132591299,1.8888726436398653,-0.7040262981274128,-1.8123005862951946,1.980127456505313,-0.1133398049167236,-0.34286559256601007,-0.7403834130164509,-0.1443846528580656,-0.0009058006274059174,-0.8000083556149733,-0.2419814839272754,-0.6939163596498165,0.3628524937560959,-0.5723637562200816,0.016938204819331067,-0.6935539928421207,0.6655519863137727,-0.20443575507763637,-0.22079865234108143,-0.13371570670211105,-0.34541986885263426,undefined,1497841251106
903d185fccf839df,-0.2412477773525269,-0.4859386623762111,2.1981823356053867,2.062939874283727,-0.6705463579961688,-1.8270889267159123,1.9969897652181459,0.020101724776897038,-0.33732343869004644,-0.6995791158889851,-0.19727677610989947,0.0593125609159737,-0.8304715352049912,-0.2910506736086324,-0.6612847676272449,0.391140901128873,-0.6000052257441795,-0.013383930061688127,-0.6992563935903884,0.7125326427915134,-0.21290904113884726,-0.19869733716506913,-0.1713259284400039,-0.38788826788418673,undefined,1497841252627
903d185fccf839df,-0.23708973745787962,-0.5082451738488392,2.2013722625945493,2.1174349044749037,-0.6716469265830254,-1.8677737481383196,2.035540097140125,0.2159380284848797,-0.41584480058257955,-0.4754041808347571,-0.18790277054505528,0.019862626534880794,-0.8348234180035651,-0.2984573769813908,-0.7191795409668104,0.3002136876532448,-0.630579406832823,-0.11032863121080448,-0.7617449134507497,0.5492783184081153,-0.30794019240264336,-0.3943363940631398,-0.3554388260974666,-0.6004705773484296,undefined,1497841254098
903d185fccf839df,-0.11789252480050547,-0.5440531618042246,2.4935814684110684,2.524274487430915,-0.7147234249539165,-1.8920514078813329,1.9693741754771596,-0.2663968288974029,-0.4396099754888807,-0.22943922872575578,-0.22334448640160787,-0.06992008482605516,-0.8130640040106952,-0.2725339669798346,-0.6897058539710967,0.20726571617611253,-0.6989455031420495,-0.1123551726615866,-0.7345203219319897,0.6143675479288346,-0.2884511921181151,-0.4184319655345736,-0.4094450605902427,-0.6285161759767853,undefined,1497841255611
903d185fccf839df,-0.3244087477725207,-0.5076582026927062,2.1624537301598497,2.101297031421473,-0.8849414231809957,-1.8997728355066321,2.0295888482355684,0.03744032281120083,-0.45657291226761276,-0.6365350245467591,-0.08235770639003041,-0.019401468363998427,-0.9653799019607844,-0.23550060552533725,-0.7065479650327811,0.13048262159270826,-0.6569168870434668,-0.11357743245785966,-0.7515155755697898,0.4994489477053994,-0.310793577370108,-0.40727260030160456,-0.42413112230641414,-0.6141408475325882,undefined,1497841257108
903d185fccf839df,-0.3659890777081738,-0.4800684685530087,2.2351869626739784,2.3012420605953956,-1.0060657933604844,-1.889065323241187,1.9640277803217197,-0.4326747914883951,-0.43198407260065386,-0.7632329457471022,-0.046832692875646856,-0.03741823133181771,-0.8870460115864528,-0.2438331079673668,-0.7739164755396221,0.0011637195017702394,-0.6282861410734423,-0.16016256503034848,-0.7940491895252848,0.5021282801478367,-0.3483002506659711,-0.4183559600139815,-0.44688083332966894,-0.5937251278683146,undefined,1497841258609
903d185fccf839df,-0.5586451849507363,-0.46010990016089687,2.528033798096601,2.5584935350442404,-1.1017639193745958,-1.8691759498530034,1.9031267265023757,-0.7045973279696367,-0.37001627606952214,-0.8734895029299327,-0.21356580218306065,-0.03979804539980477,-1.021954378342246,-0.16421138343035235,-0.8202323177704226,-0.06349584460258492,-0.5691128320072507,-0.12421677668978837,-0.8109324936996931,0.36246438083853033,-0.3592730202814843,-0.396183930823933,-0.42133092588506743,-0.5057781724859017,undefined,1497841260110
903d185fccf839df,-0.4560801491246561,-0.4436734948274942,2.41829619265083,2.4787320733760763,-1.0675639803666372,-1.853910116233895,1.9163967310165209,-0.6091929771117623,-0.35607374823378124,-0.7134129427006366,-0.23218482155954107,0.029397419184302255,-0.9349167223707665,-0.16606305927354195,-0.8676007974642538,-0.04328973435306412,-0.6394566546871764,-0.15768005193377413,-0.8380451362750115,0.37783202709186947,-0.38068077641257925,-0.3857864144819375,-0.4258692857771879,-0.527114036194229,undefined,1497841261612
903d185fccf839df,-0.45885214121567786,-0.582209151296111,2.2600690031181245,2.226210528880036,-0.8942705595712767,-1.8634413628687365,1.8734362176384853,-0.8657500825707737,-0.44453732348673936,-0.719648231446426,-0.22099266226988226,-0.08081550471531765,-0.8913978943850268,-0.1901348193334576,-0.9118114015801622,-0.021063063955090014,-0.5804786112077353,-0.18486104645182697,-0.8714968902325297,0.3678538330829826,-0.4045213763782397,-0.40582219371083594,-0.42093708580911454,-0.4833627934251936,undefined,1497841263153
903d185fccf839df,-0.4907304470746402,-0.6673264429356816,2.001674751517984,1.9246486536466456,-0.9112625317349976,-1.9116100298215613,2.004229628295107,-0.2102524479897704,-0.46601273682933464,-0.6910213091666704,0.05880488367206058,-0.0764370519283348,-0.45185773172905525,-0.24105563305490604,-0.9328640477695013,-0.027124829194614567,-0.5864490885763719,-0.20279594457398084,-0.9024857659295373,0.3320062510205049,-0.43037913125603544,-0.39130300349013275,-0.45127922736656345,-0.47767560065935966,undefined,1497841264612
903d185fccf839df,-0.5336969973409674,-0.6279963796055639,1.9257510837407938,1.7402662734947405,-0.9135871010541574,-1.9159214521434047,1.8824643551890199,-1.0253376994992653,-0.515476129798125,-0.592668306994559,0.029179706224067115,-0.030058963945100946,-0.49102467691622104,-0.2577206379389651,-0.9307587433945048,0.1466474136922717,-0.613707222995413,-0.23608189678596625,-0.9011423779965327,0.41785258151608046,-0.4276148369724236,-0.41392305017430503,-0.46531999224959253,-0.5137718576659736,undefined,1497841266103
903d185fccf839df,-0.4519220747245991,-0.539944071431371,1.976792202799939,1.8202595938021968,-0.8758488766374998,-1.898265819334126,1.8714375787907345,-1.0463272042714369,-0.48627645184885865,-0.5980784169533145,-0.12647641994961636,-0.10180023421450465,-0.8696384803921569,-0.29105064770708333,-0.9181271674604754,0.10623524972267316,-0.6515486642683217,-0.30912606958179184,-0.9241968693397021,0.3474354905844484,-0.47606914969164077,-0.4685340036732275,-0.5224721547472829,-0.5329614822541638,undefined,1497841267606
903d185fccf839df,-0.12205059920056245,-0.4976789038826542,1.7049990888153483,1.5001448358022913,-0.6931337520975325,-1.8540731623711835,1.8580203016162993,-1.0404890471344725,-0.4764349452387554,-0.5567389762594106,-0.24344006593217518,0.07515480722075496,-0.7608414104278075,-0.40122492005052973,-0.9370745681726885,0.08400857932469906,-0.7001931752844455,-0.35667381143695387,-0.9483288698576159,0.4216405997420578,-0.4984430066102094,-0.48308537303066856,-0.5038892720737788,-0.5211132777585693,undefined,1497841269104
903d185fccf839df,-0.10819046621840493,-0.44954364480870806,1.5588947400440383,1.5352553338761183,-0.6554572391163904,-1.8452104063204597,1.9322439395205933,-0.5174951681136535,-0.43854981219828376,-0.9233025282409043,-0.21501730882763717,0.022537425453667773,-0.6607481060606061,-0.38733740302970593,-0.9202324423865367,0.10017345621842708,-0.73073904740482,-0.3536783286733709,-0.9199148211932828,0.45379255481665276,-0.48111311769728415,-0.49124683442698447,-0.51371274610395,-0.572112593249088,undefined,1497841270608
903d185fccf839df,-0.162245019354229,-0.5458141921845926,1.9397878298682965,1.876043155174547,-0.6965280259886302,-1.8756815124918529,1.9464054447901096,-0.4918336459239295,-0.365114421977068,-0.9055057095116278,-0.17537429674067345,0.009594646751023573,-0.7434338792335116,-0.44381324428072316,-0.9160219072588818,0.13048262159270826,-0.7828923232212753,-0.415658848028756,-0.9082931174034456,0.40919865644072456,-0.5117653980132045,-0.4709352945637749,-0.5888526653796794,-0.6212480497725025,undefined,1497841272107
903d185fccf839df,-0.1289806656916412,-0.5857312851268278,2.378101130319177,2.2691629758731184,-0.8226923842540667,-1.9090059384533515,1.957400669308201,-0.467501098279578,-0.32802282161141133,-0.757350534131763,-0.044884113249045586,-0.009169746474504348,-0.865286597593583,-0.3456748908195582,-0.8970745065466688,0.20322445455559823,-0.7224649027323989,-0.2814067747570371,-0.8790604420194681,0.3911670765538769,-0.4373438272499097,-0.4700370597600736,-0.6064086805018137,-0.6487875564755292,undefined,1497841273603
903d185fccf839df,-0.2939163516955449,-0.6520639945285408,2.6792427416340296,2.719812426480873,-0.8781528650300998,-1.9430873673785598,1.9835488287164729,-0.3100284159179364,-0.2928212935317463,-0.5754719460939508,-0.1536766656193603,0.001800059877715759,-0.8957497771836007,-0.3040123268063123,-0.8886534362913591,0.2678839621305103,-0.6393300741128092,-0.17799613631388722,-0.8655635941380938,0.38363723744414513,-0.3839165120795127,-0.4573154372902713,-0.5450549996263775,-0.6318523518643809,undefined,1497841275109
903d185fccf839df,-0.35905911473332425,-0.5786870759213788,3.379140983085061,3.3508386642241716,-0.8786980069851417,-1.9247655717316594,1.8639163267431629,-1.041297112800235,-0.30725454328488705,-0.2012764176999315,-0.13608816257289405,-0.044926312582072,-0.8870460115864528,-0.09755138979566509,-0.8444428837110873,0.39518216274938733,-0.6230996577027272,-0.07578875661577542,-0.7882558311898819,0.49786290495696,-0.29490871570841953,-0.4030701327898288,-0.3874374387050575,-0.6004056641675943,undefined,1497841276651
903d185fccf839df,-0.05690790517360263,-0.5651857309645869,3.275783231617615,3.125919749993161,-0.5982790477891556,-1.929100285256034,2.002117896637561,-0.06399128033485146,-0.33682545690713267,-0.4478103970501976,-0.06295659271211768,-0.02920370824175138,-0.9044535427807487,0.009845265176800542,-0.786548066198119,0.46590349209326704,-0.4767822841708666,0.07333306732527335,-0.7803144508693214,0.6828290321289346,-0.19034672619171525,-0.3982356714577147,-0.21601589798531837,-0.5473068183444325,undefined,1497841278105
903d185fccf839df,-0.06661003276652262,-0.5446401914163421,2.9976102636546997,2.8766131033821964,-0.5240266035151404,-1.891045175984714,1.9333063932139283,-0.4206667815010546,-0.43930641773022655,-0.32266970178683396,-0.17532725418143585,-0.08275765820730031,-0.7521376448306596,0.047804529306765445,-0.7897059859494446,0.5770368723478592,-0.42697736767751854,0.14737151359063927,-0.7728278629927114,0.7831345043794274,-0.13662175311157143,-0.37939048495966765,-0.18460807629517229,-0.5037802152625909,undefined,1497841279600
903d185fccf839df,-0.3008464181866237,-0.5681207913411976,3.04992715019995,2.7052451132717157,-0.6852343355256643,-1.8896429743243937,1.9223269464690973,-0.589558437704572,-0.4050496494886358,-0.348471740630121,-0.09832816307325855,-0.028329099028113598,-0.9044535427807487,0.010771219655366263,-0.805495466910332,0.7629328153021238,-0.4378525812070961,0.13380001462558824,-0.7934684552196015,0.8705052855782949,-0.13682533605137956,-0.35682165762378687,-0.17925773786778038,-0.4487729020533038,undefined,1497841281106
903d185fccf839df,-0.43113190975677257,-0.5587285513712554,2.673500517261808,2.515064822449338,-0.772950758295314,-1.8888766542216961,2.0335756292389338,0.09293675716603518,-0.37045432426322106,-0.07541774402494048,-0.1319487554618778,0.07104088026602198,-0.7477857620320856,0.027436172736327164,-0.8170744127435646,0.7366648267541922,-0.41625564323327,0.08505534700228569,-0.7710226854562073,0.9145294424285343,-0.15380464051833578,-0.38996111158614816,-0.06230211139044556,-0.48497171870164013,undefined,1497841282601
