UUID,iqrAccX,iqrAccY,iqrAccZ,iqrAccXYZ,meanAccX,meanAccY,meanAccZ,meanAccXYZ, covarianceAccXY, covarianceAccXZ, covarianceAccYZ,pressureDerivative, pressureIQR, iqrGyroX, iqrGyroY, iqrGyroZ, iqrGyroMagnitude, meanGyroX, meanGyroY, meanGyroZ, meanGyroMagnitude, covarianceGyroXY, covarianceGyroXZ, covarianceGyroYZ, class, timestamp 
903d185fccf839df,-0.883665596678313,-0.37675372658567136,-0.5832289104261409,-0.5902710454797915,-1.0182305605397786,-1.2828086051249803,1.795857435058879,-0.5456919042206997,-0.48675111921311437,-0.6396804170267517,0.04171379566738756,-0.08654653059579262,-0.7194985238413547,-0.7724842753862892,-0.7076006172202792,-0.4171021804100466,-0.9058731243272352,-0.8844673568573146,-0.7177696210869254,-0.25926288598574504,-0.7675915773404643,-0.4215519016070413,-0.6604462698701516,-0.38511293193558505,undefined,1495279608532
903d185fccf839df,-0.30916246347050846,-0.21532442673433577,0.705873395552521,0.5507648605442669,-0.8907750396305368,-1.5677327953089228,1.7882473945437394,-1.1226407924557043,-0.5772435502232084,-0.34880077743562543,0.1174896149067773,-0.7124645117871417,1.600055007798574,-0.6706425378618086,-0.9749693548726469,-0.12411403402753962,-0.8636752153370969,-0.6872586543591441,-0.9457071710033468,-0.033786623099152445,-0.7115267822293823,-0.4729894695964705,-0.6523372444804044,-0.5650809316723989,undefined,1495279609936
903d185fccf839df,-0.0028532830269590824,-0.30220276336827046,1.199694017811713,1.3368859280966316,-0.5103980512382056,-1.6748614940552364,1.7992599159346565,-1.0940727170892772,-0.551530624391965,-0.41569794423415257,-0.02566931167253562,-0.4431895074698304,2.620571524064171,-0.5215832994499353,-0.7360216888396636,-0.01904244727719363,-0.7335844476667821,-0.5769330817653416,-0.8481668704214239,0.20164708463759445,-0.5889548174352316,-0.4414976222584803,-0.42750978067194023,-0.5632067925448924,undefined,1495279611444
903d185fccf839df,0.10109778335004181,-0.43780337407427267,1.6246099806998398,1.8177088809401236,0.028922189913541816,-1.731823038314778,1.7333832763190185,-1.4034349573439873,-0.33168075557037147,0.24455598045683047,-0.031816623169759355,-0.3826256136003719,1.1713945521390374,-0.48732748413715865,-0.7739164902640896,0.41134709617255844,-0.7170108051716526,-0.5051876729012428,-0.8678095715856318,0.42736882442324686,-0.5163950263813192,-0.4608968761800501,-0.4625324739122788,-0.6028850725144349,undefined,1495279613005
903d185fccf839df,0.7705428964964449,-0.5082451446208468,1.9129911216471944,2.0641389019486245,0.5113419587174364,-1.7125881825108749,1.8065313290586489,-0.6472664927042686,-0.4290065463350839,0.5163553328830471,-0.04440479457315947,-0.09710718673243335,-0.28213430258467026,-0.297531539059796,-0.7749690909159512,0.5426864736177852,-0.6840520762026435,-0.38418411613055486,-0.8260945853407453,0.49456764160283595,-0.43188877524153074,-0.46509688473380856,-0.4860051332765552,-0.5815513888634875,undefined,1495279614469
903d185fccf839df,0.7871750560750339,-0.5111803072954307,2.0578194487954495,2.2913554206033657,0.7718169438378739,-1.7388713197424617,1.8423729539853764,-0.38907349977027345,-0.3422223953584562,1.0536178580706428,0.020368704750543434,0.11104140957225415,-0.7826008244206774,-0.21420644988562781,-0.798127034118053,0.5002538060291765,-0.7248678815509331,-0.3298284580559999,-0.822113399841809,0.5981067881374758,-0.38663440113960595,-0.5134232597094909,-0.5016171796335988,-0.622099818346551,undefined,1495279615957
903d185fccf839df,0.1579244665985266,-0.44778262904233623,2.3047302681989446,2.3661608576579862,1.139551182820802,-1.7752167693949144,1.8419416766925565,-0.30837762638251576,-0.37340673718311584,0.5929711631617487,-0.0008305140882752764,-0.013270898547741881,-0.8783422459893049,-0.05774051457638333,-0.7876007036611496,0.694232187430305,-0.5778032741565867,-0.2011747068622157,-0.7839737833126131,0.6843842764787028,-0.2943806804000742,-0.49546717817505453,-0.5345638152159276,-0.6086268183761085,undefined,1495279617483
903d185fccf839df,0.4032489584043537,-0.3914291307666984,2.020814821726858,2.0912489832949013,1.0262542254188927,-1.8038827161451152,1.8969756237954407,-0.02928545661950011,-0.2880342958035079,0.4360138454170634,0.017199886530899603,0.013922895952214947,-0.8391753008021391,-0.03552052101507909,-0.8718113399541425,0.6538199104018203,-0.540480834006465,-0.08823298862752417,-0.8159771964827488,0.7966697405249388,-0.23503296394259643,-0.4472178903166031,-0.6085734302476531,-0.5297686507541253,undefined,1495279618966
903d185fccf839df,0.4877959076171535,-0.43604229985191617,2.2855894355792223,2.0869339657893753,1.0108051107237008,-1.8815814774081483,1.7736982134358763,-0.8937299643933636,-0.26474090119061644,0.2239804816775655,-0.09873124383077743,0.08490316302474604,-0.2908380681818182,0.06169211108146197,-0.7770743584797787,0.5649132570746455,-0.3843317978423256,-0.027576057374243446,-0.7739823388365787,0.6958869184984201,-0.21647563494973301,-0.4260277048191133,-0.4739239027735374,-0.4363759899532167,undefined,1495279620462
903d185fccf839df,0.7774729629875237,-0.4548268090197929,2.3398207357644796,2.3466845413995387,1.0271079491299133,-1.8666650292884581,1.7904895216452779,-0.7366762177073546,-0.27864619135746665,0.3786637439358273,0.09973676118760344,0.1466429433574713,-0.10370710784313725,0.0977995957620409,-0.7454953597468349,0.33658444867872134,-0.4066824656437092,0.004759951946259914,-0.7457222190083346,0.6437785758233829,-0.20487057064442923,-0.39063791873445974,-0.46802660550369396,-0.5051828009867713,undefined,1495279622001
903d185fccf839df,1.015867388302272,-0.4524787051853188,2.3513046762350243,2.332839581347395,1.0957855418841083,-1.8601315131016083,1.6262397222554226,-1.7146811738445693,-0.06808412944003542,1.329426580351265,0.15657074759595258,0.3278400925084624,-0.5563029188948306,0.10798372224416185,-0.7381269416790234,0.30425489274431605,-0.4310087885914012,0.053599612966200326,-0.6747465689981903,0.7340596633058349,-0.147468191029366,-0.3700051464183362,-0.5047683009086302,-0.5630108930459882,undefined,1495279623463
903d185fccf839df,1.1697151404474984,-0.5493362967873171,2.2013720084575996,2.345795963423742,1.531230541957829,-1.8791986644374734,1.6071446939034861,-1.6189206567490804,-0.10222374765373717,1.4636852952374404,0.1227093956836394,0.1472889575873887,0.4925008355614974,0.13205540459943024,-0.7549690969141104,0.3062754811574909,-0.41210507816618874,0.05392259148811418,-0.6263216394464958,0.7238812934775276,-0.14389883381278618,-0.2861408383035495,-0.3957565619611629,-0.46053837035004086,undefined,1495279624971
903d185fccf839df,1.467707999563885,-0.48828667852670815,2.4450926467349827,2.713747478365881,1.5923995729491807,-1.8556663618892844,1.6707623276300039,-1.17403378097017,0.05222095778723466,2.5961698864455616,0.19342468138734825,0.11137845024350748,-0.31694936497326204,0.10150284384222372,-0.7328637838128056,0.4355943549837074,-0.3650505294350208,0.005861880586049926,-0.6563029735820438,0.7304564296965542,-0.1754380962585923,-0.24296522558927833,-0.37811964596249864,-0.5207141759084917,undefined,1495279626457
903d185fccf839df,1.7241207357770771,-0.4119746703149431,2.6301155279409922,2.722607773819872,1.834154587147003,-1.83701148539801,1.7514553055586375,-0.4921516567169209,0.11701003616942575,3.5126892415370135,0.0760812603945559,0.20887165934437968,-0.20380041221033868,0.08483783895816463,-0.7381269490412572,0.29011057599904133,-0.4188044414511681,0.0026890788543795043,-0.7008376730442634,0.5954120607094057,-0.20723276033214683,-0.24949762893973415,-0.5049253322736492,-0.5083346933006218,undefined,1495279627958
903d185fccf839df,1.596607512341228,-0.3385977224797888,2.331526468146148,2.721922595640368,1.696326239133519,-1.7992056038971338,1.7879044124666625,-0.3438342808172425,0.11387757557811343,3.190518164828657,0.06518757456964502,-0.11400080328350239,0.03990502450980393,-0.04014967177072944,-0.7560217049282059,0.4254913846531116,-0.5035219909131595,-0.06583337252120798,-0.7447706492729668,0.5501406337628605,-0.2626501764392887,-0.30142858913335646,-0.4759988485677457,-0.39772258723496234,undefined,1495279629455
903d185fccf839df,1.552254948776685,-0.4518917048011936,2.39213762230973,2.4791012324549904,1.8370962845488923,-1.7844545306805377,1.7373726891554209,-0.5498551406081522,-0.09329035250835288,2.1547719592442083,-0.091780197555276,-0.01627150169831788,0.33583305481283426,-0.11421634287662599,-0.8097059799512855,0.362852550285539,-0.6126756646477463,-0.15292401354637905,-0.8282286091591728,0.4166053116620965,-0.34264402974785446,-0.3529562969130434,-0.5148620374202534,-0.46708409125368416,undefined,1495279630952
903d185fccf839df,1.2570338402134518,-0.4513047482590569,2.2792095816008975,2.328166151630431,1.5272602436519667,-1.7258625171038389,1.734022319346326,-0.6283522463337282,-0.07165644843355183,0.5844024950226379,0.01969729207975238,-0.2016953766642657,0.45768577317290554,-0.08458972364721065,-0.7939164842659305,0.6457375002196779,-0.5013338976148097,-0.1656848954383537,-0.8632826344101202,0.6891731886641719,-0.30644296683351513,-0.3613801611797286,-0.50719342849672,-0.5330123290993146,undefined,1495279632463
903d185fccf839df,1.3942495708017282,-0.5323128764557931,2.6390481875762752,2.529078048677529,1.5560499054795507,-1.709960800712997,1.7628371009070773,-0.40416822788212264,-0.24901186083891866,0.9126109701139609,0.04736271355392878,-0.2476754473431912,-0.7521376448306596,-0.16976646276301935,-0.8097059799512855,0.44569735357902474,-0.6311933801909574,-0.23010992968011912,-0.87493932069449,0.5834936592625585,-0.35812704429585623,-0.38494742846251506,-0.48339750680012167,-0.4775904023876474,undefined,1495279633966
903d185fccf839df,1.1142743324755904,-0.4178448349101531,2.5069798225216195,2.432860082658903,1.118753501168435,-1.629632327065115,1.7564361522057907,-0.4893469305934007,-0.3094144783900707,0.9418466842676715,0.018988939822745413,-0.11846381740338546,-0.47361714572192515,-0.17161812565543438,-0.7297059008726489,0.4537798485553318,-0.6634035966393456,-0.22499924484669379,-0.8408508590269951,0.7046640258466588,-0.3293929507132456,-0.37294892507917937,-0.4393779966951104,-0.5103537321216904,undefined,1495279635456
903d185fccf839df,1.0463599569062965,-0.4653931082139702,2.680518763257085,2.654108117834066,0.7842317719511669,-1.6910427212977543,1.7450885358567338,-0.8550284554141221,-0.3253747425951334,1.8954410798245127,-0.12652617573464517,-0.11774166220056927,-0.5824142156862745,-0.050333850055948585,-0.6581268626003868,0.46590349209326704,-0.4774426880946203,-0.15345598140216649,-0.8022074733992612,0.801658831437687,-0.25772650835147853,-0.2932971092085696,-0.5855429212209149,-0.5572046689597863,undefined,1495279637027
903d185fccf839df,0.8398436994288714,-0.44308647982937277,2.350666538355022,2.3351948458351677,0.6301417494651316,-1.695221376986445,1.7425586582467552,-0.9569061322814235,-0.48145112815092966,1.3224562047343829,-0.13178215317609535,-0.02315522962348436,-0.7086188168449198,-0.11791972046455429,-0.6770742559503661,0.4780271356312023,-0.5398340457649718,-0.16969998106542045,-0.7807272655004254,0.6811659956858719,-0.2882115566268594,-0.30720670845414216,-0.4997731461035698,-0.5179186092166436,undefined,1495279638449
903d185fccf839df,0.47254962331514133,-0.5164634715065156,2.22497853555259,2.461969135723726,0.23266127238636408,-1.714481856770686,1.6766557310716985,-1.595122451185211,-0.456633241002942,0.6935267669070108,-0.03883950762356743,-0.2363980067860451,-0.3517644273618538,-0.053111363820732976,-0.685495318843442,0.4214500099737112,-0.614566651722421,-0.14115740372316818,-0.7690425907307854,0.5304768111198132,-0.29573008867986433,-0.33612419031317553,-0.45720160051203035,-0.5605177864499358,undefined,1495279639962
903d185fccf839df,0.34503653790093103,-0.4659801232120916,2.0380409865696243,2.1284400199384597,0.2954451608835547,-1.7509717180269444,1.6884083258932976,-1.5667739658637025,-0.38462578584266965,0.05846764035874106,0.006047757211198044,-0.1592954858995048,0.4489820075757576,-0.0068197008549349064,-0.6676005335075581,0.5103568611539369,-0.48677212823885246,-0.13472946817725828,-0.7474504317047169,0.5246715953826138,-0.2914883302152775,-0.3005542863095464,-0.4565538518898937,-0.4967175717852996,undefined,1495279641438
903d185fccf839df,0.3450363998792921,-0.42958504718860385,2.1535210705245666,1.990112905167462,0.12383859545877782,-1.7514142726130573,1.7907156789817815,-0.9695696302886938,-0.44573430999096714,0.12800668562166037,-0.0677386803581256,-0.25893915501103915,0.42287071078431376,0.11076119715662261,-0.6212847207256927,0.5729956389920664,-0.40269407829131704,-0.09303336521142988,-0.7313087890978616,0.5054235400959965,-0.26486900780425404,-0.27935742660956686,-0.4861247523289764,-0.5344240570315177,undefined,1495279642995
903d185fccf839df,0.798263024439121,-0.470089198970949,2.147779354426244,2.2222236689402095,0.3195754052515714,-1.7821881804399946,1.7760308496318908,-1.0512312666015808,-0.4367015133418011,0.6406253913099459,-0.11245564477335028,0.027800002197998275,-0.5127840909090909,-0.08273807370557015,-0.674968973662071,0.5932017492415872,-0.47555140121718037,-0.16099851618138714,-0.7487378452730492,0.5312775325177633,-0.30304041199834797,-0.35998923559178614,-0.35893688567020765,-0.4481886642292446,undefined,1495279644455
903d185fccf839df,0.7594547210998994,-0.3931901757610625,1.982534173035211,1.9505034170239741,0.17050479837912644,-1.7876991616879545,1.768998751241895,-1.2112605169030854,-0.31736504236565966,0.874837175622679,0.016635796488642118,0.16971351755455025,0.6274092023172906,-0.13551058917175726,-0.6823373990921163,0.661902433642849,-0.4700715220953054,-0.19410714676214896,-0.7634031590904998,0.49563013262891636,-0.32388711477008275,-0.4156009435396448,-0.3392775149930916,-0.5160707406434485,undefined,1495279645938
903d185fccf839df,1.0435877232774065,-0.4419125082891147,1.911076708007188,1.97635085906929,0.44564719565054933,-1.8148883704134242,1.7717495162371724,-1.11859392688004,-0.48181241757724685,1.5863299946855767,-0.08522506379671438,0.3764212404829866,0.5664828431372549,-0.16143389556711707,-0.6665479034067613,0.5649133136040885,-0.5699585434336146,-0.20536711906474872,-0.7782224040195859,0.5518960538512753,-0.32381230528967175,-0.42405825918173257,-0.39895666649688444,-0.46584884769543455,undefined,1495279647437
903d185fccf839df,0.6416435907515604,-0.3397717524760316,1.708827661958412,1.882518868045951,0.3419982262918226,-1.78557023745418,1.8357274314669276,-0.6749769773699549,-0.41716129161116794,1.2989482219288409,-0.13203832665366833,0.24162322982092968,-0.13852217023172905,-0.09199636226609631,-0.6454952424929546,0.5305629996681791,-0.5227539461322127,-0.18328414077426342,-0.7802934592560986,0.5652465093783963,-0.3125886019861806,-0.4125210922559564,-0.2722316511810258,-0.4740869255159751,undefined,1495279648941
903d185fccf839df,0.7802449205731357,-0.29691956992919327,2.1101363353407003,2.268269118979408,0.38096044855403133,-1.7660325779180601,1.9272525646901792,-0.03434039074001162,-0.4067628639461534,1.340227976529664,-0.2117161679641203,0.10952046623613369,-0.4126907865418895,-0.22346481615080124,-0.7497059169611912,0.47802710736648074,-0.5549232756287225,-0.2547830782693849,-0.8099599382907691,0.6080695841317103,-0.3510752584785534,-0.5046755631800349,-0.18065847237454982,-0.4753478465190526,undefined,1495279650441
903d185fccf839df,0.7747009363910922,-0.3931902049890549,2.157349389530681,2.2943997022969556,0.11150604263111269,-1.7077456964833047,1.884933728594883,-0.3347702713615393,-0.20711244917814786,0.7540210648311022,-0.08498006122112486,0.09625056696659025,-0.7129706996434938,-0.2993831630998874,-0.8423376087850261,0.5346042047592504,-0.6395776613508798,-0.23373870649031475,-0.8460424919756763,0.5904999552254225,-0.3636709405160577,-0.5295450777856812,-0.11493390214638764,-0.5151566325166965,undefined,1495279651945
903d185fccf839df,0.6097652158817787,-0.4759593197241705,2.2460330194014704,2.221829476524492,-0.1057587312092338,-1.7383798504410028,1.9099773705484235,-0.3117652896547594,-0.2787920630248596,0.686009466212892,-0.19764704195477253,-0.09650689748007123,-0.669451871657754,-0.2651273154101744,-0.8244428528980775,0.577036815818416,-0.5940973682529744,-0.24613227727804418,-0.8426630322060169,0.6797801437269411,-0.358725776126679,-0.47339850019912694,-0.06793156362167196,-0.4919875603347123,undefined,1495279653437
903d185fccf839df,0.6277833887585834,-0.48124242547927065,2.2868659654761765,2.2931526741581156,-0.13570040016348545,-1.7489965227063018,1.819064983103484,-0.9100441241400449,-0.44262776920717056,0.3664706255949235,-0.1955610606235614,0.032666776228430526,-0.2734305369875223,-0.3623398957036173,-0.8454954990874165,0.40932647949466205,-0.7239952064857337,-0.2920461200353957,-0.8726653573920182,0.6224825274135705,-0.4002539790112402,-0.4669159959705099,-0.12184319797752012,-0.5104851157075698,undefined,1495279655010
903d185fccf839df,0.2743497216702887,-0.41490970146356154,2.5567446658207604,2.7053152762886583,-0.3408794841987292,-1.7607195835969116,1.7488912456757697,-1.4272921854869043,-0.4158930079753708,-0.22435836506280804,-0.16532011590601509,-0.05110478686359138,-0.1124108734402852,-0.31512235596390076,-0.9233903179644596,0.5386454098503216,-0.6233910637491232,-0.2721226797910605,-0.8929701033941728,0.7592823150621288,-0.37039165705541777,-0.5176917313766354,-0.16730314029617643,-0.5726068410815015,undefined,1495279656433
903d185fccf839df,0.4337411819542808,-0.3896680857723342,2.7073152173412374,2.6671229942890156,-0.15462608289031354,-1.7918987794038355,1.7996491331324067,-1.0536892294705862,-0.4947805109875609,-0.11195672250301072,-0.31499498251685387,0.08760686194636136,-0.2212079434046346,-0.20124477078639882,-0.9181271748227092,0.6841290757761015,-0.54525369713699,-0.21848897715731158,-0.9298013155737338,0.8129766960834303,-0.34472647898500536,-0.4720053260440086,-0.14478695647931264,-0.4562460174571187,undefined,1495279657928
903d185fccf839df,0.2549455354952682,-0.3755796673614362,2.827899387788399,2.696626730871684,-0.21038484542156152,-1.8257612585405671,1.904031388059685,-0.4496492961359256,-0.34029398362288293,-0.18614497519267728,-0.11145902044263406,0.05455158738040871,-0.7303782308377896,-0.12532642383731268,-0.846548143912681,0.7306031180441107,-0.5196131063595459,-0.19620968134454014,-0.8949292087758018,0.8789436348810056,-0.3077748034516491,-0.46442061544730445,-0.19920446441218045,-0.4574870952847798,undefined,1495279659442
903d185fccf839df,0.47532164991157283,-0.38790704077797006,2.5956631982554597,2.5374817943767796,-0.14343523515802323,-1.8628637113261612,1.8941538281804806,-0.5398103164895893,-0.3753456927514241,0.11753476496078105,-0.14529422473640186,-0.024556963217514927,-0.7564895276292335,-0.02255889371894829,-0.8360218134557776,0.8841693354756408,-0.5331548188572359,-0.10150684258942053,-0.8813623933606645,1.0128793122150472,-0.23712886850860332,-0.46223335659662657,-0.16924441741262863,-0.42854747294368134,undefined,1495279660982
903d185fccf839df,0.5349202217348502,-0.33096648366222226,2.6186315874704476,2.622200157919164,-0.19403058199705933,-1.842086898390797,1.8623673575758903,-0.7098577958839714,-0.38309594705640115,-0.21797596018663867,-0.08782498818685436,0.02088193712011536,-0.691211285650624,0.024658646020768223,-0.8676007901020201,0.9407462915448027,-0.4811384074717019,-0.07089339308544783,-0.8699086137842663,1.042721502128563,-0.21615861007349843,-0.44832239526303164,-0.14608253134629287,-0.4253108098769945,undefined,1495279662437
903d185fccf839df,0.6111512981908139,-0.3931902049890549,2.325146614167823,2.3109432181907987,-0.24806134835408636,-1.853020347113616,1.8594798365153724,-0.7850463907222888,-0.44697838318823724,-0.2434436817361813,-0.21560490679480157,0.0513860215978774,-0.7956564728163993,0.04132367680637641,-0.8433902241613553,1.219590121182035,-0.4137475935362913,-0.05975374739926502,-0.8724204680998925,1.1504798251925503,-0.1956206029647044,-0.42403423571281934,-0.04117364571589611,-0.4034720290278221,undefined,1495279663950
903d185fccf839df,0.6568895299994753,-0.3274443790594978,2.033575292094356,1.8150774570075148,-0.22607052764572597,-1.7894297857694819,1.868037223271207,-0.65129080618395,-0.6524987048515165,-0.49251440214515924,-0.18111765517407852,-0.0006855539389025548,-0.9436204879679144,0.01910367029429762,-0.8307586261406246,1.2418168763741737,-0.4155794583108234,-0.11834614409083849,-0.8490861043155389,1.0859603349358515,-0.22973757121959293,-0.4022026271084268,0.03715938349185237,-0.36775727830296023,undefined,1495279665484
903d185fccf839df,0.39770497422231016,-0.29046240494985803,1.9959327812827117,1.9443677745374248,-0.27536988103905585,-1.7961147017095251,1.8811021096621985,-0.6352446869821481,-0.6000143965241009,-0.260448721663664,-0.1448847439484084,-0.013134649807373182,-0.8913978943850268,-0.0031163362177811654,-0.8328639084289196,1.171095547030294,-0.41080830169987576,-0.12001170585846951,-0.8764016553727766,1.1251955749022757,-0.23201797255607604,-0.37395114015594855,0.0936268756775281,-0.33842400527326355,undefined,1495279666952
903d185fccf839df,0.3020699876346038,-0.49122176813131124,2.1407611084309672,2.14334105964559,-0.35035260808435476,-1.826760501283439,1.8514431526785025,-0.898167181983169,-0.4596023382614953,-0.30533648573261674,-0.17287838318877002,0.03002829982022368,-0.7738970588235294,-0.09384803810928591,-0.8107586247765499,1.1852398920402902,-0.41664735192010943,-0.09074717299789799,-0.8626599182971495,1.1223006689892483,-0.21130179303088015,-0.33445214144619384,0.13033172428537038,-0.3596007942086325,undefined,1495279668439
903d185fccf839df,0.033183062726650475,-0.4454345690498507,2.4042599547972263,2.2848623431528847,-0.43927246337706033,-1.848939516611214,1.9120812319128517,-0.5633361026278912,-0.4172675197179795,-0.13882864421846194,-0.2705683071060279,-0.05793188470850978,-0.6302849264705882,-0.11236474473808368,-0.8033901698975694,0.9306432929494854,-0.43750601140188955,-0.1354197566628643,-0.840165171004428,1.064494901499085,-0.24068329344977515,-0.28580272345194624,0.18266461073569248,-0.2952108445836934,undefined,1495279669943
903d185fccf839df,-0.09155827213440616,-0.4794814097128988,2.1618155922798477,1.968554052617919,-0.43383132565867255,-1.8611051328567225,1.905078054813945,-0.6299108560550771,-0.42175750819026403,-0.09872240538849206,-0.3179782116975828,-0.06059637223966376,-0.8261196524064172,-0.08921884850131191,-0.8297059886775939,0.667964170617652,-0.5022590605225007,-0.17747050192222372,-0.8313561860984574,0.9817128549027032,-0.2728937113039735,-0.29574858584695857,0.1109002718940936,-0.3049131032655974,undefined,1495279671438
903d185fccf839df,-0.01948551161636758,-0.42723703103810684,1.314536472160552,1.3925562546778931,-0.4553490103448371,-1.8937401033116215,1.8623516033718703,-0.9494957539464995,-0.44788010599373446,-0.21706775232701173,-0.28965632630463345,-0.0238822295190097,-0.8043602384135473,-0.2077256103360133,-0.823390208072813,1.0256117963103495,-0.49026716424687916,-0.24079993819784348,-0.8138011875966402,1.231321664189424,-0.23484527063039526,-0.2771018612333245,-0.17016690082071692,-0.3291873178058941,undefined,1495279672953
903d185fccf839df,-0.030573618002093596,-0.5100062334571994,1.0446572635420692,0.8808001197988022,-0.4504530125609649,-1.8804634402174196,1.8752429091164784,-0.8794109784245766,-0.3451396804455164,-0.3674386367122573,-0.05175252230584942,0.0578591693558498,-0.8043602384135473,-0.20217062165876817,-0.8033901772598032,0.9892408656965437,-0.5153994785711646,-0.2688422139031316,-0.8161171307734081,1.3446696231523476,-0.22523044880483392,-0.3467109195254423,-0.09778059681417721,-0.33715504303066424,undefined,1495279674441
903d185fccf839df,0.05397333121070623,-0.4014084149627543,0.7148058010508548,0.663960462837777,-0.6617932313828401,-1.8560576725810853,1.9279074019892153,-0.5542353008118487,-0.37343142996,-0.626572446236304,-0.012871011879292326,0.0003109988338034466,-0.9349167223707665,-0.3475265019088751,-0.9118114015801622,0.791221335733787,-0.492588409228441,-0.4181033637733194,-0.864500078297601,1.1612895380153103,-0.34215082486140463,-0.3406814738070041,-0.13121457143147383,-0.3062704468549881,undefined,1495279675938
903d185fccf839df,-0.15947292374697802,-0.30278971991040715,0.6848189117036407,0.6603563181120191,-0.8764454413562439,-1.6974225077637264,1.858554148576854,-0.8398817053757733,-0.40562861467428557,-0.6345993450221415,-0.05815406119486796,-0.025042981778752096,-0.9131573083778967,-0.4132607612281639,-0.9244429701519578,0.6962527475787583,-0.5174489974293979,-0.5073028754306285,-0.91079097873961,0.95576648708798,-0.43430204302299374,-0.40635841867956957,-0.17272680295656054,-0.29052445026024326,undefined,1495279677464
903d185fccf839df,-0.2966884473027959,-0.33918476670590253,1.009567050113484,0.834911226785187,-1.1106919052982196,-1.668495684927282,1.8596823311201924,-0.8416350564770334,-0.3562407350994143,-0.8958054583729704,-0.23093118844441787,0.023228356075566302,-0.8174158868092692,-0.4604782232632331,-0.9907588284713006,0.5285424112550043,-0.46243293835970944,-0.5341228912898136,-0.9450053837185813,0.7722324192735044,-0.4882808306102134,-0.43211128087886225,-0.2500495268590815,-0.28660650649877173,undefined,1495279678946
903d185fccf839df,-0.2883722985026819,-0.38555895155749215,1.193314163833388,1.0888479509797828,-0.9487230312467294,-1.6753506350221712,1.9213723178603364,-0.42783434785929775,-0.5056218550501097,-0.30242872499557705,-0.2505543730009277,-0.07677681546725314,-0.7260263480392157,-0.4604782232632331,-1.016022024512762,0.07188490752204227,-0.6750711717587403,-0.5077651803799814,-0.9786390541838895,0.35896893411263026,-0.584594944858198,-0.48274370668976835,-0.1162495066335094,-0.35264390177651117,undefined,1495279680441
903d185fccf839df,-0.3438128994421315,-0.3708835181484728,2.033575292094356,1.8816442196656353,-0.8633208863737095,-1.693055181803833,1.9468840726868195,-0.2439873495931274,-0.532548765567418,-0.14845327467514122,-0.24386860080967,-0.07185650061610407,-0.6825075200534759,-0.4086315327678663,-1.0160220392372297,-0.015001129127236246,-0.7343615484394242,-0.5436286413109187,-0.977806433298073,0.19342024492524743,-0.6310720520414451,-0.4758751367136947,-0.30341785001141586,-0.4389771851808156,undefined,1495279681943
903d185fccf839df,-0.34519891274034725,-0.3010287333720277,2.1675578166520695,2.054426559468377,-0.797194138923085,-1.6869688802245393,1.9027059624001597,-0.46340790333097476,-0.5481114774608326,-0.02826541179919575,-0.2962065729674396,0.020797901908129034,-0.7782489416221035,-0.42159319891632074,-0.989706227819439,0.0031842796502235537,-0.7406071450021197,-0.5624058170941829,-0.9723629150354901,0.21499346644354028,-0.6321986718137427,-0.4804261277966866,-0.47795146970568186,-0.4952691528793574,undefined,1495279683430
903d185fccf839df,-0.11927857260413095,-0.2734389700043378,1.9078870351549748,1.7376361367662463,-0.7163485615850826,-1.6557594052287863,1.8552195635463204,-0.6646201980423131,-0.6154613658453775,-0.1195768231353068,-0.2737554085175695,0.011382815363746135,-0.7913045900178254,-0.36696904645926764,-0.957074576898997,0.09209098950684153,-0.7578837757378691,-0.47721505866839287,-0.9224196784227647,0.5250873597234866,-0.5225633636326699,-0.4323820122808077,-0.2715870220647066,-0.3714241990078584,undefined,1495279684933
903d185fccf839df,0.3561244372541986,-0.15603585346809096,2.1643676355259576,1.9543568507831837,-0.4987957879155779,-1.7342734009605798,1.8235040929214004,-0.9163351749362864,-0.5011220082711965,0.007379629775580196,-0.31152498296736403,0.004358824794359331,-0.7129706996434938,-0.25864654061443265,-0.9328640256827998,0.562892640396749,-0.648670082040377,-0.3613601876542908,-0.8827757483931207,0.8624518965905407,-0.39163688833536875,-0.3625164892305429,-0.2095129997112106,-0.33950401031322286,undefined,1495279686443
903d185fccf839df,0.24801536548796024,-0.17129821419125468,2.0131586919885285,2.049505257370466,-0.5937121999304992,-1.7474103108415246,1.8341258832526108,-0.8819035510138438,-0.5669552666947697,0.2867790118864362,-0.3400587165839945,-0.017738940916049127,-0.9392686051693405,-0.247536459653746,-0.9465482390798599,0.7366649115483568,-0.5757746498090845,-0.335363453127757,-0.8632336565627058,0.793328276826497,-0.37924562233462883,-0.3248048821215255,-0.2506361839807778,-0.3229192172080432,undefined,1495279687953
903d185fccf839df,0.07060542177847579,-0.15662283923822,2.089082105628769,1.850953705521938,-0.6747017786954747,-1.7482371900322269,1.9237943741830072,-0.308845697792929,-0.5544729082192063,0.5033103290618111,-0.4692518290905889,0.031974952270864575,-0.9088054255793226,-0.16421140933190145,-0.9233903400511609,1.0680446334872875,-0.5510841299041762,-0.26774661379983283,-0.8615334310914788,0.8663477056578176,-0.32761195864399945,-0.35437467441912973,-0.2438692880939669,-0.31614522718765237,undefined,1495279689447
903d185fccf839df,-0.11234847160764246,-0.21121529251949372,2.110136843614599,1.9353336393567147,-0.7291542586450823,-1.7342011943246551,1.9067821603876156,-0.39584925087197004,-0.5746050982891768,0.23644035568404706,-0.4568490621679652,0.026720748579422682,-0.852230949197861,-0.09384802515851136,-0.9212850504006321,1.1508895781043809,-0.4391569512175686,-0.16027022792978377,-0.8671308795542553,0.9134515495106564,-0.27439033276800734,-0.38057377266411746,-0.13317574651656006,-0.28846915955509167,undefined,1495279690944
903d185fccf839df,-0.0430476686752159,-0.16777612420252638,2.433608197990539,2.3758669434173068,-0.5138026197606687,-1.7713525592886479,1.8787089764637803,-0.5770750158359292,-0.6091568383583486,0.45638976292154754,-0.4448625407619559,-0.02811204347368859,-0.9001016599821747,-0.05033382415439949,-0.9276008825410496,1.0579415500978055,-0.4360081120033037,-0.1103539654825503,-0.8877154973063661,0.8321631557843128,-0.2647952722954504,-0.4142743977436489,-0.26915264952171325,-0.36656084800239686,undefined,1495279692435
903d185fccf839df,-0.012555445125288818,-0.25582853467469235,2.546536492836321,2.432698134813132,-0.5488459886845003,-1.8494868890125278,1.8818910402260745,-0.7449917012563001,-0.487926103180211,0.2922889683522765,-0.2847102629264265,0.022351845846703695,-0.6955631684491979,-0.009597162816621112,-0.9118113942179283,1.0640034283962163,-0.4102671295942407,-0.11279848190258691,-0.8979588280322125,0.855645789532462,-0.2652516052184421,-0.4781553413045133,-0.2120587510878942,-0.46896991022838086,undefined,1495279693957
903d185fccf839df,0.22999722711656517,-0.3937771323031992,2.3570469006072456,2.4189170722411735,-0.6277475688481189,-1.8356535368020566,1.9428762516844622,-0.3817832439454678,-0.5812346009411127,0.40976374520084047,-0.25569950159320554,-0.007628537876223241,-0.8783422459893049,-0.05033387595749768,-0.91707455944638,0.9771172221586085,-0.48883839167121823,-0.14381723954168948,-0.9165563505472025,0.7773908893167152,-0.30174933322308406,-0.49607080955239974,-0.22922697249943955,-0.47764684545513664,undefined,1495279695446
903d185fccf839df,-0.09294428543262193,-0.38790698232198534,2.0233666108360184,1.978086454978348,-0.8153381175713067,-1.83520865123937,1.982494286431486,-0.2138458055810223,-0.5466975760501014,0.28377063513258655,-0.1564751163216333,-0.07332318087253202,-0.9131573083778967,-0.12440056001416878,-0.8949692463450751,0.522480448162429,-0.5707653868890346,-0.18603897424158192,-0.9103151949821728,0.7391719471401528,-0.3347857160242175,-0.49960938757603274,-0.21109737669564074,-0.4895964247502036,undefined,1495279696939
903d185fccf839df,0.3588965673668594,-0.48946069390895475,1.8530181053636146,1.8901383883280558,-0.5864916438083274,-1.8441389547114144,1.9361886593813673,-0.4546411967505653,-0.4504031358181001,0.3266054866319722,-0.010365017972392157,-0.1106912863560065,-0.39528325534759357,-0.07625720825440656,-0.8823376409621106,0.5507689120646492,-0.4347022499227438,-0.1324306042130424,-0.8980287949481524,0.7932666871237912,-0.294835940576914,-0.45701943751278856,-0.005210265529822981,-0.4037348872011913,undefined,1495279698435
903d185fccf839df,0.6250113276567422,-0.579274076305504,1.5518764940487615,1.5038013351790311,-0.42196163889026306,-1.8866475705256678,1.9929056820103868,-0.11139779621274419,-0.2944546256675906,0.18252490918114472,-0.004111992930958603,-0.09509613165235976,-0.22991170900178254,-0.22531646609244174,-0.8244428528980775,0.5184392430713578,-0.5547004254927508,-0.23679751546833208,-0.8609666881258851,0.7781300154520263,-0.34019678391672875,-0.4863026383039385,-0.08799090681514936,-0.41482948407638254,undefined,1495279699983
903d185fccf839df,0.4780939180458725,-0.6233002596205928,1.626523631928998,1.7093710016026338,-0.416993644784048,-1.8963581703774404,1.9778158524518765,-0.22143115647815365,-0.2118342421531991,-0.22787609726853422,-0.018768295413762365,-0.06481274334230078,-0.8783422459893049,-0.3956698795701864,-0.8570744743695843,0.476006575482749,-0.6312762801248885,-0.3342235212061866,-0.8912558822703283,0.7499354612071474,-0.4044240031511968,-0.4753172187452872,-0.12486015430936505,-0.41070262151667,undefined,1495279701440
903d185fccf839df,0.3796866288184567,-0.5734039263242902,1.6163157130815082,1.5032371811972196,-0.3979856787014906,-1.9008372970785283,1.9244833947369828,-0.5844222447983388,-0.42262442441358494,-0.5563067762317373,-0.024521032020390084,0.06596927584907873,-0.7695451760249554,-0.42714821349511495,-0.8497060194906039,0.4800476675149341,-0.6184365167610462,-0.3437482673896509,-0.886721948669315,0.8781429207257777,-0.38783879040146474,-0.4369195389431517,0.023597816644348502,-0.3454771197118283,undefined,1495279702949
903d185fccf839df,0.11357197204480306,-0.5669467613449549,1.2679615558505737,1.2705365891813125,-0.365020009884644,-1.8826203184572037,1.897711975574153,-0.7553748017178126,-0.3942716300695072,-0.6985290114349213,0.08165962522773576,0.011059471368101816,-0.7216744652406417,-0.4040023690614414,-0.8233902227972807,0.5224804764271506,-0.5975450540722829,-0.35449527438813505,-0.8591405204381359,0.9466967992064542,-0.3656440981972316,-0.4684041205947626,0.037727247691478734,-0.3992524464819785,undefined,1495279704432
903d185fccf839df,0.2771215412342618,-0.24115305742368448,1.2520109043569636,1.2643600347435715,-0.28370128939058764,-1.7193592810662344,1.8328898955276116,-0.8603934446075728,-0.6327127221714446,-0.3642475777975443,0.1443594037683893,0.006491606871735331,-0.7303782308377896,-0.41881574990540904,-0.8339165606164177,0.37901731412038087,-0.678536891569952,-0.40448753105216384,-0.8512551156139041,0.7912494927896742,-0.4121955625337943,-0.4909673289416359,-0.24659727685063065,-0.41530179785809873,undefined,1495279705913
903d185fccf839df,0.05813137110535349,-0.19771397679069413,0.9757520958971051,1.1222726426612606,-0.39685424095637545,-1.6373141596537215,1.884244734228952,-0.43558446815588514,-0.43280406170942287,-0.08784487951322553,0.05367611984833083,-0.11503798861336582,-0.5345435049019608,-0.47899496874435454,-0.9181271969094106,0.31031662971911905,-0.7416735687613059,-0.43202317299623705,-0.9078803067056124,0.4444611066363774,-0.49871516575680025,-0.49884178206371266,-0.33522621599378116,-0.4550997815180185,undefined,1495279707435
903d185fccf839df,0.11495791633219933,-0.2892884334095999,1.373233466821077,1.435858934237043,-0.3698028631186028,-1.6425782385917627,1.844947538123297,-0.6115602715705808,-0.5572550564963121,0.356182409946451,-0.01824658106318479,-0.03874758320987387,-0.4866727941176471,-0.44381324428072316,-0.8907587333041217,0.409326422965219,-0.6748828073984353,-0.37933941615518313,-0.8638353816313402,0.47384134007671136,-0.4544865280008361,-0.5292436442984578,-0.3029458066616835,-0.47075265193999366,undefined,1495279708937
903d185fccf839df,0.04011306020690977,-0.4266500306539816,1.7483840781361641,1.7603867619723872,-0.26274932959854924,-1.7825468830575617,1.9272946412837173,-0.3162767796020013,-0.34928814047805484,0.5911144057473495,-0.058647939688354224,0.06890607270819789,-0.33870877896613194,-0.3901148779421667,-0.8276007284760003,0.24767790841043258,-0.7187149407441611,-0.40880660305840455,-0.8362469565158799,0.21058951301139944,-0.5009295417870909,-0.5754430739916948,-0.4774896764287346,-0.5325472369466666,undefined,1495279710437
903d185fccf839df,0.05813130209453402,-0.4965049031144037,2.1299147975665256,2.143016088585853,-0.293174419697886,-1.839762315326443,1.8668906326273835,-0.80992297666797,-0.3231577433901912,0.8745036709783092,-0.1477797937095993,0.12540658135413246,-0.49102467691622104,-0.3993732312565656,-0.861284980048304,0.1668534674123494,-0.7260949275551333,-0.36978933607092945,-0.8687401456888674,0.10717355243831507,-0.5160285526775045,-0.5651483943475644,-0.4421321611811933,-0.6142793281773691,undefined,1495279711978
903d185fccf839df,0.17178446155904517,-0.5634246713562265,2.1158785597129217,2.143016088585853,-0.25575505217149425,-1.8169194675251286,1.8777990699648484,-0.7376685293816603,-0.1827326864553857,0.8035334919820196,-0.11244408698903548,-0.05700222844249166,-0.9697317847593583,-0.38548574013729087,-0.8370744361943406,0.5042949687231654,-0.66689632945207,-0.3770215586253043,-0.8194266223364276,0.23876866766653593,-0.4888764793939319,-0.5298610366202745,-0.30349588047082926,-0.543698489434986,undefined,1495279713442
903d185fccf839df,0.17039844826082942,-0.4918087539014403,1.819841289027238,1.8528442490380153,-0.24318593414746437,-1.8565561309307363,1.944995872228639,-0.38201580078130554,-0.13745822769261665,0.5611722994068736,-0.09886931923838076,-0.0692756039525517,-0.517135973707665,-0.30956735433588106,-0.8370744361943406,0.6800878989497519,-0.7146755683035796,-0.381701604285267,-0.8122269034549618,0.4391794335748649,-0.4507782344980181,-0.5580759568243605,-0.32609683188603283,-0.5788045933751115,undefined,1495279714940
903d185fccf839df,0.3353342377809624,-0.4929827838976831,1.7592301348636559,1.9037221810540397,-0.08873590993047496,-1.8623792291584047,1.9064323933843854,-0.5557718868603002,-0.22638188775209717,0.15722305456784144,-0.09988260515864,-0.03728545223332481,-0.6650999888591801,-0.2827181841173774,-0.786548066198119,0.6538200234607064,-0.6252955758357367,-0.3579213998907935,-0.806454535056707,0.4091062705202422,-0.444019025322705,-0.5159545313306458,-0.2698978550897342,-0.5982000811780591,undefined,1495279716436
903d185fccf839df,0.5238323223815825,-0.44719557020222633,1.769438307848095,1.7861682088168598,-0.27163617632095327,-1.8947649716784114,1.891453017142631,-0.7211784030638464,-0.39240721777065446,0.11588068287334022,-0.18191884957674453,-0.06449272426012934,-0.7129706996434938,-0.31789988267945973,-0.8623376395980359,0.5507690251235353,-0.57497530989371,-0.40187203009708033,-0.8338680403834983,0.41940782819482814,-0.4834602216344756,-0.4738406238349089,-0.2426718699948929,-0.5508765900928246,undefined,1495279717943
903d185fccf839df,0.5307623543672516,-0.4536527790235501,2.182869567854829,2.1697792187250675,-0.26273904573598844,-1.899789140900563,1.8615968332793358,-0.8814947525588387,-0.3333182524008626,-0.6220207029678898,-0.18698690216743707,0.012815076767662567,-0.7869527072192514,-0.3891890788728955,-0.9181271600982417,0.7205000629193503,-0.5126690666368493,-0.40560213321437094,-0.8347566352057927,0.6262705455722362,-0.4537294777281678,-0.4314456004755869,-0.19628459505478318,-0.5537462898775695,undefined,1495279719439
903d185fccf839df,0.31592998259512234,-0.43134620909493737,1.8121849051519592,1.6458137869244593,-0.30015840833309615,-1.8200336604998433,1.8797661695026664,-0.6168752734116237,-0.4677439516362613,-0.26792055499633044,-0.3406582192093998,0.013061384366241715,-0.7782489416221035,-0.38270821342173195,-0.914969277158085,0.5143981227744511,-0.5599329617739703,-0.4317825210589828,-0.8888139959472448,0.4563640963235543,-0.5066328772777146,-0.43486631454103913,-0.3284722311815329,-0.5385963992524189,undefined,1495279720963
903d185fccf839df,0.16901243496261367,-0.5158763395964249,1.7337099565395075,1.6484136034969614,-0.2543767712769929,-1.7941628009995312,1.8200564221518436,-0.9667130560933397,-0.40460223872235795,-0.42848182764091347,-0.3212590651120898,0.10766442957745696,-0.8391753008021391,-0.2716081420090144,-0.9097061045673995,0.3487082618049858,-0.5825363147948507,-0.36286742797267685,-0.873721875088115,0.4600905194619025,-0.4683511638185821,-0.39115892794002866,-0.4115747616430101,-0.5649305631772767,undefined,1495279722439
903d185fccf839df,-0.0763121258540329,-0.5763390597708817,1.8951265647874764,1.8175118350565476,-0.5014803586736162,-1.7778907358303688,1.8594850916703316,-0.7976308563016524,-0.38118799366661366,0.050279474140365696,-0.26036759698117556,0.06204202522848422,-0.7434338792335116,-0.32067735759192045,-0.9318113882197693,0.18908022260448812,-0.6414988811845215,-0.39997847649373397,-0.8907031348350111,0.35438018979035674,-0.5059685318325328,-0.40639885657309655,-0.507298430896189,-0.5118992964857952,undefined,1495279723979
903d185fccf839df,-0.21491359369724705,-0.5370089672127718,1.8581219377188847,1.8890264648182793,-0.6572469575209385,-1.8588690668453807,1.9358467791697231,-0.5101414366788165,-0.24812699492775078,-0.1784386930602955,-0.08266861542753604,0.0457826323324897,-0.847879066399287,-0.26605317923331834,-0.9476008839051242,0.1446267970143753,-0.6398118757842963,-0.3794154066291925,-0.9035352861479977,0.3255543042093851,-0.5016534965283154,-0.4108388767461113,-0.5240796195877266,-0.4978332002862319,undefined,1495279725433
903d185fccf839df,-0.40479751906903433,-0.6485419337678048,1.8089949781627968,1.9243039493680745,-0.848931204817132,-1.9030128076287953,1.875984502170487,-1.06928510984559,-0.23940979813251637,-0.44028669753434585,0.07051251927095822,0.04708430459882065,-0.8609347147950089,-0.24105565895645514,-0.9276008972655171,0.0739055524646602,-0.6453900624586864,-0.36117653068755,-0.9036682260562536,0.2863190647006792,-0.5004779103512866,-0.4187607518017902,-0.5554809795648172,-0.4477165919262648,undefined,1495279726943
903d185fccf839df,-0.3091626014921474,-0.6356276038091342,1.5544287914318209,1.7168543157351495,-0.983447549089808,-1.8929178842307033,1.8718004895736742,-1.1428580640146653,-0.25826128415453437,-0.05375097141000959,0.14534061917041727,0.030637868840955252,-0.7738970588235294,-0.3169740188563158,-0.8991797961971976,0.09007040109366668,-0.731951336673845,-0.4291733473171275,-0.8892058178946399,0.20278249718528843,-0.5424739012696165,-0.43329881735846787,-0.5967900512110516,-0.4364498962919735,undefined,1495279728442
903d185fccf839df,-0.5004326091729699,-0.6755446821373733,1.602917358970957,1.6844889935338272,-0.9786235574208293,-1.8754392726397537,1.8690102461007885,-1.152001062263333,-0.17369420552392018,0.1485026761257669,0.24723081170322128,0.09485268278107788,-0.8217677696078431,-0.44473908220231795,-0.9318114103064706,0.049658265388789695,-0.7956509607359675,-0.48905766196094935,-0.8989243884531442,0.12198685555756261,-0.5921467258493713,-0.44890767467034903,-0.5779239660934754,-0.39881424866250154,undefined,1495279729936
903d185fccf839df,-0.562803173087269,-0.650889964532298,1.672460410358974,1.7282153286036679,-1.0499548656944295,-1.905665810069113,1.9460740869348858,-0.6883469984914388,-0.16909144816429006,0.1434608645831701,0.2108637478995437,0.09073213857606204,-0.847879066399287,-0.4373324176818832,-0.8960218838081058,0.04561691897411078,-0.8318272163023359,-0.48389631436431135,-0.8872537077946224,0.1823333645674035,-0.576998164755004,-0.4385134149664707,-0.5829365513003413,-0.4118205449410827,undefined,1495279731446
903d185fccf839df,-0.16363099814703502,-0.6561731287433828,1.56974079677153,1.7470784079850306,-0.8242043869260778,-1.900224707701974,1.8924944130291037,-0.9668367567446414,-0.16637147881748382,0.07867528717235056,0.2139818880589143,0.05030893799002491,-0.504080325311943,-0.4132607223758403,-0.8876008135527961,0.22949234417700434,-0.8424633448033939,-0.4848525895295341,-0.8963705525749129,0.09234484727918481,-0.5959838977127644,-0.4400856630416491,-0.5091828568748248,-0.4203002287838425,undefined,1495279732951
903d185fccf839df,0.019322860733673487,-0.7119396120208993,1.2807215179441733,1.4212469443040308,-0.7119565773318398,-1.9199929611745277,1.9002023868839641,-0.9068477624727966,-0.2001013371563649,0.16254988951714208,0.1890871759014032,0.07668977675871189,-0.6955631684491979,-0.46232996386029546,-0.8918113339559833,0.2719250965597777,-0.841168204836914,-0.4865941498657801,-0.8744845286053291,0.11835282038596784,-0.5846783438530788,-0.43898637235092725,-0.502146524297113,-0.41633442963253026,undefined,1495279734445
903d185fccf839df,0.10802788434653031,-0.7025473720509571,1.4568127560626976,1.5501057195562724,-0.5022620693839498,-1.920416882611606,1.8457364760198254,-1.2124862599217945,-0.2657217795746534,0.14574686674445733,0.12843857448725357,0.05135949591114919,-0.8565828319964349,-0.4854757694416454,-0.8981271660964008,0.17695657906655288,-0.8644963441684129,-0.5309247550040272,-0.9004077134294854,0.1406497673863067,-0.611866692871528,-0.4094905445140346,-0.5045202415813664,-0.43474558859330437,undefined,1495279735986
903d185fccf839df,-0.0014673042341530646,-0.6373886195755061,1.1224948366853669,1.155586890064112,-0.5383237225006383,-1.9168904134037743,1.8967757603034863,-0.9027083574958534,-0.2793730636548753,0.32450546306733846,0.153400085096478,-0.04566315347707698,-0.9523242535650625,-0.4882532832064298,-0.89917978147273,0.21938924665516163,-0.8097889954582622,-0.5153520479685368,-0.8973920880578616,0.11404125457056047,-0.609312723438127,-0.37990558217373027,-0.4666440391848969,-0.4441771090583513,undefined,1495279737429
903d185fccf839df,-0.1941233252131913,-0.5792740616915079,0.9770283716571094,0.9950610765909595,-0.6139647380374099,-1.9155417836859772,1.9020695536282837,-0.90456705556718,-0.21442934997590088,-0.1343045201527847,0.13924950763569188,-0.10529174441848667,-0.9262129567736186,-0.515102466375708,-0.9044429687878831,0.3325433283818147,-0.7532220466765306,-0.5445785824528142,-0.9310957260997523,0.18890849646502875,-0.6154962110452612,-0.3729659995492679,-0.405100518531816,-0.44298968691621804,undefined,1495279738971
903d185fccf839df,-0.01394145842350457,-0.5546194171564134,0.8270954497427356,0.8681747300665413,-0.51596261576665,-1.9129633155864014,1.9356363891312618,-0.6445575435435129,-0.12887768395215482,-0.19803828386004382,0.2195620005201951,-0.055695918157646414,-0.33000501336898397,-0.5882433643138826,-0.9518114116705453,0.28808993105642344,-0.7673797464973751,-0.5796124271585165,-0.9500640803680729,0.31893296880379896,-0.6084408201271468,-0.38000501042673024,-0.4663092705566111,-0.47133847657134004,undefined,1495279740456
903d185fccf839df,-0.07076807266116988,-0.579274076305504,0.707149417175576,0.8034313263089328,-0.6568869523050763,-1.8689593295637819,1.8890046690704547,-0.9266798892816086,-0.26176103316487054,-0.18866729023770124,0.09844207415910594,-0.1370975333614853,-0.45185773172905525,-0.6123150337183764,-0.993916718773691,0.24969841202944282,-0.8043385575813535,-0.6174644292648652,-0.9911703440728055,0.35250158118254776,-0.6264430199319965,-0.3965949625807946,-0.5757612761290416,-0.48802130290461954,undefined,1495279741947
903d185fccf839df,-0.35628708813689275,-0.5892533897295523,0.40409415463156484,0.4718164831411837,-0.8206455343003898,-1.797509916512036,1.9144874960588374,-0.7008504530912704,-0.3534310580472457,-0.11313068021791207,0.06573290481131794,-0.08401189852020116,-0.4823209113190731,-0.6474967322804587,-1.014969405455316,0.2052450712334946,-0.8320747193958515,-0.6577229523493893,-1.020123146416127,0.3048895889396144,-0.6636375526770002,-0.416305464513825,-0.5524150391597118,-0.45786656090387906,undefined,1495279743437
903d185fccf839df,-0.42697373184048637,-0.5669467321169626,0.5182979628265028,0.44707582658752937,-1.0439583070017007,-1.7691164907122705,1.9298823833428915,-0.6331309762082526,-0.4332815420299913,-0.15583837934759565,0.03215769282533481,-0.08121217851109956,-0.2908380681818182,-0.6160183595032065,-1.0254957359122192,0.3466875603329248,-0.7675624675503733,-0.6365645885364326,-1.036250795609209,0.39418517642507195,-0.642019602058305,-0.4578556591574418,-0.5664110716806594,-0.502414751885221,undefined,1495279744951
903d185fccf839df,-0.5336968938247383,-0.5270296830167158,0.9980826013690404,1.0747839842456863,-1.070279404468815,-1.7917753308510593,1.9284833205675795,-0.6738245703913774,-0.3354627787340798,-0.22478312856932514,0.10771239764875315,-0.14090543141200065,-0.6128773952762924,-0.5882433384123334,-1.036022047963538,0.34668767339181095,-0.7875078139321724,-0.6277554633662704,-1.032647437671282,0.46486403967729617,-0.6290502650115483,-0.47025599289074355,-0.5700214451357465,-0.5054767357310774,undefined,1495279746435
903d185fccf839df,-0.5572591543998158,-0.5158764565083942,1.4147040425018862,1.340601183557754,-1.0623388470192903,-1.8257961985164548,1.9373273543296685,-0.6560963350467023,-0.3872564341570274,0.12880032694605084,0.14006283109855058,0.11993481887923622,-0.5737104500891266,-0.5410258375249406,-1.0381273228895993,0.2840486694359091,-0.7242790962428992,-0.5995421989346793,-1.0309542093473703,0.41857631516974847,-0.6240959199786157,-0.4571157888032491,-0.5517546701622911,-0.4795949729360082,undefined,1495279747980
903d185fccf839df,-0.5420130426248522,-0.5135283965159086,1.4906274561421269,1.5162968988329106,-1.0330966086944957,-1.8011994324266105,1.88145712684466,-0.9780712457187739,-0.37561457810633003,0.31306174444923035,0.030381451217645412,-0.023406313617920622,-0.30824559937611407,-0.5391741098786528,-1.0160220097882946,0.21130697779662685,-0.7818757805074932,-0.5628301257656378,-1.0121957596072129,0.18638316107777606,-0.6509807351213681,-0.458724034635683,-0.510820120237799,-0.4547891077193684,undefined,1495279749436
903d185fccf839df,-0.5142926731443079,-0.4859386331482188,0.9285392958440741,1.0167952098196156,-1.174350087354105,-1.7733370715389805,1.9281256683440455,-0.6672192098365368,-0.4451525315373412,0.43267383073788723,-0.04667775678670395,-0.07711912381673253,-0.15592970142602494,-0.5141766284541133,-1.03286414293668,0.14866803037016807,-0.719763042709647,-0.5195191240500776,-1.0140569115512086,0.19040215517770917,-0.6322993250538744,-0.4664953373097433,-0.4986419113306041,-0.47873643224949425,undefined,1495279750954
903d185fccf839df,-0.5517150321961333,-0.4184318206802822,0.8392175280932824,0.823850382384593,-1.2300779948647769,-1.7315924457736656,1.8851467500080907,-0.8814753190095338,-0.42608533818916133,0.016444082014313334,-0.14853836356803496,-0.10458577572598549,0.1530539772727273,-0.5317674842105417,-1.0454957409574108,0.20524501470405154,-0.69077947054476,-0.5167072966143823,-1.01431579341907,0.12223323819667177,-0.6414072426306477,-0.46998551355501134,-0.49109800117694735,-0.47235476391729486,undefined,1495279752475
903d185fccf839df,-0.5628032593507933,-0.3145301367848043,0.4277004275896056,0.40506088452458017,-1.293993314713417,-1.6463143405822722,1.863137903346641,-0.8710780172165363,-0.3990885863020815,-0.2931502365366612,-0.15528374182352458,-0.15639304205458504,-0.6955631684491979,-0.5317674842105417,-1.0370746927888026,-0.10188733536484398,-0.8051374186498548,-0.5813223206558326,-0.9969846931405745,-0.04892048307342592,-0.6937104345431513,-0.47591000837110237,-0.5068212063784672,-0.4845926308226125,undefined,1495279753965
903d185fccf839df,-0.6029976622517551,-0.5370089379847794,0.10741900020282816,-0.04730036811718283,-1.3878811553700607,-1.51115091618665,1.8184233105345935,-0.9609158146308293,-0.36946027291571615,-0.5515987170774197,-0.06606907329589727,0.1308706063711594,-0.6999150512477719,-0.5956499899819936,-1.0307588753728527,-0.11603155318359332,-0.938686417695503,-0.6389964378012178,-1.0070810915842923,-0.15601667356210214,-0.7404142937238134,-0.4660216034793587,-0.5766761309809906,-0.49931378534287746,undefined,1495279755435
903d185fccf839df,-0.7083347764323814,-0.6015806462341168,-0.08653679477541401,-0.24134358933257324,-1.355265209474924,-1.4661546717646718,1.8425675555134795,-0.7618209396519615,-0.3535884265959566,-0.6165347850179872,0.006018167816066926,0.20786379665245985,0.2879623440285205,-0.7502642753495976,-1.031811520198117,-0.004898158796640457,-0.9689929155184782,-0.7202037747868084,-1.0171005244905431,-0.0465029318232427,-0.7613514068656658,-0.4961874296887547,-0.6777465637435581,-0.539076863604111,undefined,1495279756923
903d185fccf839df,-0.7637753428664212,-0.6256482611570936,-0.1286457624731748,-0.2806268963540841,-1.434094791177643,-1.506170999956381,1.8589407223533572,-0.7759646339596477,-0.3530557911894912,-0.649545357713508,0.012671831179378198,0.13594102896188065,0.2531472816399287,-0.7789651149359036,-1.0086536211694181,0.09815281127580916,-0.9458765309027982,-0.7790621532082193,-1.0113141620545747,0.17512688985033575,-0.738803415274047,-0.48744073713586006,-0.7087116848111794,-0.5300925578248055,undefined,1495279758447
903d185fccf839df,-0.7166508562216759,-0.6051027946788298,-0.1605465571864965,-0.2799655187072344,-1.2517499528873617,-1.5403712203458144,1.8782014259665794,-0.6944637600536239,-0.4360982254506723,-0.7033382436694605,-0.02054075493684971,0.048304250184466685,-0.5998217468805704,-0.7910009496381505,-1.0012851662904376,0.29819301444590535,-0.937651681842814,-0.8132537160947751,-1.0085434247883671,0.5053157560800878,-0.6840303432607835,-0.4676822656548181,-0.7070770696980813,-0.5794023218443864,undefined,1495279759980
903d185fccf839df,-0.6722983961733622,-0.5481623398610552,-0.2868724437319812,-0.3399413614517776,-1.2628379338907254,-1.6126451839166864,1.8876503239530034,-0.7423854848927057,-0.4022794710194335,-0.7032086393994165,-0.04858838702855768,-0.04168451207527927,-0.5345435049019608,-0.7910009431627633,-1.0412852131919899,0.4355943549837074,-0.8556655797905893,-0.8194726671569307,-1.051958636394373,0.41360261335960335,-0.7208349760823176,-0.46290690176720156,-0.7052524004745906,-0.49725273248973206,undefined,1495279761451
903d185fccf839df,-0.6210158351285598,-0.4419125082891147,-0.057188551582100955,-0.09426896399480497,-1.2571910858185027,-1.698764147446187,1.9066138623936386,-0.7336292658488025,-0.41020928417224906,-0.6840307559813061,-0.07575819041877972,-0.021102509416124352,-0.7913045900178254,-0.8206276530476004,-1.0476010048401214,0.42347065491632907,-0.7932501677089788,-0.8424169226980817,-1.0613553532182387,0.5372059326818152,-0.7063476100738482,-0.4719098242102598,-0.6922644935828918,-0.4382551379224525,undefined,1495279762942
903d185fccf839df,-0.6071556848936974,-0.4718502147373208,-0.00869922163211628,-0.037886990743895725,-1.412247970055776,-1.719853078705842,1.9396915617850305,-0.5631877226744352,-0.3662211325490918,-0.7894215270113524,-0.07467320939123918,0.041185824392163915,-0.865286597593583,-0.8271084990726022,-1.0602325991797352,0.3769966691777629,-0.8299706235831029,-0.8455200652937871,-1.0605647133077896,0.5866811374834021,-0.6942241358092069,-0.46637294948274344,-0.6874648002329878,-0.4389841434000592,undefined,1495279764441
903d185fccf839df,-0.6445780784509325,-0.514702309600182,0.09402090022922652,0.007241583933440585,-1.3795291662260039,-1.7380747186098355,1.8807076386188912,-0.9805429966649911,-0.35633324413729356,-0.7767044060480857,-0.07141758587496397,0.008163304876123881,-0.9218610739750446,-0.8122951506055709,-1.0581273500214923,0.44771791372747805,-0.7898427149983921,-0.838015526897661,-1.081904986799742,0.6580683319186175,-0.6793236582744805,-0.4539947653236962,-0.6828862667229298,-0.4250435497022998,undefined,1495279765947
903d185fccf839df,-0.6126997725919702,-0.48300349970162715,0.053187700017571185,-0.03647954691523639,-1.3426137982846094,-1.7466043922459964,1.8843656978556271,-0.9526601718802592,-0.36475341062911126,-0.9293714385476834,-0.043518664934798286,0.007339218225690381,-0.8870460115864528,-0.7984076271093599,-1.0907589678118823,0.33860515015078235,-0.8394426437565037,-0.8302260056595588,-1.0950170102419425,0.36713010266026885,-0.7456458151874712,-0.45120471053406624,-0.6738520171551593,-0.4524049642005424,undefined,1495279767442
903d185fccf839df,-0.7374410556949123,-0.4788943947147774,0.09784871096144176,0.03372514002957496,-1.3956571404826612,-1.7497418783644603,1.875432245538165,-1.0405172168057428,-0.3490044424326579,-0.6966785472650989,-0.021731163499253733,0.04576911845295054,-0.6302849264705882,-0.8363668200100647,-1.1065484487727697,0.2092863328540089,-0.8306510680945631,-0.8660261362069522,-1.1077372123545712,0.36863914989667335,-0.7678748783036986,-0.4531843013029817,-0.6232158171819069,-0.4407573998187969,undefined,1495279768950
903d185fccf839df,-0.6736843749661682,-0.5493362529453286,-0.2664555894892041,-0.24455192993178063,-1.448803337090431,-1.73704752430186,1.9084284267835536,-0.8289705452470327,-0.3761318209187611,-0.7193527406698583,0.028694953526594732,0.04315822660179002,-0.5432472704991087,-0.8863618411376293,-1.096022129359217,0.1385650035101292,-0.8464672271653005,-0.8848666436305834,-1.0908259202943649,0.7290397635342007,-0.6917774787535582,-0.4522731816727093,-0.6414651356595497,-0.46050630496104267,undefined,1495279770446
903d185fccf839df,-0.8912886698184996,-0.720157851222591,-0.4393571547555153,-0.4506984697266684,-1.5447174629884146,-1.7176053625819971,1.8792296817396694,-1.0428464322117728,-0.35299204934401834,-0.6729379406243694,0.07473434623034335,-0.008046847879471792,-0.5214878565062389,-0.9548735688939916,-1.0444431255810815,0.3951822192788304,-0.7284922680941609,-0.9310464684278257,-1.0495377391153466,1.155884671251414,-0.5911955452350293,-0.4706339960193678,-0.7259368573663955,-0.28469103110746163,undefined,1495279772031
903d185fccf839df,-0.989695752013457,-0.6191912130897277,-0.5325064791015729,-0.6476596676997431,-1.639016733981236,-1.6441364985915323,1.850719955678478,-1.123697755510311,-0.2959567622173771,-0.6709509804389988,0.042154594497050335,0.020549731198744443,-0.691211285650624,-0.9585768946788217,-1.0412852168731066,0.6659436387339202,-0.5979790620346014,-0.9371704240946072,-1.050251413457744,0.9011943873392815,-0.6510127143969392,-0.47201074385440406,-0.7396392274826679,-0.27160775472904974,undefined,1495279773448
903d185fccf839df,-0.9799936244205371,-0.5939494512585387,-0.3723656383397094,-0.4541958724137223,-1.5988408016090454,-1.7080857615502334,1.887950120500337,-0.9395722075825705,-0.3167217608505997,-0.702426812514452,0.013759635090986119,-0.030296612133529986,-0.6433405748663101,-0.941911876843988,-1.0212851971034476,0.8498189932750099,-0.5987188968160845,-0.9098564386064388,-1.02851931848941,0.7188921922661123,-0.6669386534472177,-0.47126191250432126,-0.7949389407820762,-0.30859067787917077,undefined,1495279774946
903d185fccf839df,-0.9384131909686547,-0.4231279406652533,-0.03230600286405588,-0.1948097053616956,-1.5738465578815868,-1.7828124156008374,1.902792751152069,-0.9019882490905808,-0.33365326332792483,-0.7700151670144451,-0.016251732482822433,-0.11371653663695001,-0.8565828319964349,-0.9391343825053655,-0.9412850959381095,2.306677286740681,-0.1321480527336891,-0.9223830015878867,-0.964610448003011,1.6442771687157005,-0.43136589524518254,-0.4761956458671338,-0.7678367537153509,-0.03801712408224542,undefined,1495279776438
903d185fccf839df,-0.6071556848936974,-0.38321092079299895,-0.09993489474901564,-0.1747148022503108,-1.313988706749417,-1.7846036011442274,1.9524014076862015,-0.5674903344334695,-0.1759725466776751,-0.7660747657758348,0.03526746378815715,0.034786020980650506,-0.8261196524064172,-0.9141368654661959,-0.9423377260389063,2.666345331258224,0.0312906922610265,-0.9369804368196419,-0.9502459949184032,1.8585157393348348,-0.37762343429479517,-0.47152994077263827,-0.7710518275264744,-0.03464707252326855,undefined,1495279777952
903d185fccf839df,-0.573891417494634,-0.2875273299592511,-0.32706725192668495,-0.4038778699224519,-1.2712722075508138,-1.6915225437041042,1.8869192406851538,-0.8528734393233858,-0.2465251802430014,-0.6795918835283333,-0.009564639411230097,0.0037496687804173807,-0.5911179812834225,-0.8789551701418072,-1.0297062452720558,1.391341803920468,-0.43629948477873676,-0.9120666364315387,-0.9937311744863666,1.3460862747350202,-0.5043080958895877,-0.46493315685719927,-0.7342584262474021,-0.10571283756585435,undefined,1495279779444
903d185fccf839df,-0.7901096645433401,-0.41843179145228987,-0.2798541977367046,-0.44457101457928466,-1.3090721447693425,-1.6730260551770229,1.878517011809913,-0.9073594748053092,-0.28840301513414873,-0.5772188159194234,-0.0016811209811979776,0.16436364632935005,-0.4692652629233512,-0.8530318443202857,-0.9412850885758758,3.0846111746405978,0.1902515447402534,-0.9016172799008985,-0.9366861757880752,2.1755697300507393,-0.2809429706978337,-0.474594402731288,-0.8267850490973963,-0.017964743724120647,undefined,1495279780940
903d185fccf839df,-0.8802005979381834,-0.49650484465841904,-0.33408549792196157,-0.44457101457928466,-1.5422591810501303,-1.7340800741045914,1.8870980662731598,-0.9820373272420314,-0.32559387766300224,-0.7273546652635202,-0.0010006355057740935,0.020471175124721852,-0.36917195855614976,-0.9058043565487791,-0.9549693314218709,2.2480796009347364,-0.019213439828644034,-0.9377467238184961,-0.9625883699104507,2.546487482008854,-0.22638391206898745,-0.47115109922148657,-0.717915344753766,-0.01008716041655079,undefined,1495279782487
903d185fccf839df,-0.8510942324121282,-0.629170351145822,-0.40681847629914086,-0.46979329978820655,-1.5583048678859996,-1.7672950250015138,1.9460767183096321,-0.6599579813837684,-0.3291192181538446,-0.7142260869793402,0.034255525772475856,-0.00856709415749082,-0.5388953877005348,-0.9039526871809768,-1.016022031874996,1.456001254965937,-0.42010179722921276,-0.9230479617868828,-0.9923807902624356,1.6657272030069807,-0.426534280840599,-0.4738487276562209,-0.8261065751890022,-0.03265741601805021,undefined,1495279783915
903d185fccf839df,-0.9148509303935772,-0.5252685795663671,-0.3857642465872099,-0.4450250619957003,-1.597390515986012,-1.6889301006526005,1.9095776419932318,-0.7956761526896582,-0.30742220878366217,-0.7178900976261142,0.03338382192240658,-0.08814586176940109,-0.47361714572192515,-0.9085818606004826,-1.0276009777082284,1.379218188647254,-0.5026617453124532,-0.9317874238900472,-1.0168416416317174,1.2379121949632894,-0.5411024907443289,-0.4732743081030646,-0.7795945177169776,-0.18450790814934845,undefined,1495279785450
903d185fccf839df,-0.8303040674443017,-0.6444328580089473,-0.42213073577579957,-0.47211165498229773,-1.5025563913558693,-1.6650763618827666,1.8898646247545239,-0.8720683556140646,-0.2859585134787945,-0.7335775973243767,-0.03439896241853621,-0.06157758554641148,-0.8957497771836007,-0.9178401944887197,-1.0233904720295088,1.9470090726348086,-0.30113802052562955,-0.9297355504264788,-1.0048421112779522,1.3937752596629032,-0.49450803094135254,-0.4812079753059192,-0.8349373670975604,-0.15151907826829653,undefined,1495279786947
903d185fccf839df,-0.8968327747694773,-0.640323694566113,-0.4355293440233,-0.5341103328166019,-1.5049632458512325,-1.7299223832554789,1.924138890483245,-0.7200102135490792,-0.2834032406367246,-0.7499993908001632,-0.056838589858545986,-0.05054925705044149,-0.7042669340463459,-0.8428476595596792,-1.0518115289244256,1.2034253290824715,-0.4986450736305509,-0.8943343954027376,-1.033319131411453,0.8124839448194757,-0.6318760630780708,-0.459875607966453,-0.7641192660454416,-0.33296021526232167,undefined,1495279788441
903d185fccf839df,-0.7665473867155577,-0.610972973888036,-0.11907547323178842,-0.17230663473521424,-1.4119599726072378,-1.805888191226307,1.9288094214346803,-0.7664491720704327,-0.30246447465489334,-0.7947503610627177,-0.023125578144551854,0.00807662453770311,-0.8957497771836007,-0.8030368102419465,-1.040232583091193,0.83769526494291,-0.5302558854411947,-0.8618970571673694,-1.0289461246196467,0.6214200348527867,-0.6647475575818448,-0.4587761677382733,-0.7647881659469825,-0.30392287608232615,undefined,1495279789950
903d185fccf839df,-0.7790214891467946,-0.485351588922105,0.06148171349895326,-0.007365651741758727,-1.445686771701987,-1.8494985379217919,1.9200995008403452,-0.8778042880914256,-0.2974202702938879,-0.6369222320846735,-0.012977547797459956,0.06681211365516235,-0.5388953877005348,-0.7326734195931692,-1.0423378285683191,1.2802083954011543,-0.47171022447525207,-0.8143873121825285,-1.0350543409370634,0.9986973448879165,-0.5667774852544459,-0.4718826869585054,-0.6624840241626812,-0.3495568863200144,undefined,1495279791447
903d185fccf839df,-0.5849793858587211,-0.5147023534421705,0.3951614949962818,0.36608752746024487,-1.2044768861297348,-1.886498502222914,1.9298429368146979,-0.813669125916081,-0.3113367220187739,-0.4733358031492503,-0.008126895431811249,0.09174327897755019,-0.45620961452762926,-0.732673439019331,-1.05286417374969,1.3771976284988008,-0.5759063064589703,-0.7688027839303977,-1.023474618789353,1.4155332610995466,-0.45143973934642034,-0.47842668239545766,-0.7469961191073372,-0.42239120905655964,undefined,1495279792935
903d185fccf839df,-0.5572591543998158,-0.4078656091700819,0.5061761386129054,0.4982602852268734,-1.1547969691218503,-1.8475326588639842,1.9079077225551866,-0.8968483040003519,-0.3678513152684763,-0.39187193079490923,-0.019799986351066872,0.1737603442876699,-0.8304715352049912,-0.7215634422386789,-1.077074732328121,0.9569111119090877,-0.6247283385059239,-0.7716526089229607,-1.0365796454940819,1.111105995676522,-0.5292389193556674,-0.4616241424863961,-0.6660540632360895,-0.4672825804416114,undefined,1495279794486
903d185fccf839df,-0.4838003460781517,-0.43310719563331684,0.576357073743975,0.5921876282885572,-1.0395560244241304,-1.8107656163200878,1.8624804545757734,-1.1300225715363914,-0.40502293050428095,-0.09633217627608566,-0.06953232230513286,0.048131296012754655,-0.669451871657754,-0.6836042169610376,-1.0854958099456644,0.43155314989263616,-0.7103236477183266,-0.6930291127362795,-1.0475156609004452,0.8297609967869134,-0.5754951277165518,-0.4529902530077524,-0.57246981070299,-0.5619800365613256,undefined,1495279795950
903d185fccf839df,-0.5669612819927358,-0.3579691881898023,1.2788076125780656,1.3040577097188686,-1.0946770789123406,-1.8364850757256244,1.931704836619437,-0.6604999648439227,-0.38397885267646126,-0.14657251747320907,-0.2229580727217798,-0.025985418660464128,-0.7564895276292335,-0.5623200320169737,-1.059179983803406,0.516418711187626,-0.6347737835198425,-0.555851219662779,-1.035180283202522,0.937765691047047,-0.4863663486654982,-0.4526767589822786,-0.5581726783142907,-0.5729909524553576,undefined,1495279797431
903d185fccf839df,-0.46855423430318816,-0.4430864213733881,1.7388137888947777,1.7247712673066729,-1.0287560463667367,-1.8479123230375942,1.9028795278574775,-0.839878185617256,-0.3130389726298495,-0.2174370437092511,-0.2548752043476007,-0.06856097047017563,-0.5388953877005348,-0.4410357564174878,-1.0412852205542236,0.5386453533208786,-0.6345090184425259,-0.4811858152565942,-0.9832709432656346,0.7816408574328056,-0.4679123307888293,-0.43079438133005343,-0.6426931991544087,-0.6055684064253151,undefined,1495279798957
903d185fccf839df,-0.5045906835730269,-0.5129413230618026,1.8581219377188847,1.880968104096264,-1.097546787351804,-1.8779991069673836,1.8886680521320647,-0.9807360478430048,-0.29364245540903783,-0.15879881872382384,-0.2577337273273616,-0.23789186899068773,-0.4300983177361854,-0.46603326374357645,-1.0139167643111684,0.47196534212695623,-0.6453734258153278,-0.4853465602270939,-0.9746508724796654,0.6952401796028979,-0.4846240215713096,-0.4299441556764555,-0.6416587174413223,-0.585204523699318,undefined,1495279800540
903d185fccf839df,-0.6029977312625745,-0.6467808887734406,1.8868325513060944,1.8343118634683038,-1.1381032898722505,-1.9107109430240992,1.9212986838871156,-0.8447494964013658,-0.3287542509039462,-0.04282775962263662,-0.16812032263003407,-0.21405085752001976,0.4533338903743316,-0.41974161372855295,-0.9833903956790215,0.45984167032429946,-0.6392545936182916,-0.44940710466411116,-0.9552417190710606,0.5067632091443002,-0.505746929931302,-0.4468606036781718,-0.5925042981990305,-0.5255587281615459,undefined,1495279801949
903d185fccf839df,-0.44360596042989486,-0.5634246421282342,1.4478808588382628,1.5108564843889611,-1.1755123675665267,-1.8851289092728765,1.8525292604614665,-1.2912702615225962,-0.36940880108283336,0.08741928560194653,-0.07786424733775855,-0.20740803216933995,0.17916527406417115,-0.4178898990330397,-0.9633903648660116,0.6800878989497519,-0.6107903887115189,-0.436652556972637,-0.9521911093208493,0.7652723071367047,-0.4460225718306116,-0.4726999388698397,-0.6137437566511159,-0.5459488647947998,undefined,1495279803442
903d185fccf839df,-0.5697332913364624,-0.6180170954095079,1.216282553048376,1.21954616030742,-1.2507933845731773,-1.9030687097804657,1.8728813372259496,-1.2149369904903566,-0.40197761528971737,0.40203111195866664,-0.028968665120718214,-0.12472813286061507,-0.5954698640819964,-0.45307159759512206,-0.9876009455311439,0.5447071750898461,-0.5970005640419734,-0.4753278452229995,-0.9583203156304672,0.5925479454946081,-0.4990336290416697,-0.44840855763617044,-0.5728062881786099,-0.5363963177083428,undefined,1495279804945
903d185fccf839df,-0.7637753256137164,-0.49415684312191815,0.35241489769241763,0.3801616453128212,-1.3613851980024974,-1.853222990086112,1.8940144609052878,-1.0480051398668508,-0.3936602651773542,-0.08612992600907898,-0.02523480200901345,-0.06266339236250897,-0.6128773952762924,-0.5734300223222385,-0.9939167408603924,0.48206842551643814,-0.6565120093446688,-0.618059729154123,-0.9915761577823675,0.6257161977532609,-0.5622199376638417,-0.45906282798031656,-0.6661789896775494,-0.4562790342644389,undefined,1495279806439
903d185fccf839df,-0.8635684211068895,-0.4642190489897351,-0.034219654093214084,-0.07622697151648147,-1.4519301881779136,-1.7732718522410735,1.9221849459859952,-0.7845250166301097,-0.3506678031016572,-0.4867558677223578,-0.034803270202682396,-0.0328623625193582,-0.9784355503565063,-0.6604583725273641,-0.9476008765428905,1.2983938607080572,-0.5374381905800162,-0.7192601684544467,-0.9637428435215907,1.1690195417438207,-0.4759445439596193,-0.49688543743156066,-0.7470811013621964,-0.26914964505542527,undefined,1495279807977
903d185fccf839df,-0.8829725900292051,-0.6602822045022402,-0.15671823818038239,-0.23269351787009235,-1.4653427371000727,-1.7148568613323885,1.9139168313260309,-0.7764008201559419,-0.3451604409003922,-0.6022240996210279,-0.025282091073728412,0.02798803908403212,-0.9914911987522282,-0.6965659090110412,-0.9791798605513666,1.2418169046388952,-0.5216907662664437,-0.7455165526862271,-0.9717401982007062,1.6192392933775566,-0.3973507326964713,-0.4891698690638972,-0.7314044852487106,-0.2837209440434344,undefined,1495279809439
903d185fccf839df,-0.7776355103539885,-0.6602822045022402,-0.17904874365231768,-0.27483980825023885,-1.4341667920111607,-1.6970707901447486,1.9105270078524998,-0.7708144958473063,-0.3411777350919928,-0.6898984830482625,-0.006256835080652479,0.10874808457980918,-0.7869527072192514,-0.7067500743454858,-0.9528640564958096,1.245858081465245,-0.577297817128469,-0.7769406188978562,-0.9628752387159663,1.4987156676275515,-0.42837628914598347,-0.47391287011680927,-0.740140369815867,-0.16103296263620417,undefined,1495279810946
903d185fccf839df,-0.6930885956465984,-0.6485419045398124,-0.09738285150290586,-0.10183645133921024,-1.3590092030928997,-1.7678167735207961,1.922032410052451,-0.782443919263055,-0.3120598534315824,-0.6546019011326681,0.0021251176151780423,0.09322945867318928,-0.6520443404634582,-0.7132309203704875,-0.9254956149772221,1.5267227538981458,-0.4938684728599843,-0.8198083140798457,-0.9540872441753377,1.8378664290397309,-0.35747555279984716,-0.46472277829770636,-0.7516063178121056,-0.02963910504782209,undefined,1495279812438
903d185fccf839df,-0.6736844439769877,-0.6438458137828337,-0.19053268412286228,-0.24841718464683996,-1.2418756866071812,-1.799082153374599,1.9306581706508188,-0.7549924138654592,-0.32591275146410337,-0.5697177710167113,0.035172165041576664,0.045052893382671495,-0.7129706996434938,-0.7511901067958051,-0.9318114029442368,1.6014852035389322,-0.4646850064164893,-0.8206379294302875,-0.9400586380800982,1.767295353788259,-0.37161141656147095,-0.457914193518318,-0.7172758173267988,-0.05343436116286959,undefined,1495279813944
903d185fccf839df,-0.7568453108807522,-0.6814148321185871,-0.09674496775985313,-0.09592539879631144,-1.2754893428084482,-1.817774298686393,1.909477716794266,-0.9269968225469541,-0.31256839991438007,-0.45485623148917714,0.03233863790555673,0.06045999011157587,-0.8696384803921569,-0.6928625702754365,-0.990758850558002,1.015508741185589,-0.58491187179765,-0.7997455474025348,-1.0004481130564349,1.152666410275103,-0.5235100441902005,-0.45616362717157855,-0.6494061182312159,-0.12068782856380285,undefined,1495279815441
903d185fccf839df,-0.731897037007459,-0.5041360980899817,0.37346938154129805,0.24326803564111346,-1.1655558139995927,-1.760519268526753,1.917580147027129,-0.7474438312558952,-0.41255663312540464,-0.19409341463523141,-0.052097406252183405,0.09145970587272237,-0.8348234180035651,-0.6937884081970314,-1.0254957248688685,0.7609122268889489,-0.6482814520128687,-0.7730711889710964,-1.0254407220890467,0.79277394007354,-0.5967379763725082,-0.46190354254811067,-0.6529627223312083,-0.16217238317473653,undefined,1495279817005
903d185fccf839df,-0.7014046754358929,-0.45423982324966383,0.19163591905055205,0.1006485246638301,-1.3068092917149559,-1.7059102560974193,1.8704356084820195,-0.9769332408791286,-0.43843065965430755,-0.23159944570936034,-0.10860434999260361,-0.04194915142653477,-0.8609347147950089,-0.6891592315398318,-0.9970746458872505,0.9185196776762717,-0.5765343360375695,-0.7965537435067592,-1.0041074455792487,0.8661013357405908,-0.5800500169648599,-0.4712841695156987,-0.6583230456512569,-0.12272099152194524,undefined,1495279818466
903d185fccf839df,-0.5738913829892243,-0.6227131861664867,-0.20329290035341116,-0.25403993890702276,-1.219874581234051,-1.6498338224199214,1.8405031550806694,-1.1019051021163049,-0.37797798249535036,-0.2899910978612297,-0.07444174417577638,0.02875872621961524,-0.8870460115864528,-0.8021109723203518,-1.0339167767185937,1.1751368651802514,-0.535655771405874,-0.8363752928961933,-1.0461582790337172,0.799164292860553,-0.6218723500348649,-0.49374799728180424,-0.7412366845760039,-0.33047502002321344,undefined,1495279819968
903d185fccf839df,-0.5489431263686358,-0.726028001203805,-0.373004030356661,-0.4251461659748186,-1.279943051656634,-1.6311812749553958,1.8354749561928736,-1.1448795351601162,-0.2680685940022799,-0.6123488491262757,0.005137357407394439,0.15988966929558932,-0.669451871657754,-0.7854459480101308,-1.043390488118051,1.4681250115627582,-0.4649303380852316,-0.8083266846569411,-1.0344176306089843,1.0940291208612734,-0.5487560160449854,-0.497207533990542,-0.69001592201697,-0.3545471848136432,undefined,1495279821434
903d185fccf839df,-0.3992534313707616,-0.7242668977534561,-0.33280922216195724,-0.38128472197526564,-1.1843066412811327,-1.6757768887224185,1.8645237872502642,-0.9964069629114474,-0.3246190502753947,-0.4804499915200795,-0.008868276405271007,0.15636759402404315,0.2400916332442068,-0.7845201230393106,-1.0465483784204415,1.5449080496167196,-0.4683216105933104,-0.812544425793874,-1.0186818035773946,1.1965827659719137,-0.5220738011906052,-0.5022808991487504,-0.7063679392768666,-0.3418666535394024,undefined,1495279822996
903d185fccf839df,-0.529538853930091,-0.40493038803951326,0.00597515410148967,0.026448521529411316,-1.1156598981781152,-1.6861909158778428,1.9194867445868153,-0.5858115986139547,-0.4549036612105468,-0.06157605178393083,-0.10489453387329623,0.10388220264057021,-0.29954183377896615,-0.7632259350226648,-1.032864179747849,1.3125381209238889,-0.471445287336857,-0.774027463045596,-1.0055977667547602,1.3625164148819116,-0.47196573929233837,-0.5019962086883356,-0.7112354305549037,-0.3483370265729124,undefined,1495279824444
903d185fccf839df,-0.3299528009653837,-0.3074858691233706,0.7148058010508548,0.7438669137274208,-0.873740303869344,-1.7050344608920913,1.8721107969546884,-0.8462015813260224,-0.5857671677486677,0.059488001451107046,-0.14508974144808345,0.008598451275864947,-0.5867660984848485,-0.7076759122670806,-1.0423378285683191,1.306476186096035,-0.4841481584986015,-0.7048273872280474,-0.9762461450169925,1.6432916731881926,-0.37764107236230116,-0.5087846936591977,-0.6851917707847185,-0.3686308237966631,undefined,1495279825946
903d185fccf839df,-0.29946040488840797,-0.5276167272428296,0.49086337086234794,0.3852727873358022,-0.7047874411186266,-1.7478109397002306,1.8979328670185989,-0.7214529669549302,-0.5121218804875013,-0.03793994174751223,-0.10633223531009518,-0.04343426419891562,-0.6215811608734403,-0.5937983465157404,-1.0465483784204415,1.0559209616846306,-0.5172920927163612,-0.674099944715735,-0.9906175949858816,1.4517966091587609,-0.4168901688635722,-0.48567410755494195,-0.6160022068522565,-0.42217001264415965,undefined,1495279827433
903d185fccf839df,-0.27589824782955963,-0.5510973271676851,0.1973783975597232,0.2366511181761033,-0.6320264209646813,-1.773358036505406,1.9091174311009418,-0.697712739575083,-0.43937319294295735,-0.18327367732481759,-0.07101605568952311,-0.10735622659140301,-0.8130640040106952,-0.5308416398135596,-1.0718115597374354,0.7346442948704605,-0.6636408861534557,-0.6824657638616995,-1.0024561991910825,1.1603810292358736,-0.4881468784200086,-0.47608165124920915,-0.5981681357807752,-0.400758505684211,undefined,1495279828962
903d185fccf839df,-0.2953023994991704,-0.5687078647953038,-0.016355859644344467,-0.10161596050881508,-0.9257139270536965,-1.7327174712302098,1.9076263246806415,-0.7186419681121389,-0.4963978467196076,-0.21536944979321535,-0.046458326896981074,-0.12463675653291455,-0.3996351381461676,-0.5947241909127224,-1.0602326212664366,0.7043351860256223,-0.6252550035313155,-0.7105460356511023,-0.9946477581976573,1.097678561949896,-0.5162315302052878,-0.4759879728406703,-0.5283161408002054,-0.3890088396620556,undefined,1495279830470
903d185fccf839df,-0.44915001362275786,-0.5540323729302997,-0.11141934349345908,-0.14455113720270316,-1.2054643178866886,-1.657275739876708,1.8881552367903276,-0.7905850401276918,-0.4782298036154045,-0.2585198540769168,-0.02360886938565404,-0.16016247617404242,-0.5345435049019608,-0.6910109073830215,-1.0128641342103717,0.7710153385431523,-0.5577914916866673,-0.7696767300028512,-0.9729716380283066,1.3928975492148266,-0.4652721974000313,-0.4657616880028828,-0.5589013905024242,-0.34242982031854363,undefined,1495279831975
903d185fccf839df,-0.6903166035555767,-0.48241648470350573,0.06275798925895758,0.02920844185966813,-1.350214932467098,-1.6810363087697697,1.9014462823509861,-0.7639024393271024,-0.42202615667522186,-0.3026963329088933,-0.022464390329434158,0.01564737143333653,-0.7042669340463459,-0.6882334000936243,-0.9928640739484266,0.7487885268215705,-0.4869210164903344,-0.775427043227343,-0.9665835491963012,1.6640025796748357,-0.40646644597035636,-0.45704621782737964,-0.5789342244761383,-0.39676308149814377,undefined,1495279833448
903d185fccf839df,-0.4907304470746402,-0.41843184990827453,0.12081659190253094,0.07557956484434729,-1.20869402818514,-1.7315994334953964,1.9092988922537815,-0.7682604697609738,-0.4309628417111384,-0.2705226312381074,-0.023194863648127242,0.0787470359151747,-0.7042669340463459,-0.7271184114897622,-1.0254957027821672,0.6356345581538037,-0.6045746198248279,-0.7917153750189218,-0.9791428252154187,1.433549443214063,-0.47064765129151126,-0.46303729981337893,-0.6102400146569483,-0.436598599360444,undefined,1495279834946
903d185fccf839df,-0.5073626411586389,-0.5669467028889702,0.13485308389308415,0.07762897346950798,-1.0730976815723434,-1.7927582697457265,1.9669442355054685,-0.4696933427161896,-0.40513043819351874,-0.25994105789783845,-0.008742876833951679,0.06263291115939029,-0.8087121212121212,-0.748412599506408,-1.0044430492305942,0.8336540881165604,-0.5398006253891615,-0.8027410292581045,-0.9870772079727039,1.4272976724108364,-0.4780957199462664,-0.46643379734366097,-0.6248527962049983,-0.38505293414358793,undefined,1495279836435
903d185fccf839df,-0.6113136730302301,-0.6103859296619223,0.055739234989782116,-0.030187329132513662,-1.200691752340287,-1.741263448912548,1.9398467207131465,-0.6021231825557847,-0.43998731744290415,-0.3389523096761395,0.0012178147419692077,-0.03321091564688584,-0.9001016599821747,-0.7289701002837263,-1.0086536064449505,0.7407061731688711,-0.585853451784797,-0.8046092482132118,-0.9937031880686631,1.4660247627082466,-0.46944654567549093,-0.4712399177239372,-0.6468568516495238,-0.38289317321323313,undefined,1495279837941
903d185fccf839df,-0.7817935329959309,-0.6109730031160283,0.05892967025284348,0.019744946971979555,-1.4028468394937121,-1.741265777482646,1.9237707148557694,-0.7410964545308796,-0.3904405148366001,-0.48407539567800906,0.026481505086903216,-0.04886260034763293,-0.7477857620320856,-0.7465609236632185,-0.9654956766032418,1.2701053685411154,-0.3946797676767262,-0.7923106721786032,-0.9810599511754141,1.5607714014837046,-0.43255851780142246,-0.48168472161767123,-0.6833904436550571,-0.22866803676962535,undefined,1495279839456
903d185fccf839df,-0.8885166259693633,-0.6262353930671843,-0.3640721331322262,-0.43669411223406596,-1.5284969165141649,-1.7382004970863523,1.934045365892169,-0.6840966081324955,-0.41651936874925644,-0.4569705652206494,0.0038349965057284693,-0.08978462165359577,-0.678155637254902,-0.8502543370308885,-1.0044430529117112,0.8619426085482236,-0.5855463772365388,-0.8565900506757682,-1.0365236710682388,1.162290431490159,-0.5631626143096067,-0.47146628385756295,-0.6304677299140026,-0.23467447050275975,undefined,1495279840943
903d185fccf839df,-0.7651613906700467,-0.5945364954846525,-0.18989480037980955,-0.22178551344140318,-1.4286845146934497,-1.8185266405296172,1.962823325621522,-0.5835616675487147,-0.3947983658489254,-0.2721251087260227,0.01813770685672293,0.0077492118030081,-0.7564895276292335,-0.8493284926339064,-0.9897062204572051,1.033694263021935,-0.5175186034597217,-0.8751899053427186,-1.0390845040754342,1.1808917527815346,-0.5620878062628593,-0.45922726075314524,-0.6415334399880731,-0.23763471158657642,undefined,1495279842479
903d185fccf839df,-0.7776354758485788,-0.5710558663318046,0.046807846039246155,0.016051023801223103,-1.41030397525201,-1.9018761372464477,1.9689008040448122,-0.6297096315159396,-0.3221719907178749,-0.3089531498077287,0.051885233680078184,-0.10376262478668107,-0.7347301136363636,-0.8743260064353824,-1.036022055325772,0.5002538060291765,-0.6923011293680098,-0.8765451556606371,-1.055016242655725,0.7909261227428402,-0.6561654738626362,-0.4510679778741119,-0.645300193317205,-0.286943579611805,undefined,1495279843948
903d185fccf839df,-0.8400061432791072,-0.7612489010910881,0.9298153174671291,0.9099956073221032,-1.288829892489504,-1.9905689094643073,2.0465484628191217,-0.19012392543031975,-0.26241844952916393,-0.17093403513227642,0.1257202963521391,-0.11049159410021375,0.013793727718360084,-0.794704307799917,-1.0044430676361789,0.4517592036127139,-0.6308802027689793,-0.8001065254745161,-1.0291420360215389,0.6711262190419923,-0.6436001089979868,-0.4229511894683799,-0.6675800509508408,-0.3141700319712512,undefined,1495279845458
903d185fccf839df,-0.7762494970557727,-0.7553787803378667,1.1142005690670354,1.1151319309247116,-1.3222584108212967,-2.010528160265506,1.9980022468843022,-0.5381156268397115,-0.2603662007963192,-0.3556255777819024,0.122552724114842,-0.2380001934713003,0.2531472816399287,-0.8048884666589743,-0.9791798679136005,0.6416963516580497,-0.6293195389713605,-0.8047169080065775,-1.0046531980204563,0.7817024554821426,-0.615517361966418,-0.4230796365672241,-0.6765781881909997,-0.34222925283678585,undefined,1495279848255
903d185fccf839df,-0.7970396965290091,-0.7506826603528955,1.0784719636214986,1.0510022338813192,-1.329910968985805,-2.0107704011115457,1.9879353487502476,-0.6063276897913654,-0.25729979813427667,-0.37675532947019436,0.11822810391972806,-0.24672552577611784,0.3662962344028521,-0.7947043142753043,-0.9739167174096164,0.7669741051873595,-0.6408455322452812,-0.7982319738802481,-0.9922058714769647,0.8552916251256495,-0.5943773625176271,-0.42596160113092973,-0.6763421950658178,-0.34762423675894055,undefined,1495279848469
903d185fccf839df,-0.548943109115931,-0.7765113202702366,1.1531193556386843,1.15231135456059,-1.235930555629444,-1.9742199792111375,1.9594571887107943,-0.7367420845017995,-0.24246115149611538,-0.4060320458413762,0.1109902040089794,-0.2945640188084552,1.3585255124777185,-0.6799008911762076,-0.9981272796691641,0.42347071144577214,-0.7077580912497494,-0.7549906337755425,-1.0329692913080475,0.6780247212018484,-0.6321536963065314,-0.42306769846989367,-0.572084259997625,-0.4800974066367151,undefined,1495279849948
903d185fccf839df,-0.530924832722897,-0.7794464244888358,0.5080900439790131,0.5350346612930681,-1.0411605964069766,-1.994710296294877,1.9299691768086487,-0.9210786416422647,-0.26183189833764675,-0.43825992805561637,0.16071043640753668,-0.24109117960206314,1.2975991532976827,-0.6521258700853345,-1.0065483315188894,0.9488287017269452,-0.5317369976254085,-0.6973418478401268,-0.9944798348528411,1.3482882557186424,-0.4408133183998501,-0.4491581580717746,-0.6429425965875915,-0.4373305142484526,undefined,1495279851468
903d185fccf839df,-0.42697383535671557,-0.7465735553660459,0.48320724112401864,0.5134176465284237,-0.9762681353776916,-2.002576137642333,1.9579871217657245,-0.7160110612526378,-0.2701474184056337,-0.6999165495244043,0.1798764130737874,-0.1802126726244979,-0.29518995098039214,-0.6465708878834766,-1.0360220700502396,0.6376551465669784,-0.6382307882898834,-0.6967085534336309,-1.0086343830055595,1.118389464747866,-0.49473788252226825,-0.46749322647805225,-0.6388164458822883,-0.4152704512009392,undefined,1495279852959
903d185fccf839df,-0.39370944718871803,-0.7530306911173887,0.9336433823362937,0.9611968141855723,-0.8660260364598912,-2.0244803037635224,1.940512057323123,-0.8288859714912851,-0.2727532014805707,-0.6976488257984316,0.22490694589883223,-0.21643274087706388,-0.3996351381461676,-0.6567550337917594,-1.0191799221773863,0.6982733642566546,-0.6754130728528301,-0.6754171964691125,-1.0039045387550527,1.2070537120524938,-0.4637194374857758,-0.471251418123666,-0.6742411785987122,-0.42269414368386415,undefined,1495279854479
903d185fccf839df,-0.46301011209950566,-0.7131136054821516,1.4478806047013133,1.4359817482067694,-0.9091333937423718,-2.006135215670533,1.9116157381062746,-0.9949216198628743,-0.314170595263918,-0.5901423572737706,0.15642163764739167,-0.30324559140084134,0.20092468805704103,-0.5965758538051376,-1.0297062820832248,0.47398590227540954,-0.6286309242429059,-0.6593821828730994,-1.0022532912719326,1.2874027986815033,-0.4360880603598554,-0.46379412464758696,-0.7045832456701211,-0.4325169185868899,undefined,1495279855960
903d185fccf839df,-0.44360596042989486,-0.5687078355673114,1.3177263991497146,1.2809126092746683,-1.033816609553727,-1.9433878392748116,1.8775544911719573,-1.1668029521967487,-0.3576899002356437,-0.547319442472162,0.1348992366556488,-0.3176861315955064,0.923337232620321,-0.5512100028593852,-1.0539168185749543,0.2577807374174207,-0.6036669254360066,-0.6091302751971708,-1.0133572301332194,1.2282881677575057,-0.43199185134270324,-0.4682881297614763,-0.7216777015111475,-0.41524444609257705,undefined,1495279857488
903d185fccf839df,-0.4200436653494076,-0.6215392146262286,0.738411819871946,0.7239860605768724,-1.0120315011657137,-1.9284993415853944,1.888757467544872,-1.0877400786312643,-0.38386036435274457,-0.6208882643640943,0.0896992335521217,-0.24908027660773352,0.32277740641711233,-0.5567649915366303,-1.027600992432696,0.21332750968035863,-0.7518300447883094,-0.6452343872182523,-1.0115870361923194,1.0579813612831246,-0.48520905998037567,-0.4697392903952772,-0.7239802549858807,-0.46410530674276423,undefined,1495279858941
903d185fccf839df,-0.33411084086003096,-0.27930909075755933,0.03340923779174568,0.02611209180102609,-0.9079505268458908,-1.7309029906077418,1.8658203018320383,-0.942954881623097,-0.33504409579599403,-0.7559544452614361,0.006840900691474324,-0.11740536229777819,-0.7521376448306596,-0.6271283757100204,-1.0054957161425602,0.27394581216419944,-0.8059586819741694,-0.6785520037278382,-0.9871751632332214,0.7080978825198332,-0.5664856158897699,-0.47366550865588547,-0.5854095797541048,-0.633713177358907,undefined,1495279860443
903d185fccf839df,-0.07492611255581715,-0.2511323416197404,-0.12609371922706503,-0.18587083718181166,-0.675246920156388,-1.6487786740792074,1.8546988519853007,-0.7931697462650642,-0.37197356155185224,-0.785206986449887,-0.022822373383049994,-0.034612499163725996,-0.8826941287878788,-0.6771233968375849,-0.9339166631458304,0.31839912469542614,-0.776457514854309,-0.6768737738969426,-0.9528348155116604,0.9108492142361181,-0.512960771909873,-0.4776241785426435,-0.5976653929284842,-0.6788746549259667,undefined,1495279861986
903d185fccf839df,-0.18580731443471626,-0.5000269346471474,-0.0629300135434744,-0.2047586973031847,-0.7346468218358777,-1.6021426472411728,1.8587882010851182,-0.7219472269335948,-0.2877053705202105,-0.660514306105809,-0.07322121763500997,0.022447361275828064,-0.7869527072192514,-0.6428675232463229,-0.9286534979173788,0.4153882729989081,-0.720878172160089,-0.6782670211184022,-0.9534435384433062,0.8234168402112892,-0.5316592025743954,-0.46492087398494664,-0.5723821741172683,-0.653584546942172,undefined,1495279863445
903d185fccf839df,-0.31054851127413396,-0.3890810415462205,0.2082247084241645,0.2843318625712103,-0.8094032681115193,-1.6538331242030813,1.8403401135510542,-0.9423158497094637,-0.3762147430992341,-0.6978978323433278,-0.0864982174505311,-0.0348642456175876,-0.8391753008021391,-0.703046755036043,-0.9044429393389479,0.4901507226396945,-0.6674981919881307,-0.7364414418939514,-0.9453202409665474,0.7026622317888618,-0.5834935180987681,-0.4500733026961309,-0.4835673433192984,-0.6320417760569027,undefined,1495279864972
903d185fccf839df,-0.5544870587925648,-0.3890810415462205,0.4072840816207274,0.4186243394343893,-0.8911539891415197,-1.6835146191634751,1.8791665706466294,-0.7965883931452077,-0.404428539717336,-0.6855014325166521,-0.07776152841413013,-0.04599167390677807,-0.9436204879679144,-0.7465609366139929,-0.8949692500261921,0.36487299737510615,-0.6957312031010332,-0.7723365666352624,-0.9499451330233188,0.5921013929594946,-0.6200720206818903,-0.43346410873916574,-0.51609993589151,-0.6144812901535126,undefined,1495279866443
903d185fccf839df,-0.6057697233535962,-0.48887376659481036,0.2158805840255444,0.28495191430843037,-1.1370232894766366,-1.6242960406507856,1.8304625644089478,-1.1086196320680097,-0.2938491732452117,-0.6013080307420022,0.019691678901293582,-0.0236558398119274,-0.9523242535650625,-0.7697067939984411,-0.9412851033003433,0.08804978441577029,-0.7147334229545715,-0.7886185646249805,-0.964218627786744,0.23476506766372326,-0.7067208232759843,-0.42797778336240616,-0.6030790011320043,-0.5641673677009074,undefined,1495279869368
903d185fccf839df,-0.6057697233535962,-0.488286751596689,0.2088623380302678,0.27415954270251314,-1.134472436275009,-1.6180187408440418,1.8468436285156296,-0.9924796138042812,-0.29876761678382513,-0.6088087467752298,0.0004332887902753733,-0.03610639883557651,-0.9523242535650625,-0.7539676140852023,-0.9412851033003433,0.08804978441577029,-0.7176722946009207,-0.7834318838473198,-0.9653101302590374,0.23350239500250475,-0.7043945263771494,-0.4296903569082752,-0.6080114834735214,-0.5621537397836418,undefined,1495279869453
903d185fccf839df,-0.7166508562216759,-0.5528583429340569,0.11571301368421023,0.10690005303565571,-1.3253852605124161,-1.6416442145374772,1.859592925135081,-0.9909813584826979,-0.22685960663754826,-0.7282450383481199,0.012684545100045783,-0.08053690562642599,-0.6346368092691622,-0.7428575978783883,-1.0023378037534683,-0.3019275526673009,-0.89271603350214,-0.7831215693524409,-1.0319757443164859,-0.17839062132477662,-0.8240821614074728,-0.4096223151105678,-0.5709049500508111,-0.4542733273465318,undefined,1495279870984
903d185fccf839df,-0.9065348851096924,-0.5193984880411379,0.13549147591003574,0.16361959602122858,-1.4920341248199156,-1.6412063186862131,1.8677610999307743,-0.9566193282920938,-0.2793571728508263,-0.7194069549344317,-0.02837925452386873,-0.049404883143329095,-0.6346368092691622,-0.8021109723203518,-1.0560220677331973,-0.46761735710732316,-0.9836871426071472,-0.8121961138639341,-1.0653225455542013,-0.4983241232507843,-0.9153744469988577,-0.41122820245009845,-0.5661257854961116,-0.4532304932215884,undefined,1495279872483
903d185fccf839df,-0.9190089702882245,-0.5534453579321783,0.13230104064697437,0.11611321453300198,-1.4975986824345593,-1.6373374532663534,1.8972727816353756,-0.7596122206759804,-0.3058215161908099,-0.6086268344489988,-0.017942284105700944,-0.16431636373913683,-0.7608414104278075,-0.7965559577415575,-1.1191800541557342,-0.5605653285844555,-1.0264547398178179,-0.8230381141483224,-1.0874254705692064,-0.6073913117544901,-0.9457148168186242,-0.4225605610442906,-0.6186518367561602,-0.47728850953671104,undefined,1495279873942
903d185fccf839df,-0.6210158696339696,-0.45952289977677163,-0.18351443812758567,-0.2702627473513519,-1.2172722933376137,-1.6757396210471496,1.856471356280147,-1.0153893860400882,-0.19343707890890444,-0.7326081077448341,-0.0337654274099399,-0.1477362823176907,-0.3343568961675579,-0.8530318443202857,-1.1654959037487684,-0.41912275469086063,-0.9718153136205908,-0.8634106294881997,-1.125257227627808,-0.08085687372410238,-0.8514584249718327,-0.4706916123933181,-0.6526867951234854,-0.4166330472704549,undefined,1495279875440
903d185fccf839df,-0.6847725158573039,-0.5293778014651861,-0.3315329464019529,-0.4336168990032167,-1.1951786180915023,-1.7084607730976025,1.876631448487849,-0.9381239136028611,-0.1726127830437303,-0.722627211696633,-0.0035175083567858655,-0.07097045038957349,-0.33870877896613194,-0.8817326774312043,-1.0054957014180925,1.1892810264695577,-0.3975214218766369,-0.8802752587447077,-1.063216505015425,0.6656597571770048,-0.6694454869816122,-0.4840017898522377,-0.7042722349728223,-0.14191956734230532,undefined,1495279876942
903d185fccf839df,-0.8233739837005181,-0.6391496937978626,-0.251781722029497,-0.34700823866219127,-1.158777538676988,-1.8174412164539466,1.915226480783579,-0.8443738371280135,-0.12481607942575854,-0.7188814097348946,0.015538623100357807,0.010919904742699119,-0.7651932932263815,-0.7956301327707372,-0.9886535609074731,1.1306834395901386,-0.4470781743646189,-0.8369705897901148,-1.051811703359846,0.7756354547832424,-0.6214651362485625,-0.48953267679389406,-0.7678877301784506,-0.1810124644590187,undefined,1495279878441
903d185fccf839df,-0.8067417896165193,-0.6414977537903481,-0.08908883802152379,-0.13637583288173902,-1.4064365562743555,-1.8480916736025081,1.9188845305926188,-0.8952659476716983,-0.3643390594456455,-0.4791649782224377,-0.03825155189506323,0.08930738708095348,-0.4823209113190731,-0.7261925929943293,-1.0076009468952185,1.1529101241204733,-0.4813326621439478,-0.793868575952285,-1.0389305743829567,0.8504411008900412,-0.5841627921004421,-0.49094009176045117,-0.7873534859551616,-0.205492690190098,undefined,1495279879952
903d185fccf839df,-0.7249669015055608,-0.5734039555522825,0.37665956266740996,0.31419783600629236,-1.434063937195337,-1.8258660732203724,1.8928178893303507,-1.0327025191444943,-0.41680136508999166,-0.3815838502388353,-0.05829405346310082,0.10961980786520033,-0.44315396613190733,-0.7169342591060922,-1.0170746619757927,1.051879728328838,-0.5131662080624398,-0.796769064892907,-1.0219912952444041,0.9149913854797939,-0.5681175640429711,-0.49465583802827473,-0.7845332864198108,-0.2289457541511495,undefined,1495279881477
903d185fccf839df,-0.7318970197547541,-0.5916013912660532,0.8054028280138531,0.7030612546961443,-1.4039577012135442,-1.8339694958998138,1.9016356198201945,-0.9704789680425828,-0.4403042694171752,-0.35085914922995026,-0.0785594179075788,0.0656212899046817,-0.852230949197861,-0.6586067225857235,-1.0202325670026506,1.1145185909611321,-0.494578653797127,-0.7449592518321269,-1.0213265978318617,0.8985458439930594,-0.547482949306565,-0.5071496625374543,-0.8246254383487401,-0.21680442752805698,undefined,1495279882981
903d185fccf839df,-0.7693194133119892,-0.5041360688619895,1.0114809554795914,0.8874052771759645,-1.3748286054401426,-1.8564909107412733,1.9393154763204892,-0.7335766859121646,-0.4490402016255067,-0.434831806149557,-0.07829026383500946,-0.08162794723472208,-0.852230949197861,-0.5799108424456911,-1.0739168273012627,0.1870595776618702,-0.7313996832864379,-0.6973735132063036,-1.0505312864005274,0.08207407991242174,-0.7314564234203994,-0.49614211638112304,-0.6757270621816386,-0.41127798032016494,undefined,1495279884502
903d185fccf839df,-0.7887236167397146,-0.4882866931407043,1.2449929124986363,1.2086866496482354,-1.3484252203982001,-1.8381900782233231,1.8974279227556208,-0.9705827345904654,-0.48015397595936926,-0.35201007346168206,-0.0952913003946693,0.006010023797396956,-0.847879066399287,-0.566949182772624,-1.0981273932419275,-0.017021830599297242,-0.8345478591334977,-0.662732311003063,-1.075432935974183,-0.18508894740942852,-0.7844508271427858,-0.4817380559454365,-0.5790167180511145,-0.5063356829681982,undefined,1495279885954
903d185fccf839df,-0.5392409470176013,-0.4718502439653131,1.3910977695438453,1.244291655408194,-1.1704106598829376,-1.8667512104269082,1.9545341652011956,-0.585418977860117,-0.5292607100726626,-0.1983682471050918,-0.15165415886642483,0.0043715135040790585,-0.7608414104278075,-0.5336191471029568,-1.0960221183158663,-0.07157825478472739,-0.8302414442910336,-0.6219291563014764,-1.0833743161418168,-0.2723827341463214,-0.784780706664297,-0.48398305702593614,-0.5391299500523014,-0.5056155794429231,undefined,1495279887440
903d185fccf839df,-0.24263382515615237,-0.4061044472637484,0.9330052444562915,0.8339937669696725,-1.020208629581106,-1.822728589341671,1.9238864042102122,-0.6953610262873786,-0.4672941588547029,-0.2555155911717633,-0.17781832131563954,-0.02171096350994649,-0.8261196524064172,-0.6076858441104024,-1.0876010554227904,-0.11401093650569692,-0.8139024511699791,-0.63418340075589,-1.0906160150810904,-0.1715999073541451,-0.7742207570710012,-0.4961877804009036,-0.552799170602543,-0.4979692336250654,undefined,1495279888944
903d185fccf839df,-0.35767306692969875,-0.3603173066382725,0.5674251765195402,0.5375055432982125,-1.0938850786019518,-1.7802246320108366,1.944080696956964,-0.5274186785754729,-0.48449761305956285,-0.4067722019448989,-0.17265485313935428,0.04157258407309184,-0.9523242535650625,-0.5252866705624762,-1.1139168852461656,-0.11603156731595408,-0.7495698014858911,-0.6239746949167543,-1.0944222798493304,-0.17839062370760556,-0.7685923589226679,-0.4887905298168655,-0.5560680606271635,-0.512097073549373,undefined,1495279890450
903d185fccf839df,-0.33549680240013213,-0.28811437418536484,0.3766598168043594,0.3724628547778894,-1.10679362757902,-1.7559260074427423,1.916212642940902,-0.6703358183627353,-0.48986002836364784,-0.33856209777982427,-0.1604725489344802,0.03473705055659186,-0.9349167223707665,-0.524360819690107,-1.0949694955773033,-0.09986670455458682,-0.7700766398049472,-0.6354626556721664,-1.0893495917924616,-0.1853353215807451,-0.7735946803901518,-0.49126263859509806,-0.5444813697772927,-0.5161058954286789,undefined,1495279891947
903d185fccf839df,-0.33549680240013213,-0.27872213421542263,0.6573845738764352,0.6053112275830562,-1.111411903758826,-1.7400405939781962,1.8903379904255022,-0.8030249079802944,-0.5268947294283027,-0.2279932833844812,-0.21384430869688653,-0.010253536418984957,-0.8739903631907309,-0.542877487466581,-1.0707589333177554,-0.07561938921399479,-0.7546912942515567,-0.6375081956107075,-1.0752860017345947,-0.19231081754292298,-0.7745554123710854,-0.4563249393370753,-0.5207527482056783,-0.4959444591127972,undefined,1495279893443
903d185fccf839df,-0.34381286493672175,-0.2945714807087154,1.0025485499812579,0.7564159522933228,-1.029270323972773,-1.766517056949062,1.9185295003161351,-0.6377558244358456,-0.4919673505056506,-0.11422854026716339,-0.19702409716067446,0.025697351163568027,-0.9479723707664884,-0.5697266382589229,-1.0602326028608522,0.1628122905859997,-0.6935846894259918,-0.6556964097691274,-1.045220706033687,0.0842606592869552,-0.7206800587287012,-0.4431132071469461,-0.5033443859571448,-0.4621662036320288,undefined,1495279894952
903d185fccf839df,-0.3451988782349375,-0.33214046981647655,0.9853221310015421,0.8155497967881914,-1.0554371387110204,-1.7196993487806491,1.8963628581142142,-0.7413998691482061,-0.4779600523071419,-0.10545913449686573,-0.17494734156853953,0.029650865080866493,-0.9392686051693405,-0.5743558084407351,-1.0381273081651317,0.5689544621657167,-0.5238886823876552,-0.6581282614423623,-1.0026940892438583,0.6327224872811409,-0.5878451963988708,-0.4168214889920018,-0.3972108276295566,-0.2799137614641143,undefined,1495279896469
903d185fccf839df,-0.45746616242287186,-0.4595228705487793,0.5814611602361945,0.6289500106481617,-1.1742986520151275,-1.7346880032857401,1.925803534601536,-0.6131919033407186,-0.40124155650115845,-0.1657359763718402,-0.13880002128660723,-0.002332548155662644,-0.7956564728163993,-0.5604682978952986,-1.013916779035636,0.8942723623356796,-0.43603141869738166,-0.6651894939914643,-1.008263550768981,0.745392912813554,-0.5704304737472092,-0.41416927159802785,-0.3790507149264338,-0.2443993930520621,undefined,1495279897941
903d185fccf839df,-0.6917025823483827,-0.4741982747298063,0.5017094275898398,0.3915621059388961,-1.2347168369272241,-1.809237635686734,1.968708816345465,-0.46454495287555053,-0.3664651824106332,-0.46883017583666475,-0.07182086724313065,-0.1074317044974422,-0.6868594028520499,-0.5595424988260275,-1.030758897459554,1.0437972898819738,-0.4473930266352282,-0.6488631656230077,-0.9759452818373252,1.062647084451094,-0.4877720525781563,-0.4258413300424124,-0.46646962758920674,-0.2645415372918412,undefined,1495279899451
903d185fccf839df,-0.4228156919458391,-0.4008213999646329,0.41175003023294476,0.3824879180573107,-1.0747639649046827,-1.7708843822443658,1.9208936920586703,-0.6782320795574752,-0.23487054964470538,-0.6611872242809929,-0.129761327952518,-0.11926128745947617,-0.39528325534759357,-0.6132408716399712,-1.0223378272042443,0.9609523735296019,-0.5421736543029444,-0.6666460710926311,-0.9569349469606611,1.1675258954164651,-0.47440036300425564,-0.42215816717330323,-0.4506893727082822,-0.2910178830396817,undefined,1495279900949
903d185fccf839df,-0.6196298218303441,-0.19477884334410253,0.3830396707826844,0.33158395336054064,-1.0048520867294086,-1.6680275073053912,1.8889073563908432,-0.7068903810309609,-0.2132290553436617,-0.7499771261748768,-0.13806301914713928,-0.12407243464645286,-0.5911179812834225,-0.6271283757100204,-1.0191799074529186,1.0296530579308638,-0.5497453052364305,-0.6850559388832561,-0.9744129806529418,1.0387948918624546,-0.5095502691805627,-0.4433315538280198,-0.4662691710054719,-0.25661128660146365,undefined,1495279902439
903d185fccf839df,-0.6251738750232071,-0.37029656160633606,0.33199880586048885,0.2879125600719203,-1.0444828784448954,-1.6068314044960492,1.8437877686077846,-0.923037678957165,-0.2402295768573048,-0.6738970326239082,-0.1322660163202572,-0.006898775637709505,-1.061121323529412,-0.64564503053572,-1.0012851442037363,0.8720456354082625,-0.47379509482077736,-0.7134465252062943,-0.9818296002862097,0.8334104283980701,-0.5650520862489353,-0.44280944563315283,-0.41897875611101093,-0.20545822759485494,undefined,1495279904009
903d185fccf839df,-0.5988396568625175,-0.4354552263978101,0.3026500543932769,0.23152268984857866,-1.0967445047672681,-1.6150932161218445,1.8107889706529539,-1.1766762773260528,-0.21412739158094451,-0.6225004505146284,-0.07899645217570511,0.0626953024788417,-0.7521376448306596,-0.7030467485606556,-0.9949693635989554,0.5184392430713578,-0.643723598154158,-0.7348582073034033,-1.0084594623482679,0.6448718614113764,-0.620168622850277,-0.4373312234888374,-0.44352968587257424,-0.18161106551060133,undefined,1495279905456
903d185fccf839df,-0.5669612819927358,-0.3691224731541086,0.5189358465695555,0.2996215091327806,-1.2105557397832158,-1.7591659794362462,1.8427043073886327,-1.2125218760890293,-0.29067362262686197,-0.617194583256786,-0.08576101477236366,0.17492887896124126,-0.4779690285204991,-0.7706325930677123,-1.0539168038504867,-0.04733091117941383,-0.7739958348060852,-0.7764529804463538,-1.0575071072360662,-0.07746921048908102,-0.8125426757898241,-0.45350035145158557,-0.5949063206424618,-0.3930997614776489,undefined,1495279908356
903d185fccf839df,-0.6085416809392084,-0.3890809830902358,0.40983637900378656,0.25811408305537736,-1.2327522731480112,-1.7607545206616522,1.8329293179628037,-1.2826263298616705,-0.29624902454005403,-0.6554636096182745,-0.09038074250934114,0.15425796868550484,-0.3778757241532977,-0.7715584245139198,-1.0581273316159079,-0.00691880373925838,-0.7739958348060852,-0.7818296494346763,-1.0595571726822401,-0.0565119257924289,-0.8115660497535667,-0.4549700140534037,-0.5875490274974585,-0.39517114686868987,undefined,1495279908444
903d185fccf839df,-0.5614172633052825,-0.5328998914539145,0.37346938154129805,0.3564451617247268,-1.0785079596909624,-1.8772351159938183,1.8916318547771378,-1.0484116966682246,-0.32179386548868966,-0.5517707944440483,-0.04758497339046887,0.13105364051968116,-0.1863928810160428,-0.7669292802336567,-1.1602327164336155,0.9164990327336537,-0.5406743808138181,-0.8091246362523756,-1.1014960573951307,0.36144807835032244,-0.7235086465561219,-0.44429319314357685,-0.6643898943773447,-0.4644056886787489,undefined,1495279909948
903d185fccf839df,-0.5891375292695975,-0.49885293387889695,-0.02592564061183201,-0.07737611104912032,-0.9591938766073946,-1.8614615071914107,1.881546551685164,-1.0876767784847812,-0.37154435663452007,-0.8257483496384108,0.015707717384629068,0.10339926664522521,-0.5737104500891266,-0.8048884666589743,-1.1707590579338696,0.25778085047630683,-0.8602200117247052,-0.8496364771615087,-1.1203524627628292,1.3536007165436015,-0.5186251632466637,-0.4361123814075421,-0.7024559545586924,-0.5227605714113386,undefined,1495279911416
903d185fccf839df,-0.4671682210049724,-0.5240945934121127,-0.1369397759545569,-0.19021818945774496,-0.9967675278709156,-1.922196420607529,1.9121653874568518,-0.9472739786888529,-0.4085429633415346,-1.0186462402452827,0.04992471445618853,-0.08595466211087577,-0.8304715352049912,-0.8734001620384003,-1.1191800357501496,1.1731161637081904,-0.45172790249262007,-0.8863232218501568,-1.1138524243756762,2.8371177498971702,-0.15362325025607387,-0.4466390192314846,-0.7828524350360646,-0.3020684071525315,undefined,1495279912931
903d185fccf839df,-0.5738913484838145,-0.6661524129394387,-0.08653679477541401,-0.16536683920856102,-1.1422792829638932,-1.9370988944724985,1.9292906676121144,-0.8915281787008212,-0.3755714085990129,-0.9258362899759042,0.05086966035232354,-0.05370152162138112,-0.4823209113190731,-0.8696968362535702,-1.0960221219969832,1.290311422261193,-0.4410433200871778,-0.9093308066841284,-1.0948630795217988,3.087912238567818,-0.10308979241778,-0.45585763002508384,-0.66012706961556,-0.3162321405552831,undefined,1495279914447
903d185fccf839df,-0.4935024736710717,-0.6045157796807084,-0.0016814839107385186,-0.07824481658190928,-1.1191878930585173,-1.8974133173699481,1.9231973998928242,-0.8610215696103607,-0.41532614645646065,-0.5757788216481804,0.007539747087144206,-0.009674214086706644,-0.6476924576648841,-0.7826684536715083,-0.9939167298170417,1.6277528529102052,-0.3944290462135395,-0.8177437755372757,-0.9897639833004116,2.861893852053134,-0.09039467449739506,-0.39040431284135113,-0.9033253703287258,-0.558830407397889,undefined,1495279915932
903d185fccf839df,-0.5475570958177153,-0.3796887431202936,0.33646500860965567,0.24124488473172506,-1.1388850013367808,-1.787168094086201,1.8688024884845946,-1.0356868779030481,-0.38124649427527857,-0.4657395843815088,-0.1358219526404144,-0.056296669338886364,-0.691211285650624,-0.6567550661686957,-0.9181271674604754,2.53096463566304,-0.17235673818823208,-0.753160415328346,-0.9205795167707066,2.422391423983023,-0.14317597900683854,-0.395332868681303,-1.0714453963242074,-0.6690791798152779,undefined,1495279917455
903d185fccf839df,-0.5281528923899899,-0.30983392911585617,0.7664842955791537,0.6856781628943512,-1.1619661047069,-1.7539251907077025,1.8765499020587573,-0.9203083178098789,-0.4116682869129965,-0.39790276840085387,-0.17001682716865327,0.0037585157557039617,-0.7042669340463459,-0.6187958603172163,-1.0107588592843104,1.9530709226684977,-0.34160115992276296,-0.6814271612480973,-0.9514634408428653,1.3796394961668286,-0.36714741000576046,-0.39225435527538505,-1.0537323288748701,-0.7702571872985696,undefined,1495279919033
903d185fccf839df,-0.4616241678121094,-0.3016156899141644,0.9113131310013078,0.8343289335227239,-0.994021241964395,-1.7681847937204112,1.8423098368690858,-1.1313067157989052,-0.47038955674585275,-0.5909931689702732,-0.117456486386855,-0.01275255280232905,-0.8348234180035651,-0.5549133545457644,-0.950758796294216,0.702314569347726,-0.6871439350964009,-0.6224104592402883,-0.9245187222485374,0.8625442948828855,-0.4798061328804336,-0.4048486175228101,-0.855195568575299,-0.5610585318329698,undefined,1495279920443
903d185fccf839df,-0.5323109150319322,-0.24291413164604098,0.8532540200838357,0.8050580588042211,-1.181344356919112,-1.8002397825853178,1.8354092242003046,-1.2659813752719862,-0.4434824240111082,-0.8696302196034584,-0.04162455335068729,0.0016821899225939968,-0.847879066399287,-0.5762075360870229,-0.8960218985325733,0.35881126040030314,-0.6766292343715692,-0.5873006185239107,-0.8768284598024706,1.057673387393144,-0.4099719696700612,-0.44511091108330764,-0.8959538262511867,-0.2480797568108437,undefined,1495279921939
903d185fccf839df,-0.4810284229979494,-0.351512023210467,0.927901157964072,0.8644361889169843,-1.084864522303216,-1.8250135731407842,1.863855838120934,-1.0822329941093902,-0.44626844970437823,-0.8641364632543292,-0.08391165276121516,0.04242330974809494,-1.017602495543672,-0.523434955866963,-0.9065482289894767,0.5204599728081403,-0.7125131079745309,-0.5243638232669262,-0.8706432792199362,0.9905361605220641,-0.39967853828863287,-0.4697114508637411,-0.8493675504732553,-0.2113119460938434,undefined,1495279923437
903d185fccf839df,-0.37707732211553874,-0.29926768837766354,1.1148387069470376,0.9830767804440798,-0.951119605542486,-1.8321620071800568,1.874611743191181,-0.9547717702133331,-0.42578929172854246,-0.7760450024136805,-0.186291781976084,0.09113419650440452,-0.8957497771836007,-0.4410357693682624,-0.9665482698928697,0.6497787053107491,-0.6896641053775253,-0.4559110326716935,-0.9200757498926619,1.0832348033203172,-0.3656531709428482,-0.4535432873815004,-0.8678176517665991,-0.24758455001039603,undefined,1495279924934
903d185fccf839df,-0.27728419211695593,-0.4143227449214248,1.8453619756252853,1.746629454438338,-0.7547347938674956,-1.8608186377725249,1.9072397409526807,-0.7165628349470171,-0.44444996644286644,-0.7232348977221661,-0.271133286439636,-0.011238548124249046,-0.5911179812834225,-0.35956239488960745,-1.012864119485904,0.7669740486579165,-0.5284750472014259,-0.3737094259150554,-0.9252953704702247,1.335492135705946,-0.2865676265697294,-0.4299690634683454,-0.8014746931795652,-0.1956208914446171,undefined,1495279926480
903d185fccf839df,-0.22738764437036937,-0.5628376855860975,1.5652748481593126,1.453818168212409,-0.7765713257253946,-1.8819401791468442,1.950812998013985,-0.4870750255120707,-0.42234593199775766,-0.6473063935951758,-0.21923457627254417,0.10220750297776272,-0.6346368092691622,-0.34474903994718886,-0.9833904030412552,0.7366649398130783,-0.5163680684224374,-0.3593463101973238,-0.9148211440250693,1.349396932442048,-0.2769886758992857,-0.4304081988100436,-0.7942222758802959,-0.20252011673477585,undefined,1495279927938
903d185fccf839df,-0.2911443941099329,-0.6485419337678048,0.43408053570488003,0.3565431553679306,-0.9786235559764531,-1.9015570325074076,1.942718466619209,-0.6765527415406325,-0.3816351561153527,-0.6125422387887598,-0.10001855942545736,-0.12889495490954092,-0.6650999888591801,-0.30030898807070766,-0.9791798752758342,0.46792405224172035,-0.3682339953492567,-0.37847180063456737,-0.9349719594110703,0.7105462374055262,-0.4489900707771445,-0.3572763057352285,-0.2751860452265391,-0.30504557124872994,undefined,1495279929429
903d185fccf839df,-0.6515081276893064,-0.5874923155071958,-0.03485753783626682,-0.22405852317001163,-1.0844839477518131,-1.80690839527651,1.9110477204610414,-0.836017861323241,-0.3182165916619489,-0.6241046315094635,0.005165128545248574,-0.0948986439040932,-0.17333723262032086,-0.3947440545993661,-0.9307587802056738,0.10825595119473416,-0.4399591434030357,-0.5242878312592604,-0.9705087608688668,0.46016751474507805,-0.5744977895652206,-0.37780421440241646,-0.2068048066486317,-0.23943955170538367,undefined,1495279930995
903d185fccf839df,-0.5780493883784618,-0.5287907864670647,-0.041876292105442275,-0.0012953446593835852,-1.0620508464779463,-1.6958758909755083,1.8578861884485447,-0.9907043748849356,-0.39991025156071053,-0.20364927744302186,-0.05953836829755528,-0.03680597240601728,-0.1820409982174688,-0.46881080340990994,-0.9044429430200648,0.06178188066200341,-0.3609678165903347,-0.559783980941999,-0.9816826668907759,0.5249025799666837,-0.5695855082151258,-0.36068310585327484,-0.23919855570794507,-0.23579918010419404,undefined,1495279932449
903d185fccf839df,-0.5239948007372279,-0.46245803322336326,0.6580227117564375,0.5882132174311767,-0.9614155868456199,-1.6958199902418103,1.8260707905296152,-1.164198318212578,-0.45812688561630116,0.07036967568700585,-0.13243238494262835,0.005841701488255504,-0.34741254456327986,-0.5484324890946007,-0.9107587273059625,1.033694263021935,-0.38637349898608936,-0.6568490062603259,-0.9725098483697534,0.908678040226658,-0.5249938266036929,-0.3811848888901528,-0.23309530028372197,-0.2813306843135756,undefined,1495279933933
903d185fccf839df,-0.4186577210620113,-0.46010994400288535,1.1703455204814506,0.945502682206091,-0.9814624122920949,-1.8000790675840683,1.9343346463682136,-0.5887129622031219,-0.4318977016530098,0.03843389844720559,-0.17854271187216042,0.13775998895638628,-0.16898534982174687,-0.5410257986726169,-0.9654956618787742,0.742726761582046,-0.5181635516979038,-0.5890801751380546,-1.0023582434595513,0.7081594836655017,-0.5441129045494608,-0.39398556210801844,-0.3624666926203295,-0.39927016568604495,undefined,1495279935448
903d185fccf839df,-0.5669612819927358,-0.6285833946036853,0.998082347232091,0.8236996569697225,-1.0953559328443396,-1.8482500632338381,1.9450011375969365,-0.6475329391801097,-0.36146384998520825,-0.18978954877022305,-0.07859999348851013,0.07410240094106807,-0.4083389037433155,-0.5243608326408815,-0.97602197761121,0.7225207078619683,-0.49367638751419324,-0.5163399842256304,-0.977778447014945,0.8778041581838383,-0.47299695621674376,-0.41389528384186797,-0.4246226168910032,-0.44740597345300726,undefined,1495279939041
903d185fccf839df,-0.6501222179073198,-0.5933624654884097,0.8755842714188214,0.804176233421451,-1.1135513324818014,-1.8254444826148997,1.9749546262834299,-0.413700325664341,-0.40309417926727736,-0.036503919349398284,-0.09745823523128329,0.1187925904478512,-0.7434338792335116,-0.5076958018552733,-1.0297062526342897,0.8114274177185863,-0.37513323346780497,-0.5191328122877004,-0.9838376858825558,0.8393542398506114,-0.4855014803310446,-0.40276595470137044,-0.3686052758608626,-0.4169010783621384,undefined,1495279939934
903d185fccf839df,-0.6348759336053076,-0.4542397355656868,0.7664842955791537,0.7838807995430621,-1.0599319908294855,-1.8173759985803546,1.9211251241911673,-0.716014614823111,-0.45156214451941984,0.03214746486156928,-0.09715298675707598,0.02070969850149184,-0.6433405748663101,-0.5530616787025747,-1.0107588592843104,0.6154284479042829,-0.612122343190334,-0.5300064760834824,-0.9996574757151513,0.5378988739679265,-0.5690903436951792,-0.4035841013312207,-0.44401734051581715,-0.42968529983967874,undefined,1495279941435
903d185fccf839df,-0.5059765933550134,-0.29809368760941307,0.7084254387986308,0.644481431859993,-0.9120853775254777,-1.795318103704593,1.9227240478396295,-0.6276719498141687,-0.5877950659868083,0.41978694829272756,-0.1894943725829478,0.00456768754954859,-0.5606548016934046,-0.5502841260854667,-0.9844430515476366,0.39518216274938733,-0.6582355235278304,-0.5277329502279219,-1.000734984541223,0.18952444140444208,-0.6418217423521948,-0.39549127055150957,-0.4405213413854619,-0.43663850284444444,undefined,1495279944472
903d185fccf839df,-0.3826212717921726,-0.366187427391494,0.7849869903188738,0.7678713689136832,-0.9043299605841144,-1.8068059106300776,1.9374956638463854,-0.542027986901399,-0.569026816123914,0.2144239311065966,-0.22895343484820968,0.004944146507896933,-0.8870460115864528,-0.5586166803305944,-0.9749693475104132,0.6800878424203087,-0.5480341473491754,-0.5609745713524756,-1.01136314027513,0.509442539823175,-0.584387262246989,-0.4289568854496891,-0.48704216853508175,-0.5242625074940275,undefined,1495279945988
903d185fccf839df,-0.37291921321007204,-0.311594944882228,0.8621861714452198,0.8245877951879758,-1.0190051991405928,-1.7548359255292154,1.897212305059647,-0.748342067208061,-0.599605463418932,0.09302000883965804,-0.28634206402202167,-0.0028157352690499687,-0.8348234180035651,-0.5641716819586141,-0.9781272451750374,0.6760466938586805,-0.5279981763349638,-0.570537314904561,-1.00009127785493,0.45925900457902397,-0.5974809603667722,-0.4243300620902107,-0.49387919844736133,-0.5200624304227858,undefined,1495279947438
903d185fccf839df,-0.4255878220584998,-0.3022027925962628,1.0127569771026463,0.8720838121920902,-1.0464783015077952,-1.7398402831864188,1.9215406446611627,-0.5582929039869129,-0.6157544487008609,-0.042857031070576555,-0.2683540017828393,0.08005249909026171,-0.7651932932263815,-0.5076957630029496,-0.9812851354774278,0.5305629148740145,-0.6085113628600525,-0.5448002328349966,-0.9785690871456084,0.48455865029918715,-0.577692724779826,-0.4418575902575658,-0.5150200979573354,-0.5494359171247859,undefined,1495279948938
903d185fccf839df,-0.4851863938817772,-0.28224425343214327,1.1697076367383978,1.0536454219381828,-1.1191056057997713,-1.7338890761326484,1.8523530788184681,-1.0120465991830287,-0.5950240187203462,-0.2503925733082897,-0.2583850274508627,0.03298096692434356,-0.9479723707664884,-0.5678750077434442,-0.990758850558002,0.3062754811574909,-0.7175404217609144,-0.6056724875617482,-1.0093270674475112,0.5056545238723279,-0.6123338634118,-0.4599849541073589,-0.489101874670693,-0.5638092123869114,undefined,1495279950431
903d185fccf839df,-0.25233591824366264,-0.23352189167609877,0.9049330228860334,0.9085041849323126,-0.967576717745239,-1.8077003380077155,1.9501424175099085,-0.447336514917576,-0.6564036799477775,-0.1465434266328487,-0.17854612113582607,-0.05196272072554584,-1.013250612745098,-0.5484325149961499,-0.9939167114114572,0.28202808102273424,-0.7409083071754742,-0.611137818658494,-0.9940740197730573,0.7994260666889238,-0.5391770591787316,-0.4720275403472922,-0.47141445782133073,-0.3956029746142642,undefined,1495279951923
903d185fccf839df,-0.6875445424537354,-0.5422921021958643,0.04872149726840436,0.017010496938105437,-1.0684691198355354,-1.9090292318775244,1.9539898194534613,-0.6165519372023148,-0.42196658632612344,-0.2910560553604362,-0.008338341752550948,-0.04160101015032986,-0.8217677696078431,-0.6400900289077003,-1.0233904536239242,0.9589318699105918,-0.6035450911003981,-0.6890520256073139,-1.021921327612768,1.670593125620724,-0.34486154420604626,-0.4649929449709676,-0.7554594319752969,-0.5211065418058605,undefined,1495279953444
903d185fccf839df,-0.6806144414572469,-0.591014390881928,-0.10312533001207701,-0.10549580803874252,-1.047805155329472,-1.9566877954955482,1.9913067641232942,-0.45438807114119556,-0.3688513749704861,-0.5398977808494851,0.08809773356683795,-0.0893685343184468,-0.6128773952762924,-0.6724942201803855,-1.0381273265707163,0.9912615671686047,-0.4933019934078014,-0.7036177960597787,-1.0322206331865345,1.7772427571258402,-0.33211371864632183,-0.46536157133315603,-0.6989137355382957,-0.4745320299123001,undefined,1495279954950
