UUID,iqrAccX,iqrAccY,iqrAccZ,iqrAccXYZ,meanAccX,meanAccY,meanAccZ,meanAccXYZ, covarianceAccXY, covarianceAccXZ, covarianceAccYZ,pressureDerivative, pressureIQR, iqrGyroX, iqrGyroY, iqrGyroZ, iqrGyroMagnitude, meanGyroX, meanGyroY, meanGyroZ, meanGyroMagnitude, covarianceGyroXY, covarianceGyroXZ, covarianceGyroYZ, class, timestamp 
903d185fccf839df,-0.9245530148547351,-0.570762358832744,-0.4651967832250889,-0.46933554683960066,-1.561634488503343,-1.208214726167473,1.6589026935148214,-1.3600997821624294,-0.1773171127434038,-0.7266000712060978,0.08247551148666454,-0.27326389901145426,-0.7282022894385027,-0.8030368167173338,-0.49181083549152715,-0.02914538934306788,-0.8499776884212354,-0.5795870934293639,-0.5384416933306332,0.054018101054797034,-0.5347247912773692,-0.49579753911059404,-0.715047516062333,-0.47687282261899333,undefined,1498136791196
903d185fccf839df,-0.31955764947065096,-0.37059006910539677,0.07711316898408774,-0.045086576503786516,-0.9400202368236206,-1.429669226576445,1.8010084721977762,-0.7863564349804024,-0.46138581076926133,-0.5735481188436372,-0.14337587351611641,-0.6318843442032179,-0.36482007575757575,-0.5771333481070686,-0.8191796729451583,-0.10592856872063676,-0.8533000612405717,-0.6103295765621417,-0.7219125047100827,-0.339935715457587,-0.6592819600035098,-0.4925599941975106,-0.7082943171428997,-0.4644906915470894,undefined,1498136792626
903d185fccf839df,0.881424098375344,-0.2772545674921268,0.9084421458836717,0.8622441909593562,0.21016496966517556,-1.5670739563113023,1.8531138424191813,-0.26324609654782494,-0.8811293211861602,0.4962594723521843,-0.1315588237934378,-0.5818905616871981,2.7250167112299466,-0.5262124566809728,-0.7402321945183833,0.1688741688844104,-0.7879055267591228,-0.3942534942771234,-0.7363849709907238,0.01665379030344044,-0.519072818121673,-0.3939710230849486,-0.4798209098358903,-0.5110775082686253,undefined,1498136794070
903d185fccf839df,0.6638198725338319,-0.31746515331942654,0.9189690066026878,0.9415909922826411,0.24085896314547592,-1.6032234165432573,1.8125141400567373,-0.6251011386481228,-0.7843279380837814,0.5509386154139364,-0.06957146059968469,-0.4131491425845873,2.5248301024955437,-0.5502841778885649,-0.8023375766079416,0.22747168510202564,-0.7868438434259744,-0.5103570990772919,-0.7922406335004181,0.04961841212301693,-0.5815003857911701,-0.3817887661713673,-0.512632065221,-0.5290311239283312,undefined,1498136795583
903d185fccf839df,0.7345065507428353,-0.5223336214877294,1.4721252696763056,1.6510950665452002,0.9087504157496824,-1.6944667033693206,1.7805356896092135,-0.77496716864823,-0.47077870517034914,1.0527805677987165,0.011753784668593325,-0.418352795029523,-0.691211285650624,-0.5549133286442153,-0.865495507813725,0.09007048588783129,-0.8025145731475553,-0.530999010209875,-0.8195592608535317,0.10492736339461811,-0.5957366351635071,-0.3827243082344363,-0.5089444952043215,-0.5228518995776401,undefined,1498136797100
903d185fccf839df,0.9230044973218166,-0.5158763980524095,1.1027166285964909,1.2100623077986343,1.1496722995402673,-1.6908610411597418,1.7851299677829429,-0.6105464101554335,-0.5571195478943384,0.7750388430887754,0.04348848933729197,0.03921531353693841,-0.8957497771836007,-0.537322524690885,-0.8212849625956871,0.021369801486569497,-0.8068224848285994,-0.5129044608565013,-0.816494669600487,0.05823316526521469,-0.5937463728449419,-0.3702403550015957,-0.4850469577117945,-0.5049945660022407,undefined,1498136798591
903d185fccf839df,0.529376444585265,-0.5158763980524095,1.2181964584144835,1.3815350281874441,1.4931117210180462,-1.6717612799248522,1.7710605129673063,-0.5065790673007294,-0.5484883607308644,0.9360415144800196,0.06490847657712943,0.019801256320224715,-0.7826008244206774,-0.49565994772686456,-0.8570744301961816,0.09815281127580916,-0.804632927339805,-0.5022681830865589,-0.8513180871075401,0.16394762221231607,-0.5828750549448634,-0.3609041965181343,-0.4667638093323284,-0.5125746612651041,undefined,1498136800114
903d185fccf839df,0.5169021868796844,-0.4929827546696907,1.7924066970630832,1.8420899259463612,1.7629775593676873,-1.689328401374755,1.7478577282007088,-0.48995756595144535,-0.806242962108646,1.2920272615461017,-0.07470112716261153,0.017015284440842018,-0.5780623328877006,-0.4947341227560443,-0.8623376469602697,0.1749358775944919,-0.8035456280704919,-0.5278216096510623,-0.8823279532004753,0.25479844850107025,-0.5819078896488883,-0.4209631391611622,-0.4627884942235748,-0.5735025006878298,undefined,1498136801600
903d185fccf839df,0.5460084661422151,-0.41960582144853265,1.8160132241580733,1.7737386701682574,1.7526095822263368,-1.7175634394459016,1.6890526306225755,-0.9016204255115654,-0.908890694061101,1.171252665815624,-0.12599521266648187,0.0489889954297051,-0.6563962232620321,-0.47343991531323665,-0.8233901933483455,0.2517189721778961,-0.7680646192907705,-0.5206147222044699,-0.8523466192300879,0.25918700745914586,-0.5578102826585012,-0.4446930173010003,-0.4779463453064375,-0.5686982661476,undefined,1498136803071
903d185fccf839df,0.6166951443512185,-0.3967122072938062,1.9767924569368882,2.021494653323941,1.9046733395342572,-1.790932144986174,1.7209679537404712,-0.7073070663375637,-0.8431657714011928,1.298751797226602,-0.23626336682593235,0.024773578652523484,-0.8130640040106952,-0.4465907580455075,-0.8191796582206906,0.4254913563883901,-0.7079391768996727,-0.451946612996959,-0.8454757512856292,0.44475367481126427,-0.48063694736717816,-0.47376622830388926,-0.44538225941243786,-0.6246402108306084,undefined,1498136804569
903d185fccf839df,0.8841962629934145,-0.41549677491766757,1.6609764698884295,1.6798110896060159,2.191284273433517,-1.8417281938261225,1.7897347515527433,-0.2123227084218053,-0.7696875278908958,1.6912500875053433,-0.158957746080664,-0.09744220824465293,-0.6999150512477719,-0.2975315131582469,-0.7949691290911949,0.4477179702569211,-0.628558786035991,-0.3517087821321987,-0.8012978877406108,0.5224542260368148,-0.40940130533641667,-0.5045328094191636,-0.4178653675133191,-0.6604171190734676,undefined,1498136806062
903d185fccf839df,0.7705428964964449,-0.3967122365217985,1.7260535726642288,1.8085345185790525,1.904652749083217,-1.822866014153809,1.7578904273669966,-0.581354451428502,-0.7463846633969995,1.9111248211729486,-0.10706086007841076,-0.054047879680152816,-0.5737104500891266,-0.29567982436428275,-0.7465480119343331,0.42347065491632907,-0.6249481230951767,-0.4014033913015735,-0.806503515057327,0.5407167855132157,-0.4250886620975275,-0.5081888740618336,-0.44263225501236375,-0.6326322311000163,undefined,1498136807606
903d185fccf839df,0.820439375232212,-0.6960901778436295,1.338780882998595,1.4602248373302187,1.8262242996524163,-1.855063086820756,1.6819389965405867,-1.1685614057773095,-0.7696011527114061,1.8919639459787252,-0.023013260205240457,-0.08766481691671492,-0.7826008244206774,-0.27531153254771723,-0.7286532486851507,0.31839909643070463,-0.6152737458588209,-0.37821848663579455,-0.8096520800925241,0.5951502907716424,-0.4015275095022847,-0.5242097438745238,-0.5107316639374991,-0.6495515292341195,undefined,1498136809101
903d185fccf839df,0.6208531842458658,-0.626822349609321,1.0720916013692745,1.1463420589510303,1.6461320346730337,-1.8676805759946036,1.7552790288612699,-0.839728913080951,-0.6333505207592929,1.176939874742939,-0.06882621200540444,0.029275100072522518,-0.8043602384135473,-0.19291224244282018,-0.7012847998043293,0.27394564257587023,-0.6842848522599408,-0.32601603201378593,-0.7955465084169984,0.5081028772771667,-0.38583950146725626,-0.566577757877045,-0.5425576272834416,-0.5927273129383823,undefined,1498136810570
903d185fccf839df,0.08723765036788429,-0.5422921606518489,1.005100847364317,1.1398087279650921,1.4354500945820892,-1.8125521422742215,1.7551685771157963,-0.904493825127799,-0.582120532722323,0.840858639726925,-0.05731933917695792,0.054753138137635236,-0.7434338792335116,-0.34382322792714315,-0.8002322943196466,0.10421466130949832,-0.7264185600872024,-0.4650241453671195,-0.8311182951220053,0.33653339652608966,-0.5112550277906449,-0.5084453944193208,-0.4933233802774525,-0.4959046953753841,undefined,1498136812062
903d185fccf839df,0.2202949269965965,-0.43604229985191617,1.1352547987789663,1.3161756927458568,1.3096663082373707,-1.7979641194171196,1.806965239559378,-0.5890518000198146,-0.4985100584600752,0.5213292752109364,-0.10801923862230561,0.010070118798866413,-0.7086188168449198,-0.3503040545259831,-0.8307586261406246,0.07996734596890628,-0.7121904308698006,-0.43505032115368025,-0.8501146370375586,0.3111567628597093,-0.5014265366865288,-0.5026748136562488,-0.533379058749794,-0.4957056459765117,undefined,1498136813569
903d185fccf839df,0.0886235256444611,-0.32040019908204115,1.2022463151947722,1.1723745290712835,1.1609659909474797,-1.7865089198908595,1.883674055878362,-0.1013244636555413,-0.4250199275653973,0.05496780520912884,-0.09627658287530876,-0.0011130728210657437,-0.6563962232620321,-0.29845731222751803,-0.8476007592890101,0.16685341088290634,-0.6622298572417081,-0.41196040861110583,-0.8842240892477908,0.2581861104840968,-0.5148506340481678,-0.4809284094794929,-0.4543131916679042,-0.46549693960354643,undefined,1498136815076
903d185fccf839df,0.10941400116097526,-0.4348682113996887,1.4032201020313415,1.7566671523840904,0.9119801342182615,-1.839433893024835,1.8101446839934268,-0.6922710883681134,-0.6193811647139754,0.26065483350092,-0.11932583929700137,-0.13276752830044786,-0.6650999888591801,-0.31975151967032567,-0.844442861624386,0.03349338849506167,-0.7018395325891656,-0.4187746563069596,-0.886994826458945,0.17917668360093483,-0.5347829572920803,-0.49714430172551255,-0.48720328185536443,-0.4751149274176386,undefined,1498136816565
903d185fccf839df,0.049815291316058975,-0.36501339739525124,1.734985724025613,1.7722479797175332,0.8289128477603249,-1.8354648680240284,1.9044994909811706,-0.18460025405268257,-0.5387228217333987,0.2390116984546372,-0.05846198713016961,-0.07886621645832516,-0.7216744652406417,-0.35771074494796695,-0.8612850021350054,-0.02914538934306788,-0.5689411798919105,-0.43030061183983315,-0.8775981096411964,0.11340992332870417,-0.5536199051780468,-0.45064179176266755,-0.4403035687654187,-0.47021567360291705,undefined,1498136818063
903d185fccf839df,-0.001467200717923861,-0.5957105254808952,1.6954293078478608,1.7857470555897692,0.8338911228463497,-1.8751923722307333,1.8201852757126709,-0.7936164646194492,-0.6308215293073959,0.46365577526803936,-0.08385746082214286,-0.00736137313818443,-0.7608414104278075,-0.21605813867959195,-0.8686534054783492,-0.07359881493318071,-0.5568768430126595,-0.3609485444217207,-0.8662982597633927,0.15005822035414798,-0.5046792475390358,-0.46725918223248963,-0.519046521384193,-0.5028023178079334,undefined,1498136819613
903d185fccf839df,0.00407671445330021,-0.45423982324966383,1.746469918633107,1.8439653748265854,1.1480163098330314,-1.820115182478053,1.7188562152740328,-1.1920285731426112,-0.7518902544822316,0.7122657023367882,-0.03453020464445742,-0.06980447216156573,-0.691211285650624,-0.23920398311326554,-0.8412849860464631,0.17291531744603855,-0.5830736554463323,-0.35370999001992837,-0.8367997043610402,0.2638373334740508,-0.46963066585622554,-0.48356522241486194,-0.5304279215594112,-0.5042163927966616,undefined,1498136821082
903d185fccf839df,-0.012555445125288818,-0.4119746264729546,1.4032198478943922,1.4830383167992474,0.9594589117958447,-1.6829625896776879,1.7680756692757196,-0.745699908089322,-0.6918414408169761,0.7444422321913517,0.05977550513412106,0.04455678755022022,-0.673803754456328,-0.4058540708061801,-0.8297060181265291,0.11027642654902287,-0.5798453733642271,-0.4621426516254768,-0.8262275233649463,0.2737077345145932,-0.5182103929908867,-0.49321276492333826,-0.5472718324400752,-0.5181671271035828,undefined,1498136822572
903d185fccf839df,0.16346838176975068,-0.4260629864278679,1.5135958453571148,1.6089184334459574,0.8489390929504147,-1.6224932106912469,1.76589555801427,-0.7053082920392043,-0.6226457863347534,0.6686139109287833,0.0009897426188264311,-0.011320850084081603,-0.6172292780748664,-0.3928924046577256,-0.7254953510205264,0.23959530037523935,-0.6060854350650622,-0.4712177603581127,-0.7864926351853975,0.3440786354140364,-0.48859624528066076,-0.5162627326444394,-0.5802682213100033,-0.5032541292995827,undefined,1498136824069
903d185fccf839df,0.45591760175819124,-0.38438492156124937,1.9780679702860444,1.9298523384140502,1.0586438812499512,-1.6691222480208145,1.775120922706284,-0.5985359904970721,-0.6054450296394126,0.8937502379326111,-0.14999601039706376,0.020048400371135113,-0.6520443404634582,-0.4502940967811122,-0.6612847381783097,0.3830585474761736,-0.5915014769136017,-0.4411426109615216,-0.7547271138175171,0.4658495433629635,-0.4474651943940102,-0.5163876446137186,-0.4439151897377907,-0.5511562383803256,undefined,1498136825575
903d185fccf839df,0.2826656634379443,-0.36501339739525124,2.1318289570695828,2.131786652904642,1.375628486287836,-1.743476224517779,1.8237828515647865,-0.24131596046703327,-0.5838093370715007,0.916978683413761,-0.23850519508497445,0.0438125773704256,-0.9871393159536542,-0.5076957500521752,-0.6697057937091517,0.4456974383731893,-0.6701361438852159,-0.4824650676093943,-0.732855083793891,0.6391898465250468,-0.43139407897987725,-0.5375511082779967,-0.3559467934739441,-0.6540440080820414,undefined,1498136827092
903d185fccf839df,0.2313833094256004,-0.3720575481447156,1.7566783457544957,1.9457157190828558,1.5810955692239965,-1.7734348991177014,1.8179683545353824,-0.24508176107939478,-0.5661282119734461,0.9359624333350162,-0.23217381236827248,0.07494118174442578,-0.9610280191622104,-0.4762174549795702,-0.6970742573144407,0.5305629431387361,-0.5732714845311874,-0.476474104075428,-0.698780615307721,0.6008169224114733,-0.42279478004382753,-0.5269103246631612,-0.334790178527277,-0.6279834921703248,undefined,1498136828572
903d185fccf839df,0.19950486554499916,-0.39436414730132063,1.7349854698886635,1.687057823660061,1.3712364887051212,-1.7610247142175928,1.7378749743497952,-0.886074686888023,-0.5024237652403138,1.1705250917773196,-0.06723937553905139,0.2129020212614817,-0.14287405303030304,-0.41974161372855295,-0.7370743042159928,0.22343056480511903,-0.6743435136416633,-0.4475895483227265,-0.7134249399771244,0.5578706562847552,-0.4280348576308236,-0.5119984178568069,-0.3482203069132286,-0.5645799748473154,undefined,1498136830073
903d185fccf839df,0.21336486050551776,-0.34857700667584474,1.8970407242905336,1.866616958305558,1.2038882077598085,-1.799904374544422,1.7215885821202825,-1.0856693362700223,-0.5743374063855947,1.1976654670313345,-0.16222009145125924,0.2161916140187575,0.901577818627451,-0.36882072230245727,-0.7423374915311458,0.24969841202944282,-0.6803401696580195,-0.43432203096424377,-0.7402227252494231,0.618324950481726,-0.41858541047550574,-0.5282291955968215,-0.4170122467095185,-0.5626316638114838,undefined,1498136831578
903d185fccf839df,0.06921933946944057,-0.4800685123949972,2.0405935380896327,2.027010180443302,1.010249681815293,-1.7642111146599881,1.7769854455055956,-0.7976431269332592,-0.45197359486525635,1.2426458167603114,-0.15678666872840813,0.18838188558783833,-0.43880208333333337,-0.37993075146004573,-0.7686532735000015,0.04157585520664722,-0.6940019810533201,-0.4734912872933231,-0.7668805742858372,0.4977397247841977,-0.47555375570739283,-0.4773247729814328,-0.4500367524989917,-0.46843795244155595,undefined,1498136833071
903d185fccf839df,0.23969938921489492,-0.39729930997590457,1.6137636698353985,1.8109431710216841,0.8344568341449348,-1.6539053326216646,1.789992470720898,-0.5929804482296783,-0.5643586975020001,0.8970906744270652,-0.17141126755954555,-0.07005515292976928,-0.5867660984848485,-0.50584408715976,-0.8139165003544727,0.035514033437679594,-0.6184875896066683,-0.5389802591291298,-0.8251430186577912,0.3108179936270022,-0.5666302473939544,-0.4270034385990759,-0.4220794331576138,-0.3581373528355675,undefined,1498136834564
903d185fccf839df,0.30345600093281955,-0.42547597142974647,0.8507019768377259,0.8226299942772509,0.5514355934341734,-1.5107596054223646,1.721096818300277,-0.9413999732500787,-0.5164495295690924,0.32458412259955827,-0.015669848171697916,-0.07765197765277432,-0.6955631684491979,-0.5484325149961499,-0.9254956002527546,-0.00893939215243323,-0.5872272025596319,-0.5694353854785644,-0.8922914122742385,0.2769568115521256,-0.6072349919393616,-0.4087775488885083,-0.4289468072721208,-0.40015516349542735,undefined,1498136836065
903d185fccf839df,0.3519666043920098,-0.3791017865781569,1.1703455204814506,1.07701433634542,0.27688976953174754,-1.4788350510724104,1.7186247993781234,-0.9747556670400845,-0.42559585389228277,-0.12082588131297572,0.03144106128011183,0.02871297879389704,-0.7695451760249554,-0.4660332378420274,-0.9212850724873335,0.10825592293001263,-0.5073631410426932,-0.4975438088971042,-0.9028985779058366,0.2958814999824763,-0.5696382372337295,-0.4141921492481197,-0.3583507108195391,-0.45168831243829655,undefined,1498136837603
903d185fccf839df,0.22445317392370218,-0.37323163659694303,1.476591218288523,1.4138842735974257,-0.05578053099375647,-1.4497964248731081,1.6598617786554082,-1.304250518540565,-0.5749697227009339,-0.2889914046950034,0.06888083735408114,0.04124271440304609,-0.7347301136363636,-0.47158825242082164,-0.9054955768019785,0.15270917893179622,-0.6095625157817547,-0.4964165442525919,-0.9050675888738805,0.22615733963441934,-0.5792038615139055,-0.3881136069986667,-0.4229184702732893,-0.47413128412631955,undefined,1498136839098
903d185fccf839df,0.3422644422936801,-0.30044168914591396,1.9595655296832737,1.8937131452876967,-0.1273278396173498,-1.6464913596876865,1.7424113842770623,-1.0846820861051922,-0.6115090285005088,-0.4452081687941956,-0.007832465480562502,0.007139972406889922,-0.7608414104278075,-0.516954103366574,-0.8381270736573713,0.23757485328567218,-0.592242112639473,-0.4935097239739255,-0.8751072442534032,0.2805292479608806,-0.5577114549474533,-0.4120907633260237,-0.39386233614811367,-0.39236063954149974,undefined,1498136840572
903d185fccf839df,0.5363065110763438,-0.2669818342529949,1.7330718186595053,1.7117254560997477,0.019695916575229473,-1.7298711364726709,1.816211625918753,-0.71907991236318,-0.7772040805526685,-0.10034907874491276,-0.04953531197612264,-0.034335596582117885,-0.673803754456328,-0.4502940967811122,-0.7128637603620295,0.5305629148740145,-0.5359246934904462,-0.4037402488528675,-0.7986460949502555,0.4639401299349616,-0.4513855068356467,-0.41787860588424713,-0.3451798777596933,-0.45934621809980486,undefined,1498136842070
903d185fccf839df,0.25771742407006076,-0.4765463639502842,1.4536225749365856,1.691669469609829,0.5095728081640429,-1.8561857807512052,1.8545962781274787,-0.6265453800577516,-0.5596145207585126,0.12220418741431084,0.08714846836991831,-0.007680855831971451,-0.8565828319964349,-0.3308615358771396,-0.7549690601029414,0.4517592036127139,-0.5276291827615549,-0.35868135433907383,-0.7656981118529887,0.5872970753416404,-0.39345170719520367,-0.4195791090975024,-0.4349006766798621,-0.47546034749523186,undefined,1498136843571
903d185fccf839df,0.5030421919191658,-0.46187098899724954,1.2737032719488968,1.4739205217300968,0.7336467112872934,-1.8489674689328717,1.821752635958199,-0.7018712205736835,-0.5623670786474152,-0.36939236499620703,0.03791536778011143,0.10648912542913755,-0.8130640040106952,-0.2475364337521969,-0.7539164447266122,0.8195098561654502,-0.45984837576519,-0.3079671391060225,-0.6994802931411122,0.8304077380921894,-0.2959587759846748,-0.4993232562509872,-0.46917051379140673,-0.4745898718103669,undefined,1498136845059
903d185fccf839df,0.41017902489543245,-0.5328998622259221,1.3585588369505215,1.433134502431298,0.81559285912265,-1.8736504166341257,1.873801765295661,-0.3702636646348598,-0.5032154103920005,-0.41091599383413724,-0.009043622384503304,0.05105579183193607,-0.6041736296791445,-0.22809395395567705,-0.7739164681773882,0.9104372109646861,-0.4282725528373616,-0.3366490414251075,-0.6651749294005298,0.8619283527840197,-0.2927025536852764,-0.47469434563281815,-0.4880192267409357,-0.5328198747391907,undefined,1498136846562
903d185fccf839df,0.13574825382707456,-0.369122502382101,1.5818631292590262,1.5574967607670924,0.7785026417115237,-1.8323995908750281,1.8584068795828896,-0.4297433291976702,-0.5190904255532168,-0.5711618817194398,-0.12441155036962195,0.05903044887081701,-0.6041736296791445,-0.2132806378655821,-0.7844428133587592,0.9750966054807121,-0.4255015494332484,-0.3200377283709653,-0.6761879102036674,0.9081390859259235,-0.28277560369301136,-0.48339710553595794,-0.48042498034715925,-0.5665984319034254,undefined,1498136848075
903d185fccf839df,-0.016713346998297136,-0.3362496040313186,1.4357582722138171,1.5081470231005902,0.6012903613561653,-1.8007894855215048,1.8434485433401275,-0.6120102440002531,-0.5123046052547924,-0.10897979106419026,-0.1997630444916589,-0.03657356211525504,-0.5301916221033868,-0.24198149687804993,-0.8297060181265291,0.7427267898467675,-0.5131678594813829,-0.33625639557849946,-0.7079534315164943,0.8064169573540257,-0.3230288865294031,-0.4589123365519565,-0.5333534453238262,-0.5169995743403112,undefined,1498136849624
903d185fccf839df,-0.05136367945369094,-0.2851792991947579,1.1556716530217435,1.1692749663891209,0.6018869331567543,-1.7727570927736078,1.8296078772357407,-0.6977222435497019,-0.4971298471535819,-0.030676162736413447,-0.20984717347270399,-0.024479017247884607,-0.5998217468805704,-0.27994065740181845,-0.827600743200468,0.6376550900375354,-0.5342547210474985,-0.3742540583127879,-0.716426569457565,0.7120398850791129,-0.36031336469895126,-0.5096170824893126,-0.5567184796451481,-0.516816273832336,undefined,1498136851107
903d185fccf839df,-0.08185624805771537,-0.36383933817101616,0.8188011821244041,0.7470874210063346,0.429766074509874,-1.7833691055321008,1.9015751484820744,-0.3816914205848648,-0.2984511019602623,-0.07931531533417148,-0.09077990630950669,0.06811566426188538,-0.673803754456328,-0.37715321179371225,-0.8686534275650506,0.3527494951607786,-0.6787912791734958,-0.4517756231743961,-0.7374449898082341,0.4185301141523149,-0.46720658164582207,-0.48713277194547244,-0.49500612347464823,-0.49525905044071966,undefined,1498136852595
903d185fccf839df,-0.0028533520377785515,-0.536421922986658,0.8188011821244041,0.8664047468670503,0.5502938825252842,-1.7537015856998621,1.8718425580489184,-0.5077330605288336,-0.3246076475501349,0.05005264242087022,-0.022679658196837996,0.02581084070102151,-0.7303782308377896,-0.4502940708795631,-0.8854955386267349,0.40528516134470466,-0.752577035147059,-0.5072078799632778,-0.7809651538893605,0.3641735993710192,-0.5176430199889356,-0.5304901559206711,-0.4220407899370554,-0.5311260125127958,undefined,1498136854066
903d185fccf839df,-0.022257538212799084,-0.5546194171564134,0.7913670984341482,0.8410915423278165,0.6079349284968018,-1.7459498772783961,1.8162984230508363,-0.821550415706362,-0.3253731149516439,-0.1099820032223315,0.011728228320138112,0.00907235968830554,-0.865286597593583,-0.524360819690107,-0.8960218838081058,0.22545115321829387,-0.7807858364965635,-0.5457311770393997,-0.7958193833866632,0.23413372750981812,-0.5672751478920999,-0.5384234191740801,-0.41460557885447186,-0.5081327686380173,undefined,1498136855571
903d185fccf839df,0.099711908073465,-0.5311387880035656,0.7058731414155717,0.7802872620825194,0.6879473648648152,-1.7644184157648075,1.8081039533630723,-0.8395294389908597,-0.3377071696658854,0.020569529376669615,-0.03457713391892576,0.014028439583798768,-0.8913978943850268,-0.5438032865358522,-0.9033903166003848,0.21534809809353347,-0.8426932345628522,-0.596109745233266,-0.8088474457039327,0.2165948991292463,-0.5919300157896672,-0.5825525549350768,-0.4922081401138408,-0.5516417380107501,undefined,1498136857075
903d185fccf839df,0.058131233083714554,-0.4601098855469007,0.785624619924977,0.8082181453910472,0.47842771144197366,-1.820173414449268,1.8157198746690089,-0.9265009326285019,-0.3081902618063613,0.05448152000284546,-0.12349918385829181,-0.09403272602300078,-0.8870460115864528,-0.5493582752130973,-0.8644429071618633,0.34668764512708944,-0.8119500231607985,-0.5909863926577027,-0.8382270547586121,0.2393384057054865,-0.5886434229721977,-0.5971056994199255,-0.4150245044252898,-0.5501659571318932,undefined,1498136858582
903d185fccf839df,0.02348090062832074,-0.5317258030016869,0.5272298600509376,0.6032972630059512,0.34903364408239995,-1.8578465298678717,1.878254028320983,-0.6621122744784972,-0.315138576620289,0.10256527819660027,-0.0795929655007375,0.04504955988963153,-0.8217677696078431,-0.5956500158835427,-0.8560218295443198,0.23151303151670458,-0.8485658874839119,-0.6130883656931607,-0.8552153118546862,0.2804368568304845,-0.6001804918839613,-0.5578976568815758,-0.4578201155196101,-0.5445411469703976,undefined,1498136860075
903d185fccf839df,-0.1386827932845612,-0.6473678745435697,0.3798492355196231,0.4214290592316098,0.1888441999056814,-1.8320338997746455,1.841273692209366,-0.9753984333151982,-0.2651218971567046,-0.10232753862642796,0.047994260966241445,-0.019128857159011466,-0.8217677696078431,-0.6400900548092494,-0.8686534275650506,0.20726563138194792,-0.8764408341716478,-0.6409216523469451,-0.8762197380636517,0.1933278511697009,-0.6389615853364459,-0.5250399554528177,-0.5033474196480713,-0.507200469991644,undefined,1498136861699
903d185fccf839df,-0.29391628268472547,-0.6538250979788895,0.24076313274358946,0.288645092661353,0.05763984925917853,-1.7808139302863377,1.8395169730204326,-1.022600882843832,-0.21668085358663952,-0.34896427847286193,0.12242343080834012,0.10620033460608566,-0.7564895276292335,-0.6937883952462568,-0.9107587199437288,0.005204924592841477,-0.9034315332937419,-0.6880767506366058,-0.9200407643334815,0.047304393069877326,-0.7044756903618589,-0.484724272977793,-0.5611776824103283,-0.4918201059093356,undefined,1498136863071
903d185fccf839df,-0.37569134332273274,-0.6420847395604772,0.28478575167050846,0.311045637481824,-0.13153468855978506,-1.7579897145902845,1.8302469100497105,-1.110820154427152,-0.140939478364781,-0.5249725424377667,0.11866843484171256,-0.023805584950232616,-0.8696384803921569,-0.733599257514764,-0.9644429802423409,-0.08168128164476626,-0.9599314055573722,-0.7216350196537223,-0.9651841879324079,0.025561791774931158,-0.7414091238341749,-0.4736569697463758,-0.5753980875533947,-0.49603270738278055,undefined,1498136864575
903d185fccf839df,-0.4810283539871299,-0.6591081745059973,0.09784820268754292,0.07430690673285302,-0.2573390457064265,-1.696346398851396,1.876691917730925,-0.7628166586681775,-0.1367970940737184,-0.35500208724833715,0.09528926955122086,-0.04899308425291676,-0.6607481060606061,-0.7502642494480485,-1.0539168185749543,-0.061475199659967,-0.984189894004272,-0.7474354324390304,-0.9995595200325565,-0.015197893779107862,-0.7711632083827491,-0.4800484789578082,-0.6461966254446128,-0.5064049740059146,undefined,1498136866068
903d185fccf839df,-0.2842142586080347,-0.5986455712435098,0.20248197577804392,0.13771487798694884,-0.382392549519924,-1.6411900139985502,1.866764408084379,-0.7575119202574595,-0.16259960522523811,-0.38348350775327894,0.07486444691601617,-0.09538245133558412,-0.3735238413547237,-0.7771134455681012,-1.0339167951241783,-0.14027891092126765,-0.9842557746194242,-0.767726184319131,-1.0104255667612667,-0.0008927363574928574,-0.7841892433693277,-0.466318509001224,-0.6395351464289163,-0.5146965262388734,undefined,1498136867576
903d185fccf839df,-0.17887717893281804,-0.561076611363741,0.14761355426058248,0.13118072475658335,-0.2413242196446318,-1.659677184925463,1.8370397180605924,-0.9065876730934046,-0.4050315289837111,-0.43939673243687,0.07630029869058227,-0.12026297210228018,-0.9653799019607844,-0.7539675817082659,-1.078127355066684,-0.12411400576281809,-0.969911950215864,-0.7602723101202139,-1.021585481228989,0.12888536504091513,-0.7544082313558113,-0.4525608899895459,-0.6070825142503319,-0.5816575433446183,undefined,1498136869079
903d185fccf839df,0.0886235256444611,-0.32333527407264806,-0.11397138673956886,-0.15821874744698594,0.04978156826358561,-1.7640620409326966,1.833247541466015,-0.9605740099356949,-0.5674855686244122,-0.6225217322811385,0.07130732104755173,-0.007870466490286972,-0.8348234180035651,-0.7752617956264608,-1.1033905437459115,0.011266746361809101,-0.9360101109211293,-0.7625141724754539,-1.0496426926120161,0.3763229864116098,-0.7079986552059351,-0.4611540543428762,-0.5772041123902457,-0.6050616775246922,undefined,1498136870570
903d185fccf839df,-0.1068044874255989,-0.6350405449690243,-0.433615184520243,-0.4730501211053373,0.34503249780579737,-1.9286926689342752,1.874535494603562,-0.8387219850503834,-0.4407046750848499,-0.788580157432294,0.0712883384410196,0.10242312806893239,-0.8130640040106952,-0.779890965808273,-1.088653692885821,0.21130692126718376,-0.9472273368241245,-0.7860093930092048,-1.0470188881540043,0.4365463034422428,-0.6956417879694121,-0.4659865628216895,-0.6168557826706222,-0.6165805870395018,undefined,1498136872070
903d185fccf839df,-0.368761276831654,-0.5663597463468335,-0.43425306826329574,-0.49513591668807616,0.032419310142254576,-1.8979793206334188,1.9032398229784977,-0.7161993767273082,-0.43126037889591007,-0.760632367059118,0.04832614242881101,0.009462548983689386,-0.40398702094474154,-0.79933345208018,-1.0507588988236287,0.17291528918131702,-0.926758587543889,-0.796142103308282,-1.0320527097621965,0.3927377249628745,-0.7102135659625805,-0.4576175230379209,-0.6000500005102251,-0.6059677311871459,undefined,1498136873606
903d185fccf839df,-0.3438128994421315,-0.5599025813674983,-0.020821554119612447,0.03687335183341851,-0.34128062855379493,-1.8892702959113634,1.8710430946534045,-1.0217849753500186,-0.37071413637667433,-0.49756481601889624,0.021367768816485895,0.014519822401406505,-0.6346368092691622,-0.8048884537081997,-1.06549576072707,0.10623530625211623,-0.8986019596219292,-0.7939255725948714,-1.0430866805269507,0.2720909056854957,-0.7387693335402925,-0.43724437456993837,-0.6028418166992399,-0.605012002965453,undefined,1498136875073
903d185fccf839df,-0.48657240717999295,-0.4243019560474999,0.3855917140287942,0.3700489483043223,-0.7800581780397007,-1.8836777922906076,1.9083074401113995,-0.871681322368672,-0.2329023261834554,-0.478956870617737,-0.011908865399673563,-0.07536673692086439,-0.5127840909090909,-0.7826684601468955,-1.0602326139042029,0.019349156543951574,-0.8905460446304976,-0.8282691261130748,-1.0421001291045022,0.1356606793544924,-0.7774213920661903,-0.47738083300379486,-0.571103545950766,-0.6220187285248215,undefined,1498136876579
903d185fccf839df,-0.3687612078208345,-0.6274093499934463,0.4902254871192952,0.4499772056426078,-0.7101874360988736,-1.9579712073442836,1.9047729748285631,-0.948598866432019,-0.22762475193881593,-0.4618265676429274,-0.00791300060764592,-0.19796624703805638,-0.49537655971479505,-0.7595226286639966,-1.0128641268481378,-0.15038195191366727,-0.9363906843272525,-0.8178704330211204,-0.9996364841569821,-0.1702910381853667,-0.8243423218385539,-0.4757304987337683,-0.6418917298077852,-0.5854602886974773,undefined,1498136878085
903d185fccf839df,-0.4034114712654088,-0.5769260163130184,0.5182979628265028,0.4868351398949241,-0.7871038792367199,-1.9332044062392966,1.9245622736518264,-0.7905683803844387,-0.30855376270794543,-0.4263317553794967,0.014016122256642394,-0.40588054390601846,0.4533338903743316,-0.7271184179651495,-0.9918114512098636,-0.374669442159634,-0.959436396146203,-0.7778842257008345,-0.9648483412121904,-0.3165916672666256,-0.8285935903153215,-0.4704020065915286,-0.5965167064413937,-0.537311495888053,undefined,1498136879693
903d185fccf839df,-0.22600170008297307,-0.5634246713562265,0.41557834923905884,0.326987607743196,-0.5859979284999988,-1.8858672785801625,1.870682810007602,-1.0475222700453137,-0.38062087386047105,-0.27815310080022526,0.02139506074693387,-0.3135104786758667,1.5238970588235294,-0.7243409301019141,-1.0033904485787326,-0.3281954281563463,-0.9703267869386338,-0.7736728187367187,-0.9398067550356263,-0.2757857868070417,-0.8080284665540816,-0.4759410410470907,-0.6165251725841381,-0.5376369350022363,undefined,1498136881064
903d185fccf839df,-0.2079835272061683,-0.47067618474107803,0.5674251765195402,0.5985804716865717,-0.4570255746289787,-1.8547859097412798,1.8186021308849902,-1.321662400361874,-0.390914318044616,-0.15973628365847006,0.03788651418289684,-0.19592219766879548,-0.10370710784313725,-0.7160084276598846,-0.996022001061986,-0.28374205909567657,-0.9908263032399766,-0.746270170990637,-0.9153878854308125,-0.32421389792408517,-0.795994757073516,-0.4904196536888645,-0.6148492999949664,-0.5431045778777568,undefined,1498136882629
903d185fccf839df,0.18148676167901384,-0.5164634422785233,0.9017428417599215,0.9256851486747013,-0.32853664814466926,-1.857879139600182,1.8243955936767722,-1.2473608757210806,-0.4671276967732704,0.022761527559684306,-0.03406435752892335,-0.14892499159299386,-0.5519510360962567,-0.7206375913663096,-0.9833904030412552,-0.21908260805020752,-1.016744240195254,-0.7476887506844261,-0.9222167727179911,-0.3128652449629407,-0.7950867461449284,-0.5055816906734011,-0.6211913174627338,-0.5354827176365272,undefined,1498136884075
903d185fccf839df,-0.08185611003607643,-0.32157431676226095,0.8953629877815964,1.0611941943489738,-0.07036565271917075,-1.8023034910810665,1.849152588624058,-0.9338288144076986,-0.4039218982136868,-0.08971434991643408,-0.03349041749884887,-0.010361549750393901,-0.41704266934046347,-0.7419317599567935,-0.9676009220803679,-0.27161835902829823,-1.014631325408264,-0.7020472259834921,-0.9195649812550379,-0.3139277377525837,-0.7773736263782616,-0.5002196493478019,-0.6525784966480658,-0.5247238150185396,undefined,1498136885615
903d185fccf839df,-0.0915582031235867,-0.366187427391494,0.6841807738236385,0.8259253661501962,-0.1143472965765272,-1.7556884265275412,1.841368370371666,-0.9520011193653718,-0.4085894054533288,-0.25257655873580076,-0.022810341164182835,-0.104646935100021,-0.29518995098039214,-0.7150825638367407,-0.9465482538043274,-0.2837420025662335,-1.0243503284587754,-0.6912432228351849,-0.9178647563710491,-0.31090964213547834,-0.771247438336819,-0.4936312232267872,-0.6615250508722447,-0.5148182108932141,undefined,1498136887073
903d185fccf839df,-0.25233602175989184,-0.3691224731541086,0.23693481373747538,0.21668261140219033,0.08778722273574664,-1.685995259167427,1.865015591399859,-0.6403047348651792,-0.3654708347060445,-0.47717675884658217,-0.017422917297882454,-0.045249286276674884,-0.9436204879679144,-0.7623000906256827,-1.0065483315188894,-0.27768022319434815,-1.0433854874295145,-0.7005083197507994,-0.9455161524907807,-0.34239946552327477,-0.7922277929169779,-0.4914753377020479,-0.6717131737424764,-0.5211672754535172,undefined,1498136888569
903d185fccf839df,-0.307776415666883,-0.5047231423160955,-0.08143270828319445,-0.03576440789031408,0.22538927603194012,-1.7400429263102253,1.8914766968965433,-0.5128868237733567,-0.35702140427597523,-0.656684092894416,-0.01364118389684894,-0.0172104069221325,-0.9523242535650625,-0.6928625443738874,-0.9791798752758342,0.13452381255141874,-0.8383078134654495,-0.6126577257279547,-0.9369380616892148,0.7094067430996581,-0.5312875951664147,-0.47209782677846807,-0.09306603974290241,-0.4772632171294172,undefined,1498136890064
903d185fccf839df,-0.2523358837382529,-0.6373886488034984,0.06594791624812009,0.002611041965898202,0.6355520212861102,-1.8076048392781565,1.8338497544126888,-0.8257312258530556,-0.27087356686970254,-0.4937535731081633,0.007574761341339259,0.022130961428257566,-0.9349167223707665,-0.7039725735314759,-1.0002325214651733,0.5689544904304382,-0.7417405978964612,-0.6105171911359528,-0.9346710947755426,0.8354122210827114,-0.5059964654732364,-0.4521029816762231,-0.11833421744456286,-0.43861622809084605,undefined,1498136891559
903d185fccf839df,0.1981188522467834,-0.6473678745435697,0.31668654638383015,0.33570353838705563,0.6421143069635096,-1.822649395194673,1.8625882728514565,-0.6249476647793951,-0.22601221791291343,-0.34386064551161355,0.0705781368869593,0.06713802541879417,-0.7434338792335116,-0.6549033708993444,-1.011811496747341,0.6194695964659109,-0.6529642222136848,-0.5991242251336614,-0.9398627282808762,0.8855033633790544,-0.4908510451242675,-0.46325170245942204,-0.12757323660514464,-0.44012226507255287,undefined,1498136893063
903d185fccf839df,0.2244531049128827,-0.5469882221808354,0.7077875550555781,0.7820770564154765,0.44868148733377744,-1.7417106620160567,1.843653668010292,-0.7222985143250776,-0.2640534106002787,0.00843440315073989,0.10473570806305824,0.029914915410389098,-0.7173225824420678,-0.6280541747792916,-1.0107588592843104,0.5588513929085955,-0.6615144800993967,-0.5851600837602722,-0.9470204659545265,0.8806682535551918,-0.4878447556571896,-0.4683044838396641,-0.12302408055030589,-0.44066501746501363,undefined,1498136894563
903d185fccf839df,0.10664183654290482,-0.4659800647561069,0.6286737061522761,0.7043574523794398,0.22630471306096653,-1.6756580955647808,1.788372515453618,-1.078296927761344,-0.27165930369808133,-0.260346109143527,0.10446882916654303,-0.02228647736557235,-0.8130640040106952,-0.604908330345618,-0.992864096035128,0.5083362162113189,-0.6170055524770136,-0.5878009225693244,-0.9423815799395635,0.8387844851722465,-0.49530206281132727,-0.46747748145135276,-0.11046219028935846,-0.44942942102102884,undefined,1498136896070
903d185fccf839df,0.245243304386119,-0.4460216132759644,0.6050674331942354,0.7295958232546549,0.22983270678706794,-1.6419982601199508,1.8546672974863023,-0.5765525426514152,-0.2772841714446741,-0.12639451912054034,0.07679100906964922,-0.04622689697729061,-0.7434338792335116,-0.6882333936182371,-1.0023378111157022,-0.08774307514901235,-0.9741979064838333,-0.6637202510361627,-0.9477271438897732,-0.15980469499210928,-0.7384597322010006,-0.5001415868149612,-0.59271501159143,-0.5411133069257275,undefined,1498136897602
903d185fccf839df,0.3588965328614496,-0.41549677491766757,0.6484521683781016,0.7184990538425868,0.06333813234429413,-1.6122119486268733,1.8310437420704784,-0.7129680166927802,-0.35715235075234353,0.014013509029299659,0.047583669265669856,0.07222708141872057,-0.9349167223707665,-0.7058242493746655,-1.0254957175066348,-0.14836127870632781,-0.9792728962070042,-0.6743532643010037,-0.9718101666397942,-0.2117898447051899,-0.7567595250314847,-0.5096886077894985,-0.613288223714003,-0.5883163307362539,undefined,1498136899097
903d185fccf839df,0.42403922688840945,-0.42019289490263867,0.8117834444030264,0.947114202557865,-0.17412776159449958,-1.5753727030019506,1.8642345287721773,-0.4692644738998789,-0.49119369434320315,0.34805879715205157,0.07003891328272063,-0.02545028789153743,-0.7390819964349377,-0.7484125865556335,-1.0276009997949298,-0.0008569819702907558,-0.9738152742172851,-0.6918765191075373,-0.9765610014391553,-0.13384291070590698,-0.7483238743340178,-0.4896752377372178,-0.6468396248878788,-0.6086333913118396,undefined,1498136900574
903d185fccf839df,-0.059679897264624394,-0.5076582465346947,0.5910311953406315,0.6055683366846611,-0.5585865454783725,-1.484155037840355,1.8601767320763143,-0.4769315736604956,-0.5390243868353775,0.13155519647342842,0.09839913266392616,0.03154560286155964,-0.7434338792335116,-0.7632259673996011,-0.9886535756319408,0.33860515015078235,-0.9273427425451485,-0.7239085490416757,-0.96989304049017,0.05394112962683385,-0.7232279470715133,-0.4750351007859983,-0.6677905951454082,-0.607772309742563,undefined,1498136902076
903d185fccf839df,-0.5628032075926788,-0.6168431530972421,0.2567132759633009,0.2850623022663565,-0.9958006682142224,-1.4379638933829495,1.812653516497745,-0.8609201271330486,-0.28260766817147365,-0.39820007342932,0.13462383312316187,0.07350980868766371,-0.6825075200534759,-0.7715584698416307,-0.9844430625909872,0.4477180550510857,-0.8860862007526981,-0.7524257942991651,-0.9704317944321923,0.28368593913178003,-0.6890160198325791,-0.4556258808726409,-0.6850600856420622,-0.6252627914258729,undefined,1498136903562
903d185fccf839df,-0.6570522498929888,-0.6966771928417509,-0.08398475152930422,-0.06191923955059904,-0.9937538139014104,-1.4454174560387145,1.8465990656974458,-0.6927815568418084,-0.2634484769305305,-0.7115819440421552,0.09012228516530894,-0.08070433550169664,-0.7434338792335116,-0.8021109723203518,-1.0297062526342897,0.44165617675267504,-0.8401051413965284,-0.8066421247669711,-0.9980971845712862,0.2144545279610196,-0.7365672076051051,-0.4482033932051744,-0.6708300852669323,-0.5809664154278357,undefined,1498136905066
903d185fccf839df,-0.49904645785311524,-0.690807042860537,-0.11333350299651612,-0.1956920061864549,-0.8127049745862753,-1.4784274318222894,1.834657116122529,-0.8019108664432637,-0.23117178138026154,-0.7141694254093683,0.06521553311643988,0.02547697713773783,-0.9305648395721926,-0.7984076400601344,-1.0054957161425602,0.6235108015569822,-0.676696639572386,-0.7905564475384889,-0.9812978418827155,0.5244714300772569,-0.6675763076804752,-0.41796002979940367,-0.5894840743899256,-0.3799197335348064,undefined,1498136906566
903d185fccf839df,-0.49627443125668375,-0.7272020896560324,-0.2562479247786638,-0.30699474705550034,-0.8131472597209717,-1.5500608564443663,1.8533524104197847,-0.8032212529796718,-0.20943731727218656,-0.7788928224389943,0.03533911047706477,0.023622696807593255,-0.8609347147950089,-0.8354409691376954,-0.9328640183205661,1.359012163191898,-0.39227628832002365,-0.8272305247562957,-0.9078593161995775,1.226563549352566,-0.507770572249315,-0.4189540579803575,-0.5975715694112618,0.24325625776151202,undefined,1498136908065
903d185fccf839df,-0.6418061036126156,-0.7436385096034313,-0.33982746815723386,-0.33288985199202464,-0.8456912016697797,-1.6106001140416244,1.845060615482147,-0.9751658520862664,-0.22251213339622364,-0.7099120139308628,0.02787493917843824,0.01845476114685753,-0.8391753008021391,-0.8335893321468294,-0.9654956177053715,1.3852799821515003,-0.3925743066046224,-0.8185353925446432,-0.9030874912856737,1.2373732551883871,-0.507559638278474,-0.4258629969666393,-0.5817014588762106,0.26244387283509,undefined,1498136909640
903d185fccf839df,-0.6667543429804992,-0.7876646344625353,-0.22307136257923668,-0.28728299077742664,-0.9180510800653355,-1.6846512893505683,1.888536567196491,-0.8396060430165126,-0.29260189132882425,-0.6830805798679324,0.017245069136245985,0.04454499015680731,-0.8957497771836007,-0.8345151571176497,-0.9370745681726885,1.8520405410092227,-0.28282445471772916,-0.8196436572452536,-0.8792983344578977,1.4274208611052406,-0.4555878331295881,-0.4359705883139731,-0.6051550962685066,0.253576342129839,undefined,1498136911083
903d185fccf839df,-0.6584381941803852,-0.7048953443594657,0.004060994598432623,-0.0007786664292180587,-0.7398410958955374,-1.6923005111576555,1.8705671075591372,-0.9135028375975788,-0.2716310074113188,-0.6302809379918308,0.03232354954898295,-0.041826575027340884,-0.8261196524064172,-0.8428476725104538,-0.8002322869574128,1.7429276926383623,-0.17838971558562589,-0.7992452447523608,-0.7807762408031423,1.9469490123271347,-0.30630119421728336,-0.44518663442654494,-0.6309981599947516,0.23255789343778405,undefined,1498136912561
903d185fccf839df,-0.2315457532758361,-0.633279573044641,-0.3379133086541768,-0.3943481570582855,-0.6286527142185542,-1.6280065214805934,1.9292617418690579,-0.35170997643682433,-0.2991918077736041,-0.5885666983101276,0.002881705452194774,-0.04172254101848045,-0.7782489416221035,-0.7271184179651495,-0.48865298200030566,1.5388464539655242,-0.14149736306794825,-0.6485718476725181,-0.6328286754886798,2.334235309290663,-0.1166087433927498,-0.32808723479723967,-0.5639492616345968,0.052742066128475505,undefined,1498136914091
903d185fccf839df,0.03595508932308198,-0.4507176163489662,-0.15161415168816283,-0.2703586543669941,-0.7604022098468871,-1.5567550924680693,1.8400350547779885,-0.7664470122760968,-0.293393709136698,-0.8037764661641214,-0.07559464827793305,-0.06026343202732554,-0.669451871657754,-0.5928725150695329,-0.6865479563064726,0.8558806737203698,-0.43618051807194724,-0.5996055267159901,-0.6988925625567366,1.7494639410645663,-0.2505606951736959,-0.34043591418101127,-0.5034998408445234,-0.2959033614626534,undefined,1498136915574
903d185fccf839df,1.3360369777712569,-0.18421257337791755,0.2567132759633009,0.015026710902761267,0.20214360727870828,-1.6012971329008718,1.8269333597805606,-0.3667493174096932,-0.574029942608399,-1.3086603968846846,-0.12002112681327048,0.03580963983038421,-0.7521376448306596,-0.5197316430329075,-0.5276003472654244,0.6922113728993579,-0.5493678790027292,-0.5057829672870547,-0.580492528883254,2.225984242043896,-0.073470929649761,-0.36258453496741555,-0.5943186143457023,-0.4772141025297636,undefined,1498136917080
903d185fccf839df,1.2708940077010191,-0.36266536663075805,0.289889838162728,0.08170346868244821,0.18096535752861934,-1.687844674478512,1.840547870643487,-0.44326372975925943,-0.45494689875256633,-1.1734957390321124,-0.08320011184321587,-0.06599903696157575,-0.9305648395721926,-0.4327032539754583,-0.4433897477836005,0.8013242777996612,-0.37530153722703435,-0.47670209150949394,-0.5538556693924961,1.9732033664440876,-0.11026759028107781,-0.39541294644698205,-0.4983984673603285,-0.3738332492781513,undefined,1498136918574
903d185fccf839df,0.49749800070466377,-0.5716429105579184,0.009165081090652184,-0.021990936027136834,0.2304395581130876,-1.8763220536912832,1.8692627213748425,-0.5708771854676411,-0.21205248112987068,-1.0094455989456972,-0.012232591534759125,-0.07883269024910151,-0.8304715352049912,-0.44751654416400416,-0.606547803605498,0.8922517173930617,-0.4060209867209003,-0.4319851757162027,-0.6178065207196867,1.7301081045352764,-0.16594154942652192,-0.3850610368519445,-0.4497269462321692,-0.28526907640744753,undefined,1498136920104
903d185fccf839df,-0.09710225631644971,-0.5845572112885965,-0.07250030278486079,-0.12328896241572776,-0.8862682870232825,-1.8389727036660415,1.9116420518537383,-0.8025888277498412,-0.555395258023823,-0.23706073528265234,0.03354083881898771,-0.027926335339165997,-0.5475991532976827,-0.5428774745158065,-0.8286534027501999,1.098353714067404,-0.44043158338785665,-0.5507912003055324,-0.7887526035203624,1.1595495099373574,-0.378127116707313,-0.4571172169448465,-0.5232820222878982,-0.11147138716784695,undefined,1498136921587
903d185fccf839df,-0.729124941400208,-0.7759243345001076,-0.50060619266215,-0.5108741985026181,-1.386338300026085,-1.7867371855036414,1.9252775875265902,-0.7939268978981938,-0.49291674101198335,-0.5294410778346943,0.051967495394443744,-0.01949472202934684,-0.5911179812834225,-0.5354708229461463,-0.7791796554925413,1.2236313262731062,-0.07692880532608776,-0.6667347330460277,-0.8652067569301927,0.595781624423252,-0.5625747607227579,-0.387133503992141,-0.3090774207328242,0.1301908251413679,undefined,1498136923091
903d185fccf839df,-1.0409782785528496,-1.0171877325519365,-0.7322042443150873,-0.7883631230191104,-1.7172394601728451,-1.698272681145575,1.8880211246700946,-1.0217198048410192,-0.3102250281906362,-0.6348300711338678,0.060838249356429216,0.07093826190346243,-0.6302849264705882,-0.6734200775281421,-0.9770746077120068,0.1102764548137444,-0.5974687632219805,-0.8239880565415045,-1.0256016482926646,0.009254833806686196,-0.797138168738325,-0.39431972599656,-0.38271782337158183,-0.11064005402310924,undefined,1498136924582
903d185fccf839df,-1.0395922825073387,-1.0459514674598844,-0.8406663364117024,-0.8951131679420464,-1.7161080329304657,-1.7095508565604796,1.913990450110186,-0.879175387224335,-0.2826567568340129,-0.676243314395609,0.08667789846927913,0.0714556438467113,-0.5911179812834225,-0.9289502009824527,-1.1623379950407935,-0.4171021945424073,-0.9897168712772431,-0.9333326611673409,-1.1560571885992252,-0.30787615221931824,-0.9491054454328276,-0.4195801127940078,-0.5125207464341647,-0.28360999220445693,undefined,1498136926075
903d185fccf839df,-0.921780979631951,-0.9714005042424836,-0.7902633552325595,-0.8480242026743549,-1.4881872741495341,-1.7522574569988116,1.8984509314920452,-0.9826469158753461,-0.28097431702176395,-0.7810527839350196,0.033637793451975706,-0.04924574671629906,-0.7129706996434938,-0.9548735688939916,-1.2391801911792735,-0.5403592748643777,-1.0898150292522906,-0.9722422682894735,-1.1995563612506406,-0.5174643913174631,-1.019194535123733,-0.4515583969670921,-0.5738333137904049,-0.43899713289977493,undefined,1498136927576
903d185fccf839df,-0.7014047099413027,-0.6620432787245967,-0.5127285251496462,-0.5133000489897834,-1.222209432233203,-1.786345871897975,1.9093883003339367,-0.8450887149091714,-0.3316788250333201,-0.7492635463002546,-0.03933079712280519,0.05231965113590072,-0.7042669340463459,-0.9446893841333852,-1.188653813820818,-0.23120620919106047,-0.9542105092473571,-0.9659663206234881,-1.1716600762486262,-0.17404826233407428,-0.9401136331338437,-0.42454530961808995,-0.46286928602292576,-0.36463124513399164,undefined,1498136929071
903d185fccf839df,0.11079991094296181,-0.5704688513336832,-0.3506735248847257,-0.4260591066345476,-0.6954068839671651,-1.8535397648619982,1.9075474358143412,-0.7970222405713056,-0.4889937576348135,-0.7429254882957945,-0.037381917732845646,-0.03862812145338863,-0.5998217468805704,-0.9252468719599289,-1.2149696399630765,-0.22716501823235,-0.9479981695431271,-0.9604123291402222,-1.1792306256722447,-0.047888797594503194,-0.9142555928143131,-0.42102469229923833,-0.4719858016700632,-0.3634378610247217,undefined,1498136930581
903d185fccf839df,0.34642227515586893,-0.5006139788732611,-0.36471001687527893,-0.49144424558488936,-0.06365936663906516,-1.8843788921825502,1.8663252251445799,-0.9366109108185838,-0.5387775504770254,-0.5166264610807091,-0.03236108206463733,-0.021135444939614136,-0.6476924576648841,-0.7910009496381505,-1.1212853143573278,0.6457376698080071,-0.6203758169536084,-0.8716181256180429,-1.1109767358577605,0.5781196055847135,-0.718024957806702,-0.40432562246792997,-0.4378957246795724,-0.3013540094023566,undefined,1498136932127
903d185fccf839df,-0.20659730687549413,-0.9667043550295201,-0.519746262871024,-0.601009091237968,0.1560945465687689,-2.0151959552997503,1.9169910668611854,-0.7117696243773965,-0.22734929335331233,-0.6566864764172796,0.04913185531638872,0.05483508818682221,-0.7434338792335116,-0.6984175719034562,-1.0665483981901007,1.4681249267685936,-0.2884560828187398,-0.8004105069980342,-1.0530921197441605,1.1507723962887582,-0.5437162085660824,-0.3764631663518159,-0.2696742501874995,-0.04000694774611234,undefined,1498136933579
903d185fccf839df,0.042885224824980216,-0.9432237258766722,-0.5912034737620978,-0.6787677279223691,-0.1480432355373686,-2.009370527824257,1.9031898457137095,-0.8925377761200998,-0.22103580991240324,-0.6314754264980179,0.04463255628185954,-0.09889705012409894,-0.7260263480392157,-0.7215634098617425,-1.070758948042223,1.6277529659690915,-0.13351319732978295,-0.8165341814290374,-1.062796696527985,1.0224879480834839,-0.5861507238563768,-0.3723057805103182,-0.19009434850935986,0.025580282974309854,undefined,1498136935075
903d185fccf839df,-0.48657240717999295,-0.9778576692218188,-0.6626606846531716,-0.7249255997162676,-0.5347134490477525,-2.0855156870803113,1.9338086762477888,-0.8764404546241454,-0.2630682329915776,-0.6835974493103555,0.09302812210169024,0.02654134306725239,-0.8217677696078431,-0.839144317586381,-1.1360221725796522,1.3731563951430081,-0.3276809287702376,-0.9042771160128631,-1.1119422967130035,0.7861680064924401,-0.6911367156788885,-0.36566893913765436,-0.09265760075613615,0.052847562586885485,undefined,1498136936574
903d185fccf839df,-0.6057696198373671,-0.8892183022075162,-0.7672954742914704,-0.7669358215260113,-0.6934217512185065,-2.018946030590907,1.929908675092397,-0.895357268717656,-0.3822850794410433,-0.7005546012346869,0.09117484933348922,-0.03136023705465131,-0.7042669340463459,-0.8808068492226905,-1.1402327040261901,0.15472986627149646,-0.7599542954555695,-0.9307931508246833,-1.116980000134368,0.3812350873991815,-0.7897183126828514,-0.3765601218596323,-0.16107596790370188,0.026727691110811733,undefined,1498136938072
903d185fccf839df,-0.8206019571040866,-0.5387700268211322,-0.8355622499194828,-0.9014244461114647,-0.7010845934376254,-1.8946624843419082,1.9093961850304795,-0.9263595175167275,-0.46109769072470047,-0.6984511557695932,0.08093775749427254,0.0193651159690993,-0.8783422459893049,-1.0289402626637436,-1.244443363769959,-0.768687920738153,-1.12501315955772,-1.0275985277831736,-1.1939169321122332,-0.4425971445227142,-1.0398289763335846,-0.40127566602572995,-0.24550976624303447,-0.10402975931966969,undefined,1498136939575
903d185fccf839df,-0.9328691722812015,-0.9355925309010943,-0.764105039028409,-0.8099417737812594,-0.9206430805442865,-1.8130599169184192,1.960658992657093,-0.5653870241171969,-0.3226704449128891,-0.7992926208817491,0.03113678752826295,-0.016295140811365075,-0.8957497771836007,-1.0335694425586366,-1.244443363769959,-0.8151619064767192,-1.1526757625347683,-1.079034696530271,-1.219147432249755,-0.9002697430524128,-1.1668276632740662,-0.4612402079153957,-0.6523216790651021,-0.5136243463177127,undefined,1498136941066
903d185fccf839df,-0.8594103984649472,-0.8727818676461211,-0.7322047525889862,-0.8232743787706716,-1.1539946929149758,-1.8293412988636957,1.9867361426579981,-0.45191890884397456,-0.23115835875532598,-0.8052854554067718,0.035977336302752023,-0.2879257358557878,-0.6172292780748664,-1.0122752610173782,-1.2212854426545587,-0.8131412968650031,-1.1603196332608863,-1.0755072468576703,-1.2128852864478414,-0.860279979461055,-1.1556213917311242,-0.46310680615815164,-0.6496415235544316,-0.5156961672417903,undefined,1498136942569
903d185fccf839df,-0.4893445027872439,-0.7982308752007279,-0.5624931143118375,-0.5998060145262586,-0.81631525840186,-1.8913107076309974,1.9735424108244732,-0.43066044574077433,-0.22962239716828498,-1.1663391920772752,0.021841230506212554,-0.5489121748885469,1.8198250891265597,-0.9696868979348611,-1.1791801134647115,-0.7808115713422686,-1.1107365815593169,-0.9766626618412766,-1.0959126016426652,-0.7141025381049141,-1.048662960912491,-0.2211335780413682,-0.44036432809492826,-0.2649048566021306,undefined,1498136944113
903d185fccf839df,0.8661778485787415,-0.7753373195019861,-0.5037961196513125,-0.6124929930068373,-0.09447533371520017,-1.9418668454720858,1.8998447294228216,-0.7031210293566023,-0.4575338555600594,-1.3034820462795405,0.06840189465478569,-0.9115953231216762,3.4300217245989306,-0.9132110307822948,-1.1570748224501082,-0.6454308333500022,-0.998887994477359,-0.9273416969468281,-1.0173524080794334,-0.6668293109617591,-0.9843985505336883,-0.16662668601148561,-0.4314797599432136,-0.29004999515485336,undefined,1498136945573
903d185fccf839df,0.2715775570522183,-0.26639479002688116,-0.39661030331470176,-0.4590604805419933,0.14670369135504827,-1.804665339101625,1.7987181717072978,-1.1335873500025053,-0.7234697000518148,-0.9613566664855082,0.018248361548344992,-1.055624608230255,4.670308322192513,-0.787297636804095,-1.1012852982687855,-0.49388527499345086,-0.8434180079673583,-0.8639109328304568,-0.9556265425315045,-0.4556396317601757,-0.8871444785004144,-0.19666457097002102,-0.46530687866104425,-0.36306297226744794,undefined,1498136947069
903d185fccf839df,0.031797118439254195,-0.2223686651677771,-0.5305928278724147,-0.6422815353554395,-0.18819860100065036,-1.6012365740013264,1.7407046444479604,-1.3513915856479328,-1.0107504958800557,-0.6205306283734141,0.04158840629473438,-0.9215054411198526,4.039285316399287,-0.7993334650309546,-1.0812852637746588,-0.271618373160659,-0.9017299326598972,-0.8723654124847484,-0.9451313259228697,-0.27526224318899306,-0.8474912060496876,-0.20839614165003462,-0.521330121588877,-0.40026617285385707,undefined,1498136948576
903d185fccf839df,-0.7817935157432261,-0.8105582193892694,-0.55292333334435,-0.6026342573558364,-0.947241889464823,-1.4694225973560084,1.7384693125513837,-1.4667797703584875,-0.2301027390742946,-0.7576072590009818,0.06610266697321604,-0.5854950087791729,1.5326008244206775,-0.7400801035397657,-1.0349694105005076,0.17897716747972772,-0.7446726692847976,-0.8175157876990332,-0.907474490585928,0.08275161415067117,-0.7403293642587314,-0.2308876742690922,-0.49711588477537644,-0.446430172838136,undefined,1498136950081
903d185fccf839df,-0.6528941409875222,-0.6573471879676179,-0.3423795114033436,-0.44340055171332887,-0.974817841492506,-1.5526346685947525,1.8201747512612072,-1.0222388987303714,-0.30426980363709066,-0.732974917684936,-0.03274140624966583,-0.2792815618289991,-0.24296735739750447,-0.7493384439033901,-1.1107589839004244,0.1648329072638961,-0.8019024447806972,-0.8394404390755842,-0.9757283815137173,0.06353435466449947,-0.7706496897881625,-0.38825272935937616,-0.6225192268671041,-0.531341253996665,undefined,1498136951578
903d185fccf839df,-0.40202549247260283,-0.5892533312735676,-0.09865912726291018,-0.2119077704857038,-1.0342280299873257,-1.6482802185963072,1.8897252341719717,-0.7303189947487811,-0.3350091929164115,-0.7814348917437499,-0.06496902812075249,-0.053825050461350506,-0.7216744652406417,-0.788223455299528,-1.104443188571176,0.546727706973578,-0.7919518011548824,-0.8481862336794925,-1.026490245604603,0.5067940041370071,-0.7042280708576685,-0.4474145085015125,-0.6033469979550845,-0.4330323706240461,undefined,1498136953078
903d185fccf839df,-0.40479758807985383,-0.3010287333720277,0.0270288755395218,-0.06539669607495768,-1.104818770338746,-1.7505221749906346,1.8976225407821923,-0.8219320165335265,-0.3186660191082114,-0.6376735406928195,-0.04290832362003986,0.024835773195617444,-0.6433405748663101,-0.8039626416881541,-1.0939168581142726,0.4275118600074003,-0.8011021953443695,-0.838452499712421,-1.0381539289078299,0.6505384936435488,-0.6804911416760152,-0.4576931292868596,-0.6042181977629991,-0.4180537260502708,undefined,1498136954627
903d185fccf839df,-0.47271223969242565,-0.49415684312191815,0.09083046496616516,0.053475559022374684,-1.1309752986637684,-1.8385511115673938,1.8911900373200277,-0.9915477527338981,-0.24956456554611411,-0.7297211857860967,-0.01341219833177197,0.09684507348369235,-0.44315396613190733,-0.7632259285472776,-1.0665484092334514,0.5325834750224678,-0.7452464337984134,-0.7875482980016846,-1.0242022877995212,0.7416357002962821,-0.6387228820823142,-0.44754592955792194,-0.6006560225462062,-0.37192837476065294,undefined,1498136956068
903d185fccf839df,-0.46301018111032516,-0.5863183001249492,0.22417459750692648,0.15028013187898187,-1.0656302683651557,-1.9229231442754948,1.901317410982289,-1.0250634898912794,-0.3204129811812949,-0.6527838805374555,0.04441822829501552,0.0304948382748518,-0.5519510360962567,-0.7011950597666915,-1.1097063611618614,0.45580035217434206,-0.7628973177063637,-0.7470174575085327,-1.0337389403332045,0.5789511217061245,-0.6509321230393117,-0.45521144191813434,-0.6423833443523131,-0.3849038984274637,undefined,1498136957579
903d185fccf839df,-0.34104094185651945,-0.724853956593566,0.6261221711800652,0.6135721041835197,-0.8648946068028827,-1.9731788106874018,2.0016918564299497,-0.3717044908173072,-0.245075106009378,-0.5926978779088915,0.040539313054096845,0.002529220997517685,-0.6955631684491979,-0.5845400061521161,-1.0054956977369756,0.21534801329936887,-0.7526398469692115,-0.6766457868338333,-1.0336689721204475,0.6250848639939528,-0.6071846985729813,-0.45071148193603555,-0.690713011714016,-0.36887380239119183,undefined,1498136959052
903d185fccf839df,-0.19550933851140706,-0.6919810874707759,0.7039592360494641,0.7512796044190495,-0.8449094987454738,-1.9469119805390809,1.9630047742040997,-0.5513584884584976,-0.22923284060225763,-0.5923697966843873,-0.02297461998862213,-0.08005231642285977,-0.7434338792335116,-0.6437933805940795,-1.0307588900973204,0.18099775589290257,-0.688031200182382,-0.6208652182202083,-1.02049397629152,0.7715086863871883,-0.5513609763302789,-0.45314643573310076,-0.5769558333098916,-0.2654301115973548,undefined,1498136960566
903d185fccf839df,-0.32718073986354246,-0.5305518168474327,0.13357680813307984,0.032942324759346636,-0.9392807677550794,-1.902595874758795,1.9548155714559154,-0.5982576051980857,-0.17656350940531815,-0.6423091460114747,-0.0260911258571461,-0.09878757809549658,-0.5954698640819964,-0.6595325605073183,-1.0107588592843104,0.7487886398804566,-0.655724460193615,-0.6371915469097915,-0.9907855181410689,1.3010304300634157,-0.42631779551012977,-0.4455472194157644,-0.6571194571248652,-0.18179200727257122,undefined,1498136962059
903d185fccf839df,-0.5378549337193855,-0.5857312558988355,0.025753108053416334,-0.08647367591219636,-0.9691401420266517,-1.9183322147461195,1.9141745489229032,-0.8936672920759676,-0.1807405887449739,-0.7241252060931652,-0.0284972678436472,-0.009398505587304151,-0.6172292780748664,-0.6558292088209391,-1.0391799456281623,0.8033449792717222,-0.5984617854620031,-0.623455392311605,-0.9951095477032837,1.0583817250515062,-0.4720549942940858,-0.4516767485098043,-0.6475979099074708,-0.16490139540021112,undefined,1498136963561
903d185fccf839df,-0.6002256011499139,-0.6743706375271343,-0.056550159565149374,-0.08059501715554908,-0.8737608700300579,-1.9450718811284098,1.9716410770618014,-0.5594938227164952,-0.21128181589825115,-0.5423942231498666,0.04811512796936053,-0.013303788972960072,-0.6825075200534759,-0.6308317014948505,-1.001285158928204,0.6437170531301107,-0.6283113143577838,-0.613759656599021,-0.9690044465793177,1.0677593802937917,-0.46412972189188473,-0.4376836350207444,-0.65908924169167,-0.20012168557336746,undefined,1498136965178
903d185fccf839df,-0.6224018484267756,-0.6285834092176814,0.16292555960029173,0.12957347823457877,-0.7679004791709367,-1.9768263983761287,1.9476020147937645,-0.7112844356362013,-0.2337518681921139,-0.40932251407907067,0.07203707843588912,0.06588693757839857,-0.8783422459893049,-0.6447192185156743,-0.9739167100473826,0.6922115990171301,-0.6558647192270942,-0.6304722943823085,-0.9426964375729043,1.2061914057578826,-0.4386817178847323,-0.4401378441324919,-0.6133926338298811,-0.19934619169361167,undefined,1498136966602
903d185fccf839df,-0.5794353671712678,-0.7536176915015139,0.2177942352547026,0.20903191263561596,-0.9224739337449067,-2.0069271562489566,2.0097022461603893,-0.37101460558800664,-0.2637504740573761,-0.29277799652972986,0.13954515140278356,0.05925335469136168,-0.9914911987522282,-0.6687908749693936,-0.97602197761121,0.548748408445639,-0.7067277563389652,-0.6840110010504067,-0.9581453958968518,1.351429545038131,-0.4368539626578722,-0.4294879626570884,-0.5318116013776472,-0.21562326996989348,undefined,1498136968055
903d185fccf839df,-0.47964234068891415,-0.781794455253329,0.17058168933862108,0.15048615188331366,-0.9165493724427988,-2.0218040069146057,1.9590600679611094,-0.7102139625273964,-0.2892348648918813,-0.2376058171947867,0.095625419501104,0.033138987510133285,-0.9262129567736186,-0.6697167064156011,-1.0128641121236703,0.4618622587374743,-0.8122631497464107,-0.7052010307167669,-0.9810459583121763,0.9493299363664022,-0.5383811416829632,-0.4398251477073687,-0.5762234154353044,-0.3296670734398323,undefined,1498136970380
903d185fccf839df,-0.5073626756640487,-0.8134933236078686,0.1648397191033488,0.1642550065248294,-0.909369957642399,-2.034314350435245,1.9154289573186487,-1.0146889232015628,-0.27931963050992387,-0.47409478052260484,0.05982148815893697,-0.022311725463946584,-0.8217677696078431,-0.6262025507392002,-1.068653669435045,0.393161602600934,-0.839361956285359,-0.6809648550972879,-0.9973625208178081,0.620049575550509,-0.6068519906603869,-0.4422787919362479,-0.5335639992428787,-0.4339832173504909,undefined,1498136971056
903d185fccf839df,-0.5461709790032703,-0.8164283693704832,0.14761330012363305,0.13852648473660173,-0.8343460845961096,-2.0111384204698908,1.9679461942914436,-0.6332288556221016,-0.2886251453137133,-0.6989622277605372,0.03893306406893709,-0.11103319646764158,-0.8043602384135473,-0.6132408392630347,-1.0549694486757513,0.6901909540745123,-0.7855253942435293,-0.6441767864989211,-1.0033937713775436,1.0017462416230793,-0.5079229021819862,-0.42909883041278796,-0.4874326162490625,-0.42545130058541797,undefined,1498136972571
903d185fccf839df,-0.2412477773525269,-0.31746518254741884,-0.006147686659905346,-0.041507843960762875,-0.5430962824935934,-1.8126359972091834,1.851543090971491,-1.038910836479062,-0.2939265037724344,-0.7483122540874368,-0.06857673473088115,-0.0697478727717484,-0.6302849264705882,-0.6808267226224151,-0.9697062117308967,0.33658459000232904,-0.7151385293045145,-0.6640115666889359,-0.9535764784188497,1.3439304958727403,-0.43272558347939966,-0.45220892895504655,-0.5303569790699009,-0.40764607182625406,undefined,1498136974064
903d185fccf839df,-0.12343664700418794,-0.2487843108552472,0.145699140620576,0.11208954269009826,-0.5499156990799547,-1.7741010635200765,1.8880053427067478,-0.7418521593162181,-0.30664359740640573,-0.6617921621847913,-0.10826464440540041,-0.06691921611439483,-0.5388953877005348,-0.6150925474831608,-0.9833904030412552,0.30627542462804785,-0.7546072667329783,-0.61322769055926,-0.9714673238855668,1.1992159041280726,-0.4398589513427751,-0.43801302257201014,-0.6263722902719636,-0.47138260873545673,undefined,1498136975573
903d185fccf839df,-0.09848826961466546,-0.4178448641381455,0.43408053570488003,0.2737209761370388,-0.5393728550163266,-1.8109938835465496,1.9066664553203456,-0.6752808689111129,-0.3508090924015596,-0.588935832106284,-0.06877999721593178,-0.006980758534884786,-0.7695451760249554,-0.46418161380193595,-0.9654956471543067,0.6578612002870562,-0.5778089275756564,-0.5675988330578706,-0.923497188814804,1.3075593715922942,-0.3851926023943545,-0.4381773389516673,-0.589265889079103,-0.48714491064681675,undefined,1498136977060
903d185fccf839df,-0.23847581976691484,-0.679066713670117,0.7454298117302732,0.6787976780588331,-0.348295467528362,-1.9987352222042496,1.973545049531872,-0.4424858707056862,-0.2743695605890945,-0.7169277919555835,-0.03444313553976393,0.0024523391731965864,-0.8348234180035651,-0.4151124370713535,-0.9254956076149883,0.6396757349801533,-0.580198888313945,-0.5408358119698791,-0.8824189129102308,1.266922876927016,-0.37828936067002666,-0.4145815581631113,-0.613883968925055,-0.49452757160583444,undefined,1498136978608
903d185fccf839df,-0.24401987295977787,-0.7565528103341094,0.688009346966702,0.7314868592580125,-0.159727786444827,-2.0023595182985776,1.8910401484740564,-0.9282500260223536,-0.23197253307534513,-0.7045353430620556,-0.03160810259168686,-0.14631654731374993,-0.6825075200534759,-0.3595623819388329,-0.8623376248735684,0.8781075419713947,-0.5369737086021829,-0.47882995912895443,-0.850219589720659,0.8249412938628272,-0.4367314699455779,-0.4552320314422364,-0.6244479197073718,-0.3541596572100839,undefined,1498136980074
903d185fccf839df,-0.21491359369724705,-0.571642881329926,0.2541612327171911,0.26406599093525,-0.2848430102060571,-1.9390507972532764,1.905916954524315,-0.7914495363399098,-0.311664444772464,-0.717048550770825,-0.03606567623501519,-0.06985075586505257,-0.6215811608734403,-0.42437075153342874,-0.9033903018759173,1.3165793542796815,-0.49878300585608626,-0.4313582128913644,-0.8803548543255513,1.1300152916521538,-0.35971327146675414,-0.4314813988173173,-0.502759945852449,-0.3547948552794864,undefined,1498136981562
903d185fccf839df,-0.22738771338118882,-0.4859386039202264,-0.10121117050901995,-0.1126205059287947,-0.4800038231452646,-1.8623419611478964,1.9150818274515344,-0.7111351156133927,-0.24365873969126867,-0.6645397850484145,-0.030469061124076276,-0.10313461903977501,-0.8348234180035651,-0.4484424209379226,-0.8328639157911534,1.2175695045041386,-0.5704712161490261,-0.4647011622608463,-0.8202102673628745,1.6443079683259796,-0.2561763420872049,-0.4539587714229812,-0.5437140581227627,-0.3799669152374125,undefined,1498136983065
903d185fccf839df,-0.37984924519574104,-0.5252686964783364,-0.003595135139896719,-0.04491801838324448,-0.6389486969500602,-1.8084643303181613,1.9420978240978533,-0.5193427876800019,-0.20198019113323984,-0.7938078553721697,-0.06745510992761639,-0.0001445609929101204,-0.9653799019607844,-0.4465907709962821,-0.8128638776159097,1.310517589040157,-0.5345331492128509,-0.4362979107425365,-0.8294810403614307,1.4314860527762554,-0.28837078907075275,-0.457429579384776,-0.5582835891910851,-0.29830488806931776,undefined,1498136984552
903d185fccf839df,-0.2800562877242069,-0.4108005672487195,0.4749129735056871,0.47262446819089143,-0.5537625527851268,-1.823164157288786,1.8380942619168616,-1.144136050798187,-0.3456414619503923,-0.5917303719740631,-0.1482030692010015,-0.015978143419943303,-0.8783422459893049,-0.37622739977366654,-0.7907586013257738,1.138765849772281,-0.5675999936071628,-0.36243045582231675,-0.8655845836715157,1.2629808582264275,-0.2813952432690579,-0.4892476421227783,-0.7153249245907494,-0.2331730859522329,undefined,1498136986056
903d185fccf839df,-0.3063904713794867,-0.5957105254808952,1.3062422045422204,1.254983140060878,-0.581359081126168,-1.876496747445805,1.904357490498069,-0.7605068706293965,-0.42360905785386,-0.4074567098557868,-0.10405529969129974,0.06248416243572816,-0.8609347147950089,-0.39937325715811467,-0.854969199443523,1.114518647490575,-0.5370256893626651,-0.33756732029582226,-0.8936487909723289,1.4046927501877484,-0.24996168444262296,-0.5021260111185533,-0.6866275193941374,-0.24425284092031685,undefined,1498136987572
903d185fccf839df,-0.3147066201796007,-0.6855239371054368,1.2526487881000163,1.2358596926813594,-0.7096834373220872,-1.9069841587646827,1.8982800031708438,-0.9027428767460689,-0.31821227215358117,-0.5717051819025117,0.010365841401350967,0.1012104108944736,-0.2647267713903743,-0.30678982762032214,-0.9107587346681963,0.5568307620983384,-0.5935189784795395,-0.3113362669085916,-0.9125891574343731,1.015358455268056,-0.31980374720033244,-0.5138617306640456,-0.6724705070492804,-0.28218118504689643,undefined,1498136989068
903d185fccf839df,-0.10819050072381467,-0.5986456150854983,1.2526487881000163,1.2366626326529935,-0.4391078905620117,-1.898345011698012,1.915513114172051,-0.6632038236443571,-0.27108622869798893,-0.36625675456501894,-0.03158200474429331,0.10811148624265475,-0.08629957664884134,-0.21235476109166368,-0.9097061119296334,0.3204196283144364,-0.6903963226971987,-0.2674173015314252,-0.9228045023848075,0.6138901899811865,-0.39062050246987734,-0.4874951807363659,-0.5107979125519192,-0.41193813584795674,undefined,1498136990619
903d185fccf839df,-0.21629953798464335,-0.4466085698181011,0.5642347412564789,0.4719825881727436,-0.5114677688295345,-1.858549961266882,1.9520516412067317,-0.3926715554830503,-0.2371635161159601,-0.607010454528103,-0.08221042039092914,-0.06559866928720337,-0.7913045900178254,-0.09107053729527606,-0.9023376791373543,0.4275118600074003,-0.5735555763638311,-0.32032904541344165,-0.9111478150911225,0.8534130108232837,-0.35738121699114267,-0.46769099725302254,-0.6026121983065611,-0.2991789755426433,undefined,1498136992058
903d185fccf839df,-0.2869863197098759,-0.4565878247861647,-0.02592564061183201,-0.057602568291800466,-0.6486583937480601,-1.846999263932972,1.8665776862770904,-0.9870101548499108,-0.25277844398589333,-0.5590763662807388,-0.0790609883140875,-0.07369280951879571,0.04425690730837791,-0.2373523396470123,-0.919179804923506,0.6821084873629266,-0.5395575360133961,-0.450768686469564,-0.928590866117593,0.9803731914681829,-0.40094785962562396,-0.4603604988969072,-0.48519933745062743,-0.3282814258125908,undefined,1498136993562
903d185fccf839df,-0.5960675612552666,-0.5299647580073228,0.005974645827590823,-0.06519131599892554,-0.9783869889556132,-1.8741908012747484,1.985384441485555,-0.398813968209528,-0.29375851516576645,-0.5621074637188269,-0.04276107710067973,-0.05018030519648778,-0.21250417780748662,-0.46510743877275623,-0.9118113794934608,0.8902311572446084,-0.5533097253489979,-0.5787891418837593,-0.9261349861421707,0.7359228709103588,-0.507915034679816,-0.42488846580599066,-0.566468391885406,-0.3457640073166343,undefined,1498136995061
903d185fccf839df,-0.5655752341891103,-0.5246816084102341,0.25607539222024817,0.21254789801123064,-0.967628149753349,-1.8810853485296646,1.942810505550349,-0.6735280191451513,-0.39323029237132046,-0.5507914534562124,-0.06091284966141754,-0.031737162092602925,-0.32565313057041,-0.5715783400036616,-0.9065482289894767,0.8013243908585473,-0.48061146675398786,-0.638584795460051,-0.9143873407903368,0.7215561234090938,-0.5421925504949694,-0.38913083207018184,-0.5162660578391093,-0.3527540542043431,undefined,1498136996565
903d185fccf839df,-0.5919095903714388,-0.5575544921470204,0.2528854652310856,0.1588274962731123,-0.9740464224567676,-1.907214754085112,1.9793542942870015,-0.45787030400338247,-0.38408608202131744,-0.5801066486453057,-0.05124039730418424,0.13326207925149272,-0.852230949197861,-0.6336092087842476,-0.9170745447219124,1.2377756147536594,-0.4420899634821072,-0.7210207247592686,-0.9047737222298221,1.264828673026213,-0.4456753420786325,-0.4305298114068514,-0.6048743210088706,-0.007309926384950936,undefined,1498136998053
903d185fccf839df,-0.44915001362275786,-0.5381829825950184,0.1661159948633531,0.15615588785633958,-0.8522226261009813,-1.9161939711997364,1.9248331585976477,-0.8078888685479001,-0.30479443784945515,-0.7293141794910837,-0.02258284615391239,0.029748862110741996,-0.8826941287878788,-0.6354608846274372,-0.9549692946107019,1.308496887568096,-0.4170477304775365,-0.6822567760780924,-0.9369940366105395,1.4117452364116605,-0.40362546386545567,-0.4300699509406473,-0.5788021962982471,-0.11008870693702015,undefined,1498136999564
903d185fccf839df,-0.3382688462492685,-0.5487492525612033,0.21715635151164986,0.14249902351919322,-0.7950135789529619,-1.9205403314198886,1.9397625680498316,-0.7057311794612696,-0.2606921049702643,-0.6822180026138479,-0.058529832368620936,0.045391588416308144,-0.5911179812834225,-0.5808367127442223,-0.9307587581189725,1.2822290686084938,-0.4408145174033064,-0.6061727906382454,-0.9099163780712534,1.437152671048013,-0.3581343871464531,-0.43988405383046325,-0.6731553040467069,-0.15295847341964322,undefined,1498137004081
903d185fccf839df,-0.3687612078208345,-0.5951234812547815,0.5482843438998181,0.34286869570382983,-0.7138491442605727,-1.8877702639509926,1.9457164514717005,-0.6194105420244904,-0.315486315045076,-0.6180571959821004,-0.058545980263543566,0.027659821142472382,-0.6563962232620321,-0.5410257857218423,-0.9412850738514081,1.0377354681130062,-0.49086346746855686,-0.5760279777926264,-0.9087689013076925,1.288542275365208,-0.3700395301568008,-0.45161223786391075,-0.7339724949961012,-0.14087907030309185,undefined,1498137005588
903d185fccf839df,-0.15254292626671875,-0.5399440129753864,0.9732000526509953,0.9774551779497251,-0.6493372535235813,-1.8536515687009871,1.9135670658940835,-0.7513800000270023,-0.3601555755795607,-0.4419370311851864,-0.10232190285067859,-0.12129385843223611,-0.4823209113190731,-0.4688107516068118,-0.9254955928905207,0.9447874683711525,-0.45063715014901706,-0.5659902621082535,-0.9065299217598681,1.2536032017052223,-0.37014366828628786,-0.4420514267431478,-0.742956188903727,-0.14298429746296076,undefined,1498137007075
903d185fccf839df,0.026252996235571716,-0.6332795145886564,1.104630279825649,1.0015199117241604,-0.5531145586109377,-1.8850240923184258,1.915741915977323,-0.7380229857457172,-0.36927746693041863,-0.42788533266334755,-0.03140823593853595,-0.3269757342874633,1.1452832553475936,-0.44381325723149767,-0.9539166571476714,0.9427669364874206,-0.45381931070949255,-0.5396388842639055,-0.9338734588494344,1.2148761107077715,-0.3697094166625752,-0.4478234951408253,-0.761277836682768,-0.15616021447921286,undefined,1498137008552
903d185fccf839df,0.11634399864123456,-0.6473679329995543,1.5831391508820811,1.413871349463771,-0.4936117994049182,-1.8955056699893413,1.852055898980576,-1.1497011447767453,-0.35830059952792603,-0.14225057987376155,-0.10362520255222019,-0.3614512107180723,1.3498217468805704,-0.4410357564174878,-0.9823377876649261,-0.006918832003979916,-0.7586500574045113,-0.5317796997927056,-0.9783381924356146,0.3091857515843049,-0.590659742434717,-0.4323267224726289,-0.5219240580384132,-0.5310266672793807,undefined,1498137010061
903d185fccf839df,0.05258724890167101,-0.6338665295867777,1.9340453513591254,1.8721934157424263,-0.45956614220358627,-1.9239154009361386,1.9116578254369112,-0.7891871052541523,-0.41724076614232075,-0.30021355270373146,-0.0303978822386295,-0.4212836812953796,0.07036820409982177,-0.4058540578554055,-1.0002325214651733,-0.3140511538081539,-0.8854355131593799,-0.5263333681581719,-0.9843064721195373,0.021511993312523667,-0.6496683200105502,-0.4319294289560499,-0.5467993001254884,-0.5567356807151412,undefined,1498137011558
903d185fccf839df,-0.019485477110957845,-0.6503029495341766,1.6252478644428925,1.5950079106634565,-0.6438446870519313,-1.9222150565911496,1.9015278057345986,-0.9099486333518381,-0.426875496489754,-0.21887708183901347,-0.1262937097194522,-0.34461252021217653,0.4837970699643494,-0.38733740302970593,-1.0265483549696655,-0.3746694280272732,-0.9043940731997587,-0.516586969339102,-1.0079207084980013,0.00021594525273134312,-0.6596799740854838,-0.43631750043280665,-0.5280666895253324,-0.5586550808704355,undefined,1498137013058
903d185fccf839df,0.01100684995519844,-0.5352479514464,1.3949255802760607,1.2663211147877549,-0.4853318118625797,-1.7911231448871034,1.8229307978613696,-1.127372963974083,-0.29329473140200657,-0.3758870167377937,-0.12719588899528436,-0.3417926618172175,1.0408380681818183,-0.366969007606944,-1.0097062291835135,-0.30192751027021864,-0.7608537479946447,-0.47790534855477534,-0.9272544752156793,0.3277408793163664,-0.5620729107422205,-0.4251201668127836,-0.5420290085298523,-0.2684930153430291,undefined,1498137014557
903d185fccf839df,0.11911602523766605,0.356428824451727,0.6510042116242114,0.6579956598324528,-0.4458347353628937,-1.4690242991549463,1.7839255141302666,-0.6159485940035755,-0.4244003242758307,-0.2740897647778349,-0.22686600626104295,-0.24895848373171806,0.30101799242424243,-0.36604320853767286,-0.7549690895518766,0.16079170217282485,-0.5675525442721621,-0.49647987260971593,-0.7341075118030429,0.6689858306420094,-0.4396243873664405,-0.4666568482120999,-0.6195796849705232,0.20379706433011188,undefined,1498137016069
903d185fccf839df,0.07060542177847579,0.005393504839229287,0.2975462220380068,0.20207589435101408,-0.4079525150567054,-1.356978575601187,1.7585242157631047,-0.6193800414230232,-0.49215685688777755,-0.3522130399997789,-0.12112599244573341,-0.11022608984468772,-0.7738970588235294,-0.3956699054717355,-0.7370743042159928,0.2496984685588859,-0.4910497103951768,-0.543077672619826,-0.7251655875882883,0.533972261924793,-0.4831785997395736,-0.4343612559156075,-0.6014198012741697,0.24518956013837645,undefined,1498137017611
903d185fccf839df,-0.2758981788187402,-0.2769610015370815,-0.011251773152124906,-0.019664477862859114,-0.6539658138660261,-1.3018617874340497,1.7485230642869245,-0.7210832176990893,-0.4145651064067279,-0.5233517842351691,-0.08830709872519028,0.007237349394745113,-0.843527183600713,-0.4049282458353598,-0.7644427604590479,0.4073058062873226,-0.4495890700976212,-0.5522541083405669,-0.713250018665307,0.4835269553562607,-0.4939020572674148,-0.42334168567049313,-0.5650541712945011,0.26647051238870245,undefined,1498137019065
903d185fccf839df,-0.24401987295977787,-0.5528584013900416,-0.04315205959154774,-0.13881853069806357,-0.6625955146675582,-1.4329839783994092,1.8432960199768447,-0.5087284917389676,-0.24678630839647706,-0.6815134697670119,-0.007768027452440864,0.05459066152142513,-0.9175091911764707,-0.5160282783957537,-0.7444427517327394,0.4214500382384327,-0.422708227131109,-0.6159571891070426,-0.727467538758207,0.4542391128847755,-0.5345847623305979,-0.38096074504143856,-0.5116038754440408,0.3022473327720355,undefined,1498137020595
903d185fccf839df,-0.5919094868552096,-0.7066564478098144,-0.3021847032086399,-0.38867268433011537,-1.1639923875156064,-1.5149568943833132,1.8547014865026124,-0.7908387240528048,-0.2501494908149972,-0.7288574240686169,-0.011096161791759363,-0.07409070152729394,-0.8826941287878788,-0.7058242558500528,-0.7023374299051262,0.2456572069383716,-0.4333539949591617,-0.7392279374718872,-0.7691475411628071,0.32358330445771755,-0.6292857731118001,-0.32105042710398507,-0.4930907507834113,0.34325544222369103,undefined,1498137022051
903d185fccf839df,-0.5059766623658329,-0.5258557114764578,-0.4278732142849707,-0.4512722218173922,-1.15803696734392,-1.608727407130251,1.8582070181859787,-0.9354585704157341,-0.33026343395885976,-0.7254778060412365,-0.004251566115976241,0.012362199237275755,-0.6607481060606061,-0.8224793224154028,-0.9044429467011816,0.12846200491481188,-0.7852313568063595,-0.8438418345770249,-0.9136876601125121,0.12385006794120637,-0.7524865034944251,-0.3517959218718238,-0.5937534730786663,-0.20043560243579617,undefined,1498137023562
903d185fccf839df,-0.5628032075926788,-0.6561731579713751,-0.44446124124773484,-0.5068148810305165,-1.1943454784998728,-1.7319185407047895,1.9061904551320563,-0.8083714016569966,-0.34576071590437324,-0.608676194222328,-0.038075639480246386,-0.024894034546652666,-0.6999150512477719,-0.8622901652577482,-0.9633903722282454,-0.0473309677088569,-0.898856685455244,-0.8560707486685789,-0.9923178202552454,0.09163652103686118,-0.7924695402151133,-0.40757271546971313,-0.5996712292988193,-0.3492728891100073,undefined,1498137025065
903d185fccf839df,-0.3701471521082308,-0.7477475561342962,-0.3021847032086399,-0.41106853336667243,-0.8311883736968027,-1.7473613968360706,1.896660036904585,-0.7876127995278375,-0.3330442965359535,-0.5024347783211017,-0.03880225564846444,-0.06464777938276564,-0.8739903631907309,-0.8678451668857678,-0.9033903166003848,0.2759664005773743,-0.7919656991803911,-0.877077122863098,-0.9329428826480468,0.5614738912941163,-0.6756063928929472,-0.4186527602466534,-0.5234752842172189,-0.3409205782832344,undefined,1498137026552
903d185fccf839df,-0.3160925989724067,-0.5328998914539145,-0.19308472736897206,-0.35769085267246686,-0.7600627795640237,-1.7197855331120295,1.9139957128596792,-0.6093741390856349,-0.3587050531932136,-0.3397854152223561,-0.037375170664322103,-0.0036379068448016373,-0.7608414104278075,-0.8391443402502364,-0.8054954521858645,0.46590340729910246,-0.5264683056391156,-0.8485598774450452,-0.8445661644586202,0.8106361409241611,-0.5819842086649616,-0.3657077563368708,-0.459659440196612,-0.3789935546571915,undefined,1498137028054
903d185fccf839df,-0.1262086045898,-0.44895662981058665,0.19291219481055638,0.17609429828871345,-0.8338215146653086,-1.659621282548185,1.8594956114079475,-0.871617124906758,-0.46526473056657974,-0.224427297936171,-0.02647196477823318,0.027236313382026905,-0.673803754456328,-0.7808167972544805,-0.8433902315235892,0.5851193673241663,-0.6076907334871953,-0.7586700750320972,-0.7995836672040042,0.9101100981167652,-0.5090487544725826,-0.40400636008043667,-0.5402179710668654,-0.4582194641005386,undefined,1498137029609
903d185fccf839df,-0.2814421975061934,-0.5023750530956176,0.35432880305852527,0.23647864191076345,-1.065486269008722,-1.7276909699238348,1.9176143224256559,-0.6434789372203062,-0.41608403072432054,-0.3406620170608249,-0.07615808062803196,0.09010921105421703,-0.5911179812834225,-0.7660034617382238,-0.8581270971081473,0.5447072881487323,-0.5569981602648364,-0.6994823823989087,-0.8045234158909184,0.6424851169603457,-0.5412649089462127,-0.4132601480342121,-0.5248309448702081,-0.4204240914092372,undefined,1498137031065
903d185fccf839df,-0.39370941268330834,-0.6538250395229049,1.0338114609515268,0.9246447820794234,-1.049800580274862,-1.8140754651757272,1.9094777084140915,-0.7945103955126379,-0.4975819325864521,-0.07737258014671115,-0.08772477498869609,0.12187244027376137,-0.13852217023172905,-0.5678749947926697,-0.7897059785872108,0.9407463480742458,-0.45210901686726485,-0.5748057197957698,-0.7562734082260449,0.9661758377847599,-0.40653851716236017,-0.45511173889205375,-0.5112734272567119,-0.42510223419978765,undefined,1498137032566
903d185fccf839df,-0.37984931420656054,-0.604515750452716,1.0714539717631713,1.0466236999642686,-0.9384579072947786,-1.8758096222992102,1.9585656649099434,-0.5029118068187879,-0.45949162187935905,0.1320345154575246,-0.1651444779314376,0.0267074552720016,-0.3604681929590018,-0.49288242101130564,-0.8223376000587176,0.7306031745735538,-0.4846452873963387,-0.4822877448265441,-0.8029421370915689,0.7198315041156415,-0.43494845822129546,-0.45497916269995425,-0.4742392227223632,-0.37653332872244083,undefined,1498137034059
903d185fccf839df,-0.45192204021918936,-0.6737836079150168,1.2673231638336222,1.3657282903828718,-0.9030956801703396,-1.9265288061706733,1.9578529876475343,-0.576155649046957,-0.43064148327232676,0.15493316044072739,-0.10528401916213631,0.005756622490898502,-0.4083389037433155,-0.39289239170695106,-0.9212850798495673,0.793241980676405,-0.5711722599998545,-0.3570601160072021,-0.8540328497093397,0.8080953895635351,-0.3801941185268699,-0.4753082721600525,-0.4626865574200463,-0.350960755988182,undefined,1498137035557
903d185fccf839df,-0.46716818649956265,-0.6497159783780437,1.7688001699680929,1.7109851622213699,-0.9028796788540947,-1.9408047132893589,1.9831990617132427,-0.4093643905367431,-0.4153721413954248,0.09336990625882677,-0.09601383068557126,-0.2086107339352393,-0.8304715352049912,-0.26883064119500455,-0.913916654419522,0.6053253362500793,-0.5047978170183092,-0.2652197667035406,-0.8352674036415535,0.6858009355464192,-0.3530419104084621,-0.5065032789415039,-0.43207355052942914,-0.32903811859316107,undefined,1498137037054
903d185fccf839df,-0.43251788854957857,-0.6544120545210262,0.7581902820977716,0.9659116751617515,-0.8692968753487982,-1.938915699822948,1.97875995451413,-0.45013321019499425,-0.38487274853485226,-0.2763307473457967,-0.0228018344629174,-0.023150241176488704,-0.6868594028520499,-0.25864648881133445,-0.7518111550760834,1.6297736109117094,-0.2673113533464945,-0.20104805020887093,-0.7477233055182572,1.7605046398310895,-0.06368358411919554,-0.5577567993197268,-0.7500995242965776,-0.28787147231862714,undefined,1498137038564
903d185fccf839df,-0.3604450245153108,-0.6420847687884695,0.5259540925648322,0.6063704811846405,-0.8682168752492613,-1.9443335099927097,1.9644695867798514,-0.5508607480822544,-0.39927400409139646,-0.4464711159120394,-0.03370513328737663,0.04254991345665924,-0.6825075200534759,-0.2808664564710896,-0.7286532486851507,1.6075468557195707,-0.29116534303594627,-0.2401729761592118,-0.7228846278236123,1.6957849745492466,-0.0864182691378001,-0.5747986757679117,-0.6528243511805512,-0.3063968586758115,undefined,1498137040246
903d185fccf839df,-0.34658485702774355,-0.586905271281082,0.42833856546960775,0.40103706718372856,-0.9588955837953,-1.9351353438488808,1.9625498312989114,-0.5806062461107138,-0.3964931912566727,-0.5935493587861039,-0.07109989712896464,0.11339606531544415,-0.27778241978609625,-0.3077156784926915,-0.7960217739164593,1.4357952012458592,-0.24178682473636323,-0.23312441056050434,-0.7813989580844717,1.5191032129524844,-0.13862489320468627,-0.5397546999784628,-0.6278841611144811,-0.20141263065532347,undefined,1498137041574
903d185fccf839df,-0.3756911707956841,-0.4389773748425231,0.4729990681395795,0.5336736013469987,-0.8875128479887555,-1.9221964206600801,1.9529641866749434,-0.5996008201013417,-0.4274989903083096,-0.5633609361042581,-0.08247608362487824,0.017771834770752108,-0.5867660984848485,-0.3280840221123552,-0.8370744435565745,1.3084968310386529,-0.31757961474283275,-0.37132824105787243,-0.8013538622765608,1.4234172726665517,-0.22608024040418945,-0.5071493010072021,-0.5660303457857089,-0.18035215997673004,undefined,1498137043066
903d185fccf839df,-0.4061835323672501,-0.5751649713186543,0.44365082494626645,0.5940770454154257,-0.8370203610048554,-1.9373201713922614,1.934839568633234,-0.7570865356392505,-0.40510698777085824,-0.5282591904174901,0.009439020626884332,0.048829702355898376,-0.6215811608734403,-0.41418656029743506,-0.8423376087850261,1.5327844343435058,-0.3271235897889867,-0.45402381844009354,-0.8037327784578788,1.4492096710911362,-0.26539056197616334,-0.4530791434407235,-0.4801131317659107,-0.1352819514712516,undefined,1498137044553
903d185fccf839df,-0.34104083834029025,-0.5593155663693768,0.3983519302593431,0.4769234246949283,-0.9604075842547349,-1.8811435810186887,1.9138090130503476,-0.8636874415601602,-0.4081326832201158,-0.543073569436883,-0.013810332865781328,0.006895520726030414,-0.517135973707665,-0.5326933350829111,-0.9023376644128867,0.5588513505115132,-0.4816650026504578,-0.5481376953322921,-0.8818801579894788,1.222944909705096,-0.3798614295905191,-0.4266450522827763,-0.5141698902142504,-0.11908636835807068,undefined,1498137046063
903d185fccf839df,-0.3341108753654407,-0.5364219668286466,0.3613470490538019,0.4723377726465243,-0.8624774682469072,-1.9005298387122576,1.9243887223360527,-0.7802772134715767,-0.42592295199912367,-0.6365431061604543,-0.004559844359103678,-0.04426549638934737,-0.5084322081105169,-0.5363966867692902,-0.94865355081709,-0.059454498187906005,-0.8467433389117395,-0.5431030035142056,-0.9685496540558456,0.26627029262022156,-0.6064531247390473,-0.4517354800679687,-0.5991753577259518,-0.4557297399676791,undefined,1498137047557
903d185fccf839df,-0.4186577210620113,-0.44308650905736513,0.6969412441911369,0.6825826893038959,-0.9812875581731522,-1.859665664619269,1.8959841789857108,-0.9307584026611349,-0.46043677204588995,-0.6223919564105527,-0.10520441273079013,-0.014035721706113023,-0.5563029188948306,-0.5345449850245515,-0.9865483301548147,0.0476375639167287,-0.8479305780728599,-0.5697520308131876,-0.9857268237059535,0.40862892047496985,-0.6022201081724037,-0.44441391337211067,-0.5734748364916098,-0.4292460881793072,undefined,1498137049059
903d185fccf839df,-0.46855416529236865,-0.44778258520034775,0.4130263059929491,0.46437349631878566,-1.057936571855651,-1.8896988742435503,1.9242624802470578,-0.8048178162720486,-0.40555937208541837,-0.7098616174156842,-0.035259409052158526,-0.12968805326177213,-0.5737104500891266,-0.5780592119302125,-0.9560219836093691,0.44771794199219955,-0.8100402530606824,-0.6171667801036745,-0.9598526176039515,0.7784841830359438,-0.5297354696649933,-0.44108603422872283,-0.6951251706723841,-0.3564176632364693,undefined,1498137050579
903d185fccf839df,-0.6695263523242257,-0.535834937216529,0.15016534336974285,0.14149304417095093,-1.2558230984210712,-1.8709112307104934,1.8965022497442883,-1.022418753545432,-0.4000564087777647,-0.6327309633766678,0.007543144633708085,0.0410222882648295,-0.7869527072192514,-0.5771333610578432,-0.9581272290864952,0.39518230407299504,-0.7698085478196987,-0.6374195352574072,-0.9697601009795231,0.7528303717915965,-0.5430881942092197,-0.4717042306753532,-0.7465812843370356,-0.37215257843896926,undefined,1498137052119
903d185fccf839df,-0.7651613734173419,-0.6174301096393789,0.08126017572477877,0.054720838126622755,-1.3782331737525513,-1.8516437658692224,1.8684579962773578,-1.231562899142565,-0.33316909194433525,-0.5818862539341189,0.010158393986253077,0.07410756612695356,-0.44315396613190733,-0.5891691763339282,-0.9518114337572466,0.5750162839346843,-0.7035470410423881,-0.6533658875367402,-0.9698230729992264,0.6256238114289092,-0.5781294910038932,-0.49328179541167505,-0.6853068467439538,-0.37359282110886155,undefined,1498137053568
903d185fccf839df,-0.7166508217162663,-0.592775508946273,0.2854236354135612,0.22174031923069987,-1.2834813348667604,-1.7827635037277785,1.9104481043208943,-0.8402134359305277,-0.3588697026741248,-0.5866634758601356,-0.011820748825385197,0.05657854540916792,-0.33000501336898397,-0.6539775459285241,-0.9676009294426017,0.6012842724826157,-0.6971481119015505,-0.6565133594924375,-0.9761272000028386,0.5970442980268322,-0.5905441431309683,-0.49215441571167406,-0.6559867580469537,-0.37795967659716373,undefined,1498137055077
903d185fccf839df,-0.23986186757054034,-0.5640117448103327,0.3358266165927041,0.3304366914389554,-0.9761241338867019,-1.8050543237204093,1.9369223604061798,-0.6170531266634153,-0.36996803391463273,-0.7196670116990558,-0.0573179459352621,0.01934928540535364,-0.7738970588235294,-0.6984175719034562,-0.9802325348255662,0.6255314747643217,-0.7218287821705577,-0.6984691120859992,-0.9824523176776462,0.7534155087875609,-0.5788793692340994,-0.4908396223640474,-0.6058832296207223,-0.3448106594496556,undefined,1498137056560
903d185fccf839df,-0.2675820300186262,-0.5857312705128316,-0.12609371922706503,-0.3049384276371365,-0.7928330124931485,-1.8874162212696999,1.937882248621868,-0.6684365456755024,-0.3208110197066951,-0.8483081475186784,-0.003670732831850952,-0.01586735153262204,-0.7390819964349377,-0.6993434163004383,-1.0560220861387817,1.0902713604147047,-0.6310159070398863,-0.7493163169049992,-1.0438283425165809,1.031680811318265,-0.5333116598285657,-0.48796007805587405,-0.6977647577324675,-0.4491310414354181,undefined,1498137058066
903d185fccf839df,-0.20936947149356458,-0.5205725180373806,-0.26581821402005024,-0.46106723374020525,-0.7397588115655543,-1.8444906719489442,1.9163730740462073,-0.7473971462302945,-0.3428357871422846,-0.740317541069466,-0.01793747302654524,0.012126233989700672,-0.5737104500891266,-0.7530417761636075,-1.0128641342103717,1.1811986586844974,-0.5529597040824188,-0.7588093988296198,-0.9933323584012504,1.1642768247869921,-0.48947527680016534,-0.48579952351735395,-0.7338559186886836,-0.49822293096870085,undefined,1498137059587
903d185fccf839df,-0.36321708561715205,-0.23821801166106987,-0.2575236922647693,-0.4212034493457596,-1.0228726242438428,-1.747324129024894,1.8739411579732563,-0.9415930511528798,-0.44893391531337434,-0.6027073801913405,-0.04208712181738084,0.07276758218228495,-0.5693585672905526,-0.7511901067958051,-1.016022024512762,1.2155489726204067,-0.5752655555961145,-0.7474924289044437,-0.9943119121503164,1.1356819101393085,-0.48933182566282357,-0.47777144418166173,-0.7846934376968662,-0.47811323794653154,undefined,1498137061064
903d185fccf839df,-0.5891375637750073,-0.47126325819518405,0.03915120802701797,-0.05964307258071712,-1.2680322125655872,-1.6582703266105911,1.8553931242897908,-1.0067742863698288,-0.352625361075707,-0.472654927437837,-0.07208392660411911,-0.08013842887484084,-0.5084322081105169,-0.7141567388659205,-1.0244430800436042,1.304455739006468,-0.564840365865726,-0.7481890533290634,-0.9925277251565495,1.0773833953296477,-0.5001087080025792,-0.4658793645004728,-0.810250295927164,-0.4703984272962685,undefined,1498137062563
903d185fccf839df,-0.5988395878516981,-0.4736113181876696,0.26755933269079274,0.24663800238664627,-1.3156035617426016,-1.6830091756254169,1.8829271895996431,-0.8373748196905325,-0.3887226776226311,-0.5152662241319512,-0.14915880407219836,0.01433875306952503,-0.5388953877005348,-0.6845300807841815,-1.0097062365457474,1.1428071396575168,-0.6174329591310352,-0.7214640309218827,-0.9666885018794016,1.1738546546909394,-0.46384170735721575,-0.4459339006346667,-0.8146023862247612,-0.5394939671148032,undefined,1498137064085
903d185fccf839df,-0.6265598883214228,-0.5328998037699374,0.03659967305480703,-0.030828574582506752,-1.2578493723494648,-1.8061281016004436,1.9685799638321597,-0.47558606045339136,-0.3321936687290149,-0.5818178998166894,-0.07033981821617172,-0.09145570853795994,-0.5998217468805704,-0.6743459089743497,-0.8297060328509968,1.379218273441419,-0.5308653499717075,-0.7273346689523018,-0.8990013533483193,1.1802604181337135,-0.4529957892468894,-0.48259241443462936,-0.8939832200741087,-0.3250654952082321,undefined,1498137065587
903d185fccf839df,-0.6709123483697367,-0.5745779563205329,-0.21158691383479325,-0.28090331407075253,-1.2518013822427807,-1.8235345064798132,1.9641750456493576,-0.5373008501960577,-0.34056948503471884,-0.6561362706607201,-0.028944080975715755,-0.05052973357877511,-1.013250612745098,-0.650274220143694,-0.7897059859494446,2.102595793685349,-0.2472209593806674,-0.7150930889733931,-0.8576991791347859,1.701574784665589,-0.3063593316722351,-0.506560465050991,-1.0783626550697174,-0.13993367765162476,undefined,1498137067062
903d185fccf839df,-0.6944745744394044,-0.5440531618042246,-0.4112846790483077,-0.5103683475807542,-1.0540177153724548,-1.9045803854162868,1.959493995484068,-0.6128030643121115,-0.31138347925068643,-0.7944811376351875,0.044700853943750465,0.002883303004298054,-1.0088987299465242,-0.6428675232463229,-0.7939165210770994,2.2036262036093452,-0.1984603400687447,-0.7495886326526272,-0.8705523205806664,1.628524558956838,-0.34112763963440695,-0.4929262551088984,-0.992723088688036,-0.12732102436327264,undefined,1498137068556
903d185fccf839df,-0.5115206465478764,-0.39906029651428404,-0.3768323493627751,-0.4891551389826484,-1.0026406589833872,-1.8072810752792101,1.9424055231496002,-0.536873529679385,-0.45863046143643615,-0.737918314204917,-0.034148843550608245,0.02613657315372517,-0.8870460115864528,-0.6678650694247351,-0.8097059946757531,2.365274859487739,-0.22376708270321355,-0.7795814544790322,-0.8615334313361613,1.7597501108077702,-0.3158038180122798,-0.4903305170960369,-0.9729505157075011,-0.19018161298523553,undefined,1498137070067
903d185fccf839df,-0.4352898461351906,-0.30220271952628197,-0.33408549792196157,-0.4839152024620078,-0.8864328545829622,-1.833710952054088,1.9359940549725791,-0.5763363614909992,-0.4779398978506629,-0.7247073122499322,-0.054318676213268184,0.10948199475907319,-0.6128773952762924,-0.7048984049776834,-0.8202323030459551,2.6400774840339003,-0.05449587216188711,-0.8002141854672018,-0.8440344073213575,2.105399020358136,-0.2400683339099797,-0.481283818248542,-0.9104863196192131,-0.12448368301951038,undefined,1498137071553
903d185fccf839df,-0.5018186224711857,-0.4624580039953709,-0.3232389329205709,-0.5115839029086171,-0.9877469673590824,-1.7594501472614041,1.922342716385944,-0.6405756839315854,-0.42152879020411904,-0.7367722044173066,-0.04603309663020327,0.05546327288838822,-0.6999150512477719,-0.7317475751961872,-0.8886534731025281,2.906797867986248,0.11902294390978824,-0.8165341817390908,-0.8992882230163404,2.025327095246558,-0.2687830702502572,-0.46048253028983815,-0.7816971653820542,0.017235303622143906,undefined,1498137073051
