UUID,iqrAccX,iqrAccY,iqrAccZ,iqrAccXYZ,meanAccX,meanAccY,meanAccZ,meanAccXYZ, covarianceAccXY, covarianceAccXZ, covarianceAccYZ,pressureDerivative, pressureIQR, iqrGyroX, iqrGyroY, iqrGyroZ, iqrGyroMagnitude, meanGyroX, meanGyroY, meanGyroZ, meanGyroMagnitude, covarianceGyroXY, covarianceGyroXZ, covarianceGyroYZ, class, timestamp 
903d185fccf839df,-0.7762495315611825,-1.0083825075801156,-0.577805882062395,-0.707662908073889,-1.1204107428812737,-1.489845627899911,1.9089304137761163,-0.4368533577778081,-0.35308802034288705,-0.5969960827507899,0.026832989647647444,-0.4271210630102508,-0.6476924576648841,-0.7613742721302498,-0.9097061413785685,0.15068859051862138,-0.7571903986510363,-0.7043910272895206,-0.7630501543043452,1.5241206180152849,-0.3237483970113066,0.14628876790513726,-0.9036740495465024,-0.7776483336032787,undefined,1496159765332
903d185fccf839df,-0.4449920427389301,-0.6426718130145832,-0.1088673002473493,-0.26251362933144645,-1.01336863869191,-1.6677736212893672,1.8429883293052722,-1.0849602837517565,-0.4355763310140156,-0.02072165035360447,0.008233809432850153,-1.03914942777109,1.8546401515151516,-0.4762174614549574,-0.7254953583827602,0.1668534674123494,-0.5992261112116679,-0.6199540213171117,-0.7381125667769817,0.9186426403342954,-0.45504267188929526,-0.08798197097661206,-0.6244173097386042,-0.4666536761310457,undefined,1496159766781
903d185fccf839df,-0.5718123285364909,-0.45776191323839216,0.2822337084243987,0.20288150263273014,-1.1057547693129883,-1.754595547565711,1.987276322202054,-0.26112584788346643,-0.3365483488071686,-0.33517740197336104,0.18312022666949213,-0.6891843326215433,3.3799750724153297,-0.3706724240471959,-0.9370745828971561,0.005204868063398404,-0.5960009350293463,-0.46983272105766233,-0.8573354423237791,0.5778224784223992,-0.4768506296918914,-0.2816877193094363,-0.6823873913815397,-0.422544814406193,undefined,1496159768283
903d185fccf839df,-0.5018185534603662,-0.5933624654884097,0.9834084797723839,0.8960787322843582,-1.097526215101504,-1.8360122406939872,1.9565985823943548,-0.5663223236931297,-0.33088401083477964,-0.5715998640152656,0.2400889925483943,-0.36637008073578564,1.4542669340463459,-0.19476397008910798,-0.9876009381689101,0.0536994422151394,-0.5876459986037325,-0.34493849428967543,-0.8742725653985549,0.32063495070346576,-0.45613471383180726,-0.3692939690545777,-0.7952365267264986,-0.4044738016217743,undefined,1496159769797
903d185fccf839df,-0.6764564705734192,-0.6350405595830205,1.455536988576592,1.4384895290847743,-1.1337010112197026,-1.8840830805247415,2.065746046435368,0.09069513339647327,-0.30481044379850625,-0.9429552634313757,0.25514473888720385,0.00542476582812863,0.7710213346702318,-0.2706823170381941,-0.9476009133540594,0.07794672929100989,-0.5675184013967031,-0.33276620471096946,-0.8736943003320814,0.15192686500142727,-0.4821645438607904,-0.34492557740395063,-0.7443311911937969,-0.4332808217821379,undefined,1496159771340
903d185fccf839df,-0.5406269258104073,-0.5370089672127718,1.4880751587590677,1.5401254819343269,-1.0287560455025115,-1.8782064099848805,1.9863337884894305,-0.36332956450300397,-0.33158695366967345,-1.1374431122213178,0.1329206274025481,0.15776436557589055,0.3662962344028521,-0.2216131273568371,-0.9160218778099467,0.07592611261311351,-0.5781657706413417,-0.30219783107565473,-0.8819151420377452,0.16454815654981755,-0.4759019685899652,-0.3835853929690793,-0.6865608462775311,-0.4227225640160229,undefined,1496159772843
903d185fccf839df,-0.553101045494349,-0.4741982747298063,1.4459666993352056,1.4190766631336287,-1.0033195142837428,-1.8800115698917172,2.02978080974687,-0.04426775359097314,-0.42164455335213874,-1.1835826577072286,-0.04099199961011395,0.11082244957746029,-0.669451871657754,-0.16606311107664015,-0.8560218369065536,0.10017348448314861,-0.5588662498838693,-0.1754566274052263,-0.8382970235586069,0.016507502567711115,-0.43867301202443687,-0.3605524970026975,-0.5109677592342186,-0.42921285104147655,undefined,1496159774294
903d185fccf839df,-0.43113190975677257,-0.44191244983313,1.590795026483461,1.579135371953405,-0.9571573034304329,-1.8607976752343212,1.9607668093614938,-0.45022717901982007,-0.4418134534866555,-1.2558339771025813,-0.07426873836773124,-0.08476793373649422,-0.7216744652406417,-0.13273304950542378,-0.8686534349272844,-0.04935154198967098,-0.5415020914803423,-0.20404986867892752,-0.8672008491311168,-0.11410211123651041,-0.4794518998435662,-0.37264902424256136,-0.5037578126449636,-0.44721523871567836,undefined,1496159775840
903d185fccf839df,-0.4020254579671931,-0.2746129707725882,1.05295178529735,0.9906164618193817,-0.9800532619132502,-1.788989559543263,1.912544063966551,-0.665749255493798,-0.4700232354235169,-1.0680496172589542,-0.1353358095280525,-0.011587848444631055,-0.8609347147950089,-0.2716081420090144,-0.8528639466041632,-0.10996978794406875,-0.622933635178889,-0.2947439553153978,-0.8927462052870756,-0.1010288300833269,-0.5350139129755203,-0.3176402811316602,-0.49170335149557587,-0.4433610322720336,undefined,1496159777286
903d185fccf839df,-0.2731261867277184,-0.30455079413276365,1.1856577799581092,1.1580602613404316,-0.894548267477775,-1.77204201399928,1.8011901880106465,-1.3558945078516371,-0.531151304963047,-0.9614610506681655,-0.11973143667834957,0.03176486502408515,-0.7738970588235294,-0.23827811929012166,-0.8486534041142746,-0.07157822652000585,-0.6288424459879307,-0.296149868047719,-0.8992112585860619,-0.059668605628063455,-0.5329817792896242,-0.32000933509269774,-0.5047603291013659,-0.5092035292990037,undefined,1496159778789
903d185fccf839df,-0.09017225883619041,-0.3127690041064631,1.3253825288880439,1.2147144412061779,-0.8167164016166287,-1.7655341194080376,1.791307378214091,-1.369647455819569,-0.5781665990947573,-1.102877241678916,-0.1459136428849325,-0.028389267596954395,-0.6215811608734403,-0.2929023235502729,-0.8760218677195635,-0.14229955586388557,-0.6838131861609712,-0.32457211788215096,-0.9374348355367266,-0.006266796618407142,-0.5482939002201656,-0.36524608151122656,-0.5395978954187091,-0.5091261635621729,undefined,1496159780311
903d185fccf839df,-0.13591074943542483,-0.4788943654867851,1.4638307479210246,1.3157984769480293,-0.910881960394431,-1.8182774123895038,1.7777665034194294,-1.5645774334579325,-0.517866728142217,-1.193046565791291,-0.15118595889436667,0.0009801260032708964,-0.7869527072192514,-0.24661064763370028,-0.9476008986295918,-0.25545358106109556,-0.7085730046075295,-0.3165039485064101,-0.9561862885883484,0.031921349246142074,-0.5416730365589167,-0.36240748738365336,-0.6052781655495767,-0.5431546519846399,undefined,1496159781817
903d185fccf839df,-0.21214153259540583,-0.524094608026109,1.4695729722932465,1.3542115406402715,-0.8959677009889903,-1.8403166748990607,1.885346600929784,-0.9001393530339326,-0.46766850170704144,-1.1492427890372372,-0.11007098843580715,0.08813632340506801,-0.7564895276292335,-0.2530915130848639,-1.0023378111157022,-0.3201129473124,-0.7340954470810493,-0.33009444653503317,-0.9811089281847911,-0.04108268118011933,-0.56288339737744,-0.38634468658732,-0.6584314226157355,-0.5872006208378012,undefined,1496159783332
903d185fccf839df,-0.05552189187538687,-0.44308647982937277,0.8685662795604943,0.7833671903011277,-0.8439220691750895,-1.7846315533304302,1.8845524034263281,-0.8037879166975221,-0.4238693922713201,-0.8184675047081463,-0.13992611197790963,0.030521280457004966,-0.6563962232620321,-0.3114190301790707,-0.9254956002527546,-0.3039480986833935,-0.772570369138686,-0.3502585383401292,-0.9257081802076795,-0.08165758534841606,-0.5647573434270178,-0.4093580114614672,-0.6157372961472042,-0.6197902346595215,undefined,1496159784767
903d185fccf839df,-0.05967993177003413,-0.2605246400456673,0.18525606507222703,0.11871944179249626,-0.7170068533974207,-1.5656527872026496,1.877154761045483,-0.46707375026450443,-0.27565854899218317,-0.5701576189934123,-0.07074897530300248,0.027932007628431794,-0.7303782308377896,-0.5613941681938297,-0.8676007753775524,-0.24535046940689212,-0.8642060375804592,-0.514972068784417,-0.9062290593937701,-0.12953135272556401,-0.6490003943836605,-0.40033555605434207,-0.5994840966616151,-0.5639881055335378,undefined,1496159786279
903d185fccf839df,-0.2703541256258772,-0.48711260468847684,0.004698878341485356,-0.06819869697016656,-0.7576559235322602,-1.3261767180778794,1.807120414200321,-0.538714941909755,-0.3443957310734217,-0.23566017561226227,-0.0036461726795632967,-0.06861271710907027,-0.7173225824420678,-0.7169342396799303,-0.8644428997996296,-0.32213356399029636,-0.8940258622044969,-0.7373977165885577,-0.9278841896932603,-0.34497100750135706,-0.8015818268960465,-0.3874113604962868,-0.6108284469976405,-0.5043133760709593,undefined,1496159787764
903d185fccf839df,-0.3923234338905023,-0.35386008320295254,0.016183072948979367,0.021767778554656936,-0.8961939748368447,-1.2937839884631306,1.7644044720206444,-0.7465384858774581,-0.32990768060878145,-0.14736842193221858,-0.03700153837001046,-0.05756292572362395,-0.852230949197861,-0.7974818150893141,-1.0128641121236703,-0.5848126580574082,-0.9914423508170479,-0.8794519760002066,-0.9893301813747299,-0.517695368941519,-0.9187223115268337,-0.41095226342183755,-0.6712599384025174,-0.5290276445285842,undefined,1496159789254
903d185fccf839df,-0.289758277295488,-0.4606969297730144,0.05127354051451414,0.19109356159209956,-0.7011360221608796,-1.3133332895160303,1.7814350928689984,-0.6514192663625001,-0.37746811756932974,-0.19788450251664227,0.013074532505265402,-0.06306517585521358,-0.9436204879679144,-0.7984076271093599,-0.8939166015198108,-0.7565642418693158,-0.9548148869410809,-0.8780270650015934,-0.9090697640958678,-0.5748389995215076,-0.8975259452778368,-0.397416459586683,-0.6555504535691655,-0.5250209494121724,undefined,1496159790899
903d185fccf839df,-0.10541837061115396,-0.4653930497579855,-0.013165424381283108,0.14511057803906205,-0.7514742255756939,-1.3468766642729715,1.8107179769584143,-0.5372093524236246,-0.45355341328166093,-0.24440211754770183,0.000005014931960994058,-0.06515162997119829,-0.36917195855614976,-0.815072631993419,-0.9212850724873335,-0.6959460383120004,-1.0008659277429754,-0.8726123980356166,-0.9046337859266498,-0.6558502188469891,-0.900554424129362,-0.41414071979182177,-0.6673179000642382,-0.5230721286254946,undefined,1496159792320
903d185fccf839df,-0.15808697945958175,-0.5904273612698104,-0.13949181920066667,-0.11916134321980018,-0.9290464982475547,-1.404127036161662,1.8008062440376067,-0.7916903997918422,-0.3024414351675641,-0.5578816267838045,0.03850751052560349,-0.06259742698084719,-0.3909313725490196,-0.9011751896046606,-0.9539166865966066,-0.6292659635224546,-1.0569408647180203,-0.8987231254431468,-0.9528907912404373,-0.7252664105688288,-0.944908362554989,-0.4409817711146023,-0.6757864100130337,-0.5073786300395041,undefined,1496159793789
903d185fccf839df,-0.5614172460525776,-0.5616636263618624,-0.11843758948873569,-0.10636420010554719,-1.1619969631423654,-1.447346070730158,1.8198065913465582,-0.8306935762050577,-0.4551978698086868,-0.3967732658832633,0.01961328303525059,0.01556405200211529,-0.3909313725490196,-0.9011751896046606,-0.9686535300944633,-0.6656369012024407,-1.0550751519249089,-0.9028268732173935,-0.9685006762879529,-0.7337355558066079,-0.9537781074462975,-0.4403219910022625,-0.6724807682191911,-0.5153766590751019,undefined,1496159795696
903d185fccf839df,-0.5586452194561461,-0.5616636263618624,-0.10184905425207269,-0.10628249806061181,-1.1610712504769212,-1.4437194455474702,1.8233962777882833,-0.7989001918129435,-0.45830791200756865,-0.40777386514356556,0.017954497702567886,0.008414240052112835,-0.3125974821746881,-0.9030268589724629,-0.9686535300944633,-0.6656369012024407,-1.0515688935372123,-0.9013006337191654,-0.9671922726845995,-0.7329040395640362,-0.9529504579628599,-0.4410201187101297,-0.6714757355335877,-0.5142078031711654,undefined,1496159797697
903d185fccf839df,-0.5586452194561461,-0.5581415363731341,-0.12481744346706071,-0.1063121073376792,-1.153881548068985,-1.445552556884862,1.832445440410624,-0.7428143374892512,-0.463911400232851,-0.3875213336973134,0.016155868762393923,0.02224793397788631,-0.3125974821746881,-0.9021010340016427,-0.9686535300944633,-0.6696781345582334,-1.0475518570593363,-0.8994387481119122,-0.9678079919928108,-0.7353831893481998,-0.9522508823121503,-0.4418653215051369,-0.6723608013227348,-0.5137179259505683,undefined,1496159798715
903d185fccf839df,-0.5572592061579303,-0.5557934763806486,-0.12609371922706503,-0.08532852037473758,-1.1624906761200868,-1.4443413522777473,1.8415787567438016,-0.6820622025304662,-0.467619641444104,-0.3851077020960074,0.01622187435693501,0.04976052108073813,-0.3125974821746881,-0.9030268589724629,-0.9707587976582908,-0.6696781345582334,-1.050008657961859,-0.9012626357138277,-0.9707186653909132,-0.7377699482712134,-0.9542449353517891,-0.44244266818477257,-0.6726305869569199,-0.5134824057683002,undefined,1496159800691
903d185fccf839df,-0.5586452194561461,-0.5581415363731341,-0.12609371922706503,-0.0784279960181904,-1.1605878222259853,-1.4467404686585503,1.8421652023924338,-0.6856034439982662,-0.463235471501469,-0.38810614372895647,0.0200918944234202,0.11312381403612826,-0.23861547459893048,-0.9039526839432831,-0.9739166953229149,-0.6696781345582334,-1.05205825828239,-0.9026875480689242,-0.9729506481156267,-0.7386784564852328,-0.9557377361606947,-0.4427568232415215,-0.672252615216493,-0.5125408315868927,undefined,1496159801781
903d185fccf839df,-0.5586452194561461,-0.5921884062641746,-0.11078145975040635,-0.06889258847245629,-1.1628198188734347,-1.4532786428155406,1.8456444370886855,-0.6801594926067981,-0.46119604113242824,-0.38687747197178446,0.0220792071721053,0.1774930654531143,-0.09065145944741532,-0.9058043597864728,-0.9781272525372712,-0.6676575108141567,-1.050008657961859,-0.9008889922195716,-0.9753715446911911,-0.7332274067164735,-0.9548987779497755,-0.44366609359910103,-0.6712858654412911,-0.5129475046427981,undefined,1496159803724
903d185fccf839df,-0.5614172460525776,-0.5921884062641746,-0.11078145975040635,-0.06889258847245629,-1.157728398925415,-1.4532669970946759,1.8450606217672776,-0.6831900848451714,-0.4550644548437883,-0.3879616583687238,0.021122131279768624,0.1798963916945635,0.23138786764705885,-0.9104335364436722,-0.9791799047247693,-0.6676575108141567,-1.0535149163495556,-0.9018642655569633,-0.9764000758839456,-0.7345824698080482,-0.9558480056509493,-0.444332659401442,-0.6721378081094849,-0.513906086189261,undefined,1496159804748
903d185fccf839df,-0.6057696715954817,-0.5921884062641746,-0.12481744346706071,-0.07244967521554922,-1.177816364399325,-1.4535744563724355,1.8360246107810594,-0.7464640859965866,-0.4525625964260123,-0.4169533913482261,0.020689208956878046,0.2131479008861967,0.5012046011586453,-0.9122852122868618,-0.9833904251279566,-0.6716987441699495,-1.0581134327468995,-0.904942076195249,-0.9810809424644327,-0.7350136256882026,-0.95796148723085,-0.44724745255813164,-0.6769985056172994,-0.5208332556498225,undefined,1496159806752
903d185fccf839df,-0.6168577779812077,-0.600406616237874,-0.12481744346706071,-0.07244967521554922,-1.1888529169595072,-1.4557010515658708,1.8375735665924295,-0.7439923810453307,-0.45398815147174304,-0.4024109401024721,0.02423388970217492,0.21068324358867777,1.3150066844919788,-0.919691889758071,-0.9886535829941745,-0.6818017992947099,-1.064075546428813,-0.9064809814147321,-0.9841525423108357,-0.7378623380553787,-0.9601145268191953,-0.44844762088279255,-0.6780821083813856,-0.5243162054859887,undefined,1496159807808
903d185fccf839df,-0.6154717646829919,-0.6015806462341168,-0.12928364621622754,-0.0784279960181904,-1.190766056284578,-1.4575923938270807,1.8425701973634443,-0.7194592313533952,-0.45547630153597635,-0.40964936250504697,0.03333131384914194,0.16399806402562378,2.250661486185383,-0.9224693905720809,-0.9981272612635796,-0.6979666196589949,-1.0649161411119739,-0.906968618083428,-0.9883086480816891,-0.7419583243556186,-0.9626588206109082,-0.44772358234922044,-0.6777664800010079,-0.5274102466784992,undefined,1496159809749
903d185fccf839df,-0.6043836582972659,-0.6156690061890301,-0.12736999498706933,-0.06889258847245629,-1.1810563590164556,-1.464200445523934,1.854880319423271,-0.645399403688365,-0.47602452827223535,-0.369355532426772,0.012424824177149112,0.16393811543753298,2.294180314171123,-0.9224693905720809,-0.9981272612635796,-0.6979666196589949,-1.0649161411119739,-0.9070382804583426,-0.9878328649665432,-0.7418813321149248,-0.9624353698067399,-0.4479816744484407,-0.6777801716749667,-0.527520748204232,undefined,1496159810746
903d185fccf839df,-0.6057696715954817,-0.6197781111758798,-0.11078145975040635,-0.05986584404551927,-1.1802746462895963,-1.470389233674116,1.8548855790301988,-0.662547378904086,-0.4695116833376529,-0.3709462555458361,0.01248407644544462,0.14506340805023693,2.3551066733511585,-0.919691889758071,-1.000232528827407,-0.7060490581058588,-1.0649161411119739,-0.9074182570457661,-0.9873990626799551,-0.7380471192526488,-0.9617454320326182,-0.44798449795706224,-0.6787287463240907,-0.5291936273563447,undefined,1496159812677
903d185fccf839df,-0.6071556848936974,-0.6197781111758798,-0.10631525700123952,-0.053881503840890084,-1.1763455100008964,-1.4722060403528385,1.8496996024098016,-0.6995056845905206,-0.4615174151440393,-0.36577589955575796,0.0034892077079036066,0.1456056653586483,2.324643493761141,-0.919691889758071,-0.9981272612635796,-0.6999872575354323,-1.0649161411119739,-0.9082668714431701,-0.9879658043793171,-0.7332582028265521,-0.9613594118153754,-0.44748820605505923,-0.6791697460671056,-0.5309453398025294,undefined,1496159813726
903d185fccf839df,-0.6071556848936974,-0.6238872161627295,-0.12481744346706071,-0.09130102270611298,-1.1797192188055599,-1.477113747251223,1.8465780230796491,-0.732704539003552,-0.4576174144551628,-0.3635268412951899,-0.0022304226204325687,0.1406971013729695,2.124456885026738,-0.9345051993727788,-1.0076009689819199,-0.6898842377415739,-1.0685063023909276,-0.9114270102662118,-0.991401238660458,-0.7303017013547143,-0.9636079005967194,-0.4498121258567792,-0.6781477351055042,-0.5297980120931461,undefined,1496159815749
903d185fccf839df,-0.5600312327543618,-0.6238872161627295,-0.12864525419927597,-0.09724973423168679,-1.1758517968951414,-1.478262061996715,1.844939652902993,-0.744812668557192,-0.4584564300885402,-0.3611604643680878,-0.00323643665803736,0.11946341483082391,2.0156598150623886,-0.9345051993727788,-1.0107588666465441,-0.6797811826168135,-1.0685063023909276,-0.9096031224871232,-0.995641305892681,-0.7288234505918708,-0.9643361681981695,-0.45260240842849686,-0.6768169279514814,-0.5290099936907658,undefined,1496159816738
903d185fccf839df,-0.5614172460525776,-0.6268222911533364,-0.14523378943593895,-0.09733143627662215,-1.170708948639976,-1.4739902374822733,1.8400824011917911,-0.7687929310344805,-0.4620910089798049,-0.35142109308141656,0.002453758056991122,0.14412766759757373,1.9155665106951874,-0.9335793679265713,-1.0128641342103717,-0.6757399492610208,-1.0711837998247997,-0.9112496877989517,-1.007654830015009,-0.7168742568178541,-0.9688511789043268,-0.4558059234079011,-0.6746093217670148,-0.5210186650029055,undefined,1496159818744
903d185fccf839df,-0.5614172460525776,-0.623300201164608,-0.17968662739537042,-0.09733143627662215,-1.169340950727806,-1.475483279760668,1.8382073497509288,-0.7833916260791377,-0.46140706479118326,-0.349605151824571,0.0027169504446675854,0.12045069151010532,1.5369527072192515,-0.9270985478031185,-1.0128641342103717,-0.6777605588727367,-1.0711837998247997,-0.9079945545826721,-1.010397580123349,-0.6999205676276031,-0.9675047687762428,-0.4472820624712931,-0.6638848298295882,-0.49194950372162155,undefined,1496159819666
903d185fccf839df,-0.6085416981919132,-0.6191910961777584,-0.15289042744816714,-0.07779029547211175,-1.169968379173394,-1.473966945112746,1.835869452900465,-0.7929262710998932,-0.46036213857729524,-0.35016642467978815,-0.0013533627355015157,0.09301518698657858,1.1626907865418896,-0.9169143889440612,-1.0128641342103717,-0.6676575320126978,-1.0711837998247997,-0.9075702472732368,-1.020626917025579,-0.6937611896644855,-0.9717610376728005,-0.446807905278502,-0.6644549162588875,-0.4895512912865303,undefined,1496159821676
903d185fccf839df,-0.568347226280132,-0.6549991279751324,-0.1382160517145612,-0.09907984103682492,-1.1215947471757821,-1.498356408555669,1.8737859948550533,-0.6005427936277564,-0.42360721138462665,-0.3762932793493352,0.020872071131403623,0.07050295488064849,-0.504080325311943,-0.9039526968940577,-1.0454957483196445,-0.6353278064899633,-1.0685063023909276,-0.8891477137668937,-1.02645526088346,-0.5691723678412897,-0.9436510470483858,-0.42952618228815664,-0.538060812514489,-0.42940203781464653,undefined,1496159822264
903d185fccf839df,-0.6376480637179683,-0.5417050579697505,0.03404712153479841,-0.009604702050514493,-1.0740953991923792,-1.5850972757692974,1.8880526927868768,-0.612841982878269,-0.42494989323698285,-0.3514338438424247,-0.06904004538027941,-0.3708923143306734,-0.504080325311943,-0.8669193354395603,-0.9591798371005906,-0.4049785368721113,-0.9163257364537268,-0.7919623598389499,-0.9269046361460572,-0.18382627235191876,-0.7837358437034403,-0.26526698070017674,-0.327549934139855,-0.33935535990693766,undefined,1496159823780
903d185fccf839df,-0.7111068375342227,-0.2405660424255631,0.6433485901597809,0.5481534977059913,-1.0514565835176233,-1.720824373405437,1.8583174720264954,-0.9591530569155593,-0.3512118178111763,-0.5175267002110356,-0.1963562675619673,-0.5039572809460263,2.742424242424242,-0.5882433643138826,-0.9560219394359664,0.05167883966960378,-0.3762096025281067,-0.5684284462877693,-0.9198308602457466,0.1355220893202453,-0.6206022436883485,-0.30990224743438854,-0.12642999130119645,-0.39842562069546883,undefined,1496159825316
903d185fccf839df,-0.6944746779556337,-0.4066915499458468,1.3215544640188792,1.260067500114809,-1.0449045951742935,-1.8427530594534618,1.9039814265077242,-0.8277550789600511,-0.3108821775711167,-0.8687342913279082,-0.2509841272046687,-0.45421970643402737,2.790294953208556,-0.2503140252216286,-0.9033903018759173,0.13048262159270826,-0.38460693025068665,-0.4309845680516984,-0.8940755993169419,0.3416148832271936,-0.5114795475552634,-0.34443532060959664,-0.18018467033700664,-0.43240638559907785,undefined,1496159826798
903d185fccf839df,-0.5461710997722043,-0.34681593245348824,1.84663799724834,1.6572164579471889,-1.1052302055601966,-1.8231455231621205,1.8206770568167858,-1.2962602911434744,-0.42503025911047465,-0.7456892645746039,-0.38787773703192374,-0.36132875895553446,-0.7651932932263815,-0.22439067997394513,-0.9065482142650091,0.15068864704806445,-0.373868700543709,-0.35703478453700915,-0.900281770723598,0.5135231278529786,-0.44657046138862155,-0.3665140661820333,-0.24857854363752077,-0.45853655433216295,undefined,1496159828286
903d185fccf839df,-0.4643961944085409,-0.38262390579487754,1.9168189323794096,1.9157506077512612,-1.0082772244953886,-1.773024953081953,1.8772362990944003,-0.8176660373172253,-0.49443150711986955,-0.42186871605837606,-0.2175546535384907,-0.003051731120154739,-0.8087121212121212,-0.21050308524847408,-0.8844429158881718,0.14664744195699322,-0.45553207308534105,-0.23252911094807988,-0.8690620007631422,0.47987752588561106,-0.3769432995541001,-0.44114615164973525,-0.40532131983567243,-0.5356519040920157,undefined,1496159829786
903d185fccf839df,-0.45885210671026816,-0.21591141250446483,1.8798145594477673,1.8234128433477375,-0.9969526686371443,-1.7326312865033378,1.8926706213839077,-0.6297107331138928,-0.4527856675370709,-0.6038697423241448,-0.26120403501817585,-0.03835437975252419,-0.5432472704991087,-0.22253893937688282,-0.9833904251279566,0.019349184808673113,-0.5991879984481949,-0.23852640882096346,-0.9905896082072716,0.29451104395154,-0.4725991338986077,-0.4669999266964478,-0.3218229297911846,-0.48755867144220877,undefined,1496159831275
903d185fccf839df,-0.38123536201018604,-0.22530368170239937,1.4325680910877052,1.349510994563716,-0.9783252745613271,-1.6445767284831878,1.882766773159643,-0.5769462148679185,-0.5369941411168053,-0.6224116232624988,-0.18841305184232474,-0.1858499128327088,-0.7564895276292335,-0.25957231378215473,-1.0128641342103717,0.027431552593733283,-0.6225057281381804,-0.35985927709046267,-0.984138549049989,0.000970476335784214,-0.5719667126172322,-0.46895688253491985,-0.44304362679308745,-0.46581675656475463,undefined,1496159832758
903d185fccf839df,-0.5905235080624035,-0.2763741034509294,1.1856580340950587,0.9873971693153036,-1.1556815483575784,-1.61258695635523,1.8416813190788839,-0.8524277419408529,-0.4971624789328319,-0.7102511968977905,-0.33006228556741635,-0.08552359271354372,-0.49102467691622104,-0.23735230727007595,-1.0086536138071844,-0.008939349755350927,-0.610985272402328,-0.33890990199680976,-0.9960751082220884,-0.06742941680191739,-0.5733703046937401,-0.461083757566154,-0.47665822593990387,-0.4676287700360661,undefined,1496159834292
903d185fccf839df,-0.36737516001720905,-0.29104941994797945,0.839855920110234,0.7476962913963512,-0.8937665587379546,-1.6579768408654276,1.8224179903760456,-0.997782804060744,-0.7181582087775701,-0.6566557943775994,-0.18871919505781087,0.007962610817069485,-0.40398702094474154,-0.26790484212573334,-1.040232583091193,0.09007042935838822,-0.6793000172056353,-0.39578607038707014,-0.9877698929284887,0.061024412499316734,-0.5729683564684913,-0.4765061432461716,-0.5811309181828205,-0.4166263278218727,undefined,1496159835775
903d185fccf839df,0.060903397701784996,-0.5129412646058179,0.3849538302857415,0.2934840630086001,-0.5851647916190756,-1.795322760416226,1.8853624027960452,-0.7806225150525489,-0.5842685598775564,-0.6360280826321494,-0.05816239529926413,0.003079588927622035,-0.5345435049019608,-0.3632657336252121,-1.0086536138071844,0.1607916739081033,-0.7454631216587115,-0.5194684606280018,-0.9870282306268885,0.03949738019201219,-0.6254533974079562,-0.4791019431130222,-0.6353322065251283,-0.38327586985400014,undefined,1496159837273
903d185fccf839df,0.6069930512637082,-0.5340738922221648,0.1112468109350434,-0.003099445714004581,0.008906216070752962,-1.8431560181656894,1.8999262622341293,-0.5788236280667813,-0.5413577013453613,-0.5236485212109545,0.15131600373138748,0.12597959923628224,-0.3996351381461676,-0.4336290918970531,-0.9370745608104547,0.7689946936005344,-0.5271236839861941,-0.5486506651986206,-0.9452992509621119,0.5357122849813041,-0.5306204358230964,-0.4203980845250766,-0.5635350209853799,-0.26866587736183967,undefined,1496159838773
903d185fccf839df,0.5598686681351921,-0.5874923155071958,0.13740512713919395,0.13705251317253142,-0.06732108506743822,-1.871516834650382,1.9116104942121745,-0.5992066761955246,-0.44183849164215094,-0.24870901794682604,0.17412320061662803,0.045072125267729204,-0.7260263480392157,-0.41326073532661484,-0.8844429085259381,1.0377354963777279,-0.5576819963454045,-0.5463961366736558,-0.9027376498426318,0.804076394144296,-0.4689189765043732,-0.41843176231440016,-0.5743187309736797,-0.27725302095840965,undefined,1496159840275
903d185fccf839df,-0.018099429307332358,-0.27402598500245917,0.3932478437671236,0.4104976786906629,-0.4558530002493126,-1.7630814327446,1.873475671761212,-0.7728174507077282,-0.633958921305291,-0.1323632700979175,0.06054734006809082,0.011240654498646453,-0.5954698640819964,-0.5771333351562941,-0.9076008222791045,1.0781476038178832,-0.602430859280543,-0.6444174372956222,-0.8874216313657698,0.7880774078582123,-0.5197364263548503,-0.39752826071013125,-0.509484653730031,-0.283063486509226,undefined,1496159841773
903d185fccf839df,-0.5489430401051115,-0.41256169992706065,0.501072052120686,0.40064341574306384,-1.0864896600826812,-1.6834400857700116,1.914550613437009,-0.547747720562724,-0.5404398997943904,-0.23770466377791,-0.18179409151290357,-0.05991684724003356,-0.5432472704991087,-0.6613842233997334,-0.8823376409621106,0.8073861984951543,-0.573101609936514,-0.6679696547044995,-0.8993092133449804,0.527905274459343,-0.5801870618363548,-0.39458652749203504,-0.4583876827448043,-0.30772787052022155,undefined,1496159843256
903d185fccf839df,-0.54617101350868,-0.3902550423144709,0.8532537659468862,0.860755642482751,-1.2377922599056126,-1.743066279647668,1.8294185340051627,-1.23259565417209,-0.40051807340940426,-0.3740643336563034,-0.13878503205809045,-0.1440743768468175,-0.7216744652406417,-0.6576809105656778,-0.919179804923506,0.9367051005860922,-0.5925118405269755,-0.6720734020247395,-0.9049276529071464,0.4941826829168192,-0.5876193923135183,-0.4123726426691516,-0.504944654782957,-0.3754327842789769,undefined,1496159844815
903d185fccf839df,-0.6265598883214228,-0.4143227156934325,0.9074848119951937,0.977235353748999,-1.3144001324043755,-1.7168739839039657,1.7866894464744942,-1.489537765445849,-0.4661122251835733,-0.5384677851821276,-0.07355246744503047,-0.05077751563491731,-0.6476924576648841,-0.699343409825051,-0.9539166865966066,-0.07966066496686987,-0.7616861153160279,-0.7449782507019157,-0.9799124748216963,-0.13881661326994146,-0.7716332953691086,-0.4559088870945438,-0.6759016690088329,-0.43567418595510177,undefined,1496159846284
903d185fccf839df,-0.5974535745534824,-0.1360773435319638,0.5763568196070256,0.8178338031437528,-1.3350846691007234,-1.6108912717820671,1.737677752707805,-1.6299059228272257,-0.48656577014213687,-0.6341998766368333,0.06651682210060116,-0.03281329325711051,-0.8696384803921569,-0.7224892736848864,-1.022337838247595,-0.3463808793308884,-0.7992571369225167,-0.8034756512783486,-1.04387032346748,-0.3331603942571969,-0.8632699981284709,-0.45114382799480107,-0.6142742021330959,-0.4704502202935165,undefined,1496159847790
903d185fccf839df,-0.5641892553963043,-0.29339747994046494,0.14569964889447487,0.21328693490806824,-1.3120138515456734,-1.4459508541422703,1.6945121125645615,-1.626220444952537,-0.39672300109211056,-0.7301649423642214,0.098647744078326,-0.01587209255076208,-0.8957497771836007,-0.8206276595229877,-1.0886537002480547,-0.3908342342591974,-0.9323783205659466,-0.8480595746398447,-1.0797849532570354,-0.3952007305429537,-0.902085852427261,-0.45434047361263263,-0.6655080728638009,-0.4952413307482678,undefined,1496159849294
903d185fccf839df,-0.38123536201018604,-0.3468159032254959,-0.04378994333460047,-0.06196183128649328,-1.2292242792138552,-1.3298708888127015,1.7288179390774119,-1.1541577700319348,-0.47401056895718624,-0.5349660822616212,0.02724579778964729,-0.12075683576164462,-0.7390819964349377,-0.8937685315596131,-1.1023379173262318,-0.45751435851200584,-0.9866310837557742,-0.8969119017464596,-1.104700596330103,-0.367421934096265,-0.9310485839009695,-0.46357311805379686,-0.6637786229304452,-0.5097041940803196,undefined,1496159850777
903d185fccf839df,-0.48241443629616515,-0.423714984891367,0.005974645827590823,-0.10622345632254387,-1.1680243823791092,-1.4584751713413804,1.8009771849290699,-0.9436732089928562,-0.3482308871025049,-0.6143910127826431,-0.06371210138504751,-0.05290894948071443,-0.34741254456327986,-0.8919168686671981,-1.1233905819211552,-0.5787508080237191,-1.024423793989143,-0.8782233844395662,-1.1263487296902586,-0.4973694161867632,-0.9587131837700414,-0.45650435639844267,-0.6797309259221928,-0.5067552512690315,undefined,1496159852297
903d185fccf839df,-0.7208088961163233,-0.4289981198744595,-0.1369397759545569,-0.17150637289197612,-1.313669851587601,-1.5025653405301962,1.8507909671808882,-0.7379873882805446,-0.32556542937489585,-0.6859777641851462,-0.004307797759522278,-0.1315733879920168,-0.7042669340463459,-0.9187660129841526,-1.1265484759046624,-0.5969362874629828,-1.0540870526044634,-0.8830870848626765,-1.1241937116282719,-0.5007570746426648,-0.9562767297730925,-0.46526892850094165,-0.7027333446155924,-0.5318178519820489,undefined,1496159853790
903d185fccf839df,-0.5919095903714388,-0.43662931485003753,-0.19244684362591932,-0.16375055775241776,-1.2637327918836845,-1.5869886168906933,1.8744802587793685,-0.7957207012633918,-0.3311858680496426,-0.7281858027902336,0.05361164089505658,0.010932394043869156,-0.8609347147950089,-0.9076560226788878,-1.1212853143573278,-0.5545034644184056,-1.0427955101926942,-0.8900469903683069,-1.1241797179208797,-0.4486333376954974,-0.9483639159054779,-0.4721584471244847,-0.6992068066965215,-0.5322318544145349,undefined,1496159855277
903d185fccf839df,-0.6750703882643839,-0.4941567846659335,-0.20137874085035412,-0.20978518361032927,-1.2919567448933298,-1.5862455904042514,1.869081272792264,-0.8458169502204992,-0.38065334602674905,-0.6530098301926698,0.07087887245983111,0.04799103117191422,-0.8043602384135473,-0.8734001879399493,-1.1170747718674392,-0.17462921072481624,-0.9617015111539762,-0.8801422669440924,-1.1125860024878547,-0.1762656376032893,-0.8795026833130029,-0.4737349246123986,-0.7157421844668097,-0.5099640864605676,undefined,1496159856783
903d185fccf839df,-0.6806144759626567,-0.4507177332609355,-0.29708061671642033,-0.24792361841139077,-1.2724756353986517,-1.6350035554042515,1.8888179608809497,-0.7849080938203016,-0.36486055868726164,-0.6149137285122814,0.04554102646059514,0.06002669306258221,-0.8565828319964349,-0.9104335105421231,-1.0781273734722683,0.5063157125923087,-0.7214484653457027,-0.9124782776653725,-1.0586545838772858,0.5699584298347394,-0.7075706080358874,-0.48261694036143926,-0.709791288699674,-0.22878592636490996,undefined,1496159858271
903d185fccf839df,-0.7166508562216759,-0.5593156248253616,-0.24412559229116765,-0.35610920232037147,-1.298076733496923,-1.7303043772930298,1.9249909342352052,-0.6983853794251643,-0.3792562265505757,-0.5872496038648146,-0.007200402810072084,0.043828413627679204,-0.852230949197861,-0.8872876920099986,-1.088653685523587,0.5750162556699627,-0.7320297130552978,-0.9014399569796315,-1.0697235387208917,0.8198905997581395,-0.6546461430113342,-0.48553988509972573,-0.7000806664218437,-0.23066088928881873,undefined,1496159859774
903d185fccf839df,-0.6334899893179113,-0.5481622229490858,-0.1414059787037237,-0.0838104091774321,-1.2492093864150413,-1.6854828272081652,1.8882025816328474,-0.8361051146758236,-0.3560921322579314,-0.6325886763445843,-0.04032317951162794,-0.023397149015791645,-0.8739903631907309,-0.8048884796097489,-1.1044431959334098,0.5891605158857944,-0.7855141773321153,-0.8764754929645958,-1.0529871672078697,0.7996416434443179,-0.643104443853584,-0.4917023814519318,-0.7340348215301519,-0.2562092837637978,undefined,1496159861272
903d185fccf839df,-0.6487361010928749,-0.4648060932158488,0.2184326272716542,0.29251406490796056,-1.147782127020469,-1.6168983766810394,1.8757978023611555,-0.779545517268114,-0.35711648275180496,-0.8381581483368831,-0.047991836401500024,0.08237559926996268,-0.8391753008021391,-0.7872976044271586,-1.1076011009602678,0.5548102584793281,-0.7756701095274291,-0.8220565093178598,-1.0326614320087315,0.8731846210362896,-0.5974261672847571,-0.49126194118561584,-0.8060560507095845,-0.27517852637347595,undefined,1496159862774
903d185fccf839df,-0.6487360665874652,-0.5053101280862246,0.6248461495570102,0.5377458029344034,-1.178083791243992,-1.650325288570129,1.8692048824589906,-0.8667340805069258,-0.32456405433420665,-0.8481275469565739,-0.02543765586696864,0.10458696899710596,-0.5258397393048129,-0.698417591329618,-1.1002326608057549,0.708376362851972,-0.7086307138495792,-0.7418941072583691,-1.04035092680741,0.7902793954249044,-0.5792670241268025,-0.4935247250622274,-0.7866102191037121,-0.19574772494015902,undefined,1496159864298
903d185fccf839df,-0.5558731756070098,-0.4025824449589971,0.8424077092193943,0.6913509241210144,-1.098801638401458,-1.7706188478473064,1.8668722347402362,-1.0288823006610395,-0.37861611417291124,-1.0536157474930896,-0.014112436641243087,0.0028167486906421463,-0.3909313725490196,-0.6317575264656707,-1.1370748100426828,0.3163784373557259,-0.8047586112850912,-0.6801542398568481,-1.0834442851681427,0.1832880688312642,-0.7078519550344504,-0.4640984305550082,-0.6587591326074832,-0.42420240168731627,undefined,1496159865787
903d185fccf839df,-0.4782563273906984,-0.49004773813506847,0.916416963356578,0.92867264086331,-1.1261513080850738,-1.8423990138365582,1.8843551754992067,-1.029026098034287,-0.5018094190777044,-0.6299979797186794,-0.02923522169803877,0.04524783721858015,-0.669451871657754,-0.5975016658251833,-1.096022133040334,-0.09582555599295865,-0.7667970896606463,-0.6454877060173145,-1.0753629689787212,-0.03835715812661385,-0.7356829546733024,-0.46087596829798655,-0.6164111188780362,-0.41263354060019536,undefined,1496159867278
903d185fccf839df,-0.3244087477725207,-0.5293777430092014,0.8436837308424492,0.8552330912194935,-1.0557354241231875,-1.8434029157297038,1.8818174135855061,-1.0276896983357773,-0.503020079439781,-0.670077850064212,-0.0658439637007068,-0.015661187193090023,-0.8261196524064172,-0.6169441974248012,-1.091811594231562,-0.10592855458827598,-0.7213910006633493,-0.6238037066721411,-1.0773010855181562,-0.05432534593325227,-0.728666498327211,-0.4562973716957344,-0.6117653869317747,-0.41360607601103305,undefined,1496159868774
903d185fccf839df,-0.3451989817511667,-0.3450549166871164,0.9751142121540524,0.9636162333245468,-1.087549086629579,-1.7831664603334332,1.886798269725826,-0.9022195429389818,-0.5009758723001185,-0.4936120920977303,-0.12510920864018274,-0.08104672354973731,-0.9740836675579323,-0.6113891957967815,-1.0539168112127206,0.38507906522754465,-0.6923100187255858,-0.6139243131678532,-1.066959799134183,0.09388469334505443,-0.693923164903436,-0.4730193947060445,-0.5818552853650429,-0.3892875709194998,undefined,1496159870277
903d185fccf839df,-0.6598242419840107,-0.3843848631052647,0.6344159305244979,0.6091762822689534,-1.2287202794488115,-1.691489935622622,1.8835373071457742,-0.8275580818535094,-0.40151483686306577,-0.716850154151624,-0.07440410081866153,-0.021070668742397946,-0.7738970588235294,-0.64564503053572,-1.0560220714143143,0.13654431617042898,-0.731909805707585,-0.6600091449670978,-1.0525813528437824,0.12237181575135804,-0.7127890122866173,-0.47343652889333815,-0.5352939191340187,-0.4222651226769833,undefined,1496159871786
903d185fccf839df,-0.8427782043809483,-0.5023750530956176,0.0857263784739456,0.028750892059816208,-1.426421663631582,-1.5627342511915925,1.8483846912502824,-0.9203159277539904,-0.332370498061402,-0.752636192483607,-0.002472811910484253,0.06355308032309413,-0.7260263480392157,-0.7048984308792325,-1.0802326373549789,-0.3807312215315193,-0.8813831942764532,-0.758537082284712,-1.0766433855954844,-0.38349791312114756,-0.8710286997830591,-0.4761877109085756,-0.55573005220349,-0.4347414938232844,undefined,1496159873274
903d185fccf839df,-1.0049418982938303,-0.5340738629941725,-0.18415283014453723,-0.24291898738772857,-1.521852358902011,-1.4961925451976967,1.818362821388603,-1.0360806038771881,-0.2902377442775831,-0.7038759704714137,0.029701100841030018,0.07667007474561703,-0.27778241978609625,-0.7641517858950341,-1.0970747594600139,-0.4716585763307552,-0.9382751995296694,-0.8059518316582489,-1.0841019857514569,-0.47011416885074553,-0.9138236437275219,-0.471712324674965,-0.5354488586712133,-0.4569040425474013,undefined,1496159874782
903d185fccf839df,-1.0409782613001448,-0.5722298963280473,-0.450203719756906,-0.37758658292744335,-1.5452523197225418,-1.459104066753804,1.814068347618621,-1.0147120670666872,-0.30143619795159654,-0.6651233722529191,0.06530127794786121,0.12257291614531021,-0.19074476381461675,-0.8345151312161005,-1.1002326534435212,-0.10996974554698645,-0.8422798371631971,-0.8571093514648912,-1.0672396718261667,-0.21400722662478602,-0.8829013945333095,-0.4642276146873443,-0.5350783237837087,-0.4015283620498825,undefined,1496159876312
903d185fccf839df,-0.9148509303935772,-0.4477825413583592,-0.48657020894549563,-0.51688821340471,-1.4570216095222972,-1.5502332208532088,1.8356353768229605,-1.0091901880808098,-0.36434308870106047,-0.6477069395812537,0.03167828350323399,0.02895582414920702,-0.5737104500891266,-0.8909910177948287,-1.0433904807558172,0.6073460094574188,-0.6784285376625424,-0.9274810219125873,-1.0213335951259863,0.545367106466292,-0.7175014460050124,-0.45827636558514845,-0.6511831713748988,-0.08553765532521161,undefined,1496159877783
903d185fccf839df,-0.647350105047364,-0.5129413815177872,-0.44446124124773484,-0.46249372828649465,-1.402743987646662,-1.605888063457711,1.8622542757650729,-0.9293773117205149,-0.34523951047935,-0.6441608113453496,0.05337832913711448,-0.08026617670435544,-0.5258397393048129,-0.9391343889807527,-1.0739168346634966,0.5649132288099239,-0.7261312228257765,-0.9612926081729628,-1.0479144787472752,0.5190819574912552,-0.7444543554945272,-0.4584637423539408,-0.6473180260694554,-0.06672554266542657,undefined,1496159879278
903d185fccf839df,-0.6168578297393223,-0.5628376563581052,-0.37108987085360395,-0.4328608583609686,-1.381545165108133,-1.7012494462031087,1.9186609894417959,-0.7177049669021925,-0.33196051610531213,-0.6188623909542583,0.03098374229226663,-0.10067626006017595,-0.9479723707664884,-0.89932353966302,-1.0391799529903962,0.5952223235224012,-0.7186031228459661,-0.9383863510690095,-1.0316538906185497,0.6993207625304861,-0.6953618481469557,-0.45899844443393467,-0.6559353439942093,-0.08470010862648804,undefined,1496159880779
903d185fccf839df,-0.8150578866585187,-0.561076611363741,-0.19244633535202046,-0.23143961654299702,-1.460220462193493,-1.6388933815792035,1.9053384050949655,-0.72411145025172,-0.31860993838537344,-0.5774057499764801,0.03131885813065409,-0.07966199884266796,-0.9784355503565063,-0.8882135364069806,-0.9728640652221181,0.6639230503207454,-0.566451746066548,-0.9218257037844894,-1.0047371589985779,1.0597829695459295,-0.6058276179584533,-0.4675536752463011,-0.6507907682496182,-0.09763778577055077,undefined,1496159882270
903d185fccf839df,-0.9079208466497936,-0.4630449313095153,-0.32260104917751814,-0.3822245824534326,-1.4855541327289101,-1.555637053482903,1.8661385200976404,-0.8152030553178032,-0.2723216180311503,-0.5619370314300313,-0.010056329407012737,-0.057309916823018565,-0.5998217468805704,-0.9085818800266444,-0.8591797345711779,1.0862301270589119,-0.4615252903809445,-0.906765963592308,-0.9336845452677343,1.3571115567877425,-0.5170816884571908,-0.4698928089918139,-0.6850864044265712,-0.014761416753833984,undefined,1496159883781
903d185fccf839df,-0.8552523240648902,-0.737768242710248,-0.5937560252821065,-0.6782177152292546,-1.374705176713587,-1.428931100302928,1.834801751646703,-0.7974320506182283,-0.23537907703276906,-0.653865758555302,0.0285345479518223,-0.022791564556111765,-0.7347301136363636,-0.9456152155795927,-0.8760218529950959,0.9993440338801902,-0.4916728936606366,-0.9300711963251106,-0.938015571561304,1.0526226998984503,-0.6007306198078316,-0.4928470539266907,-0.6740166668006015,-0.0802561501023657,undefined,1496159885304
903d185fccf839df,-0.7485291620806382,-0.788838664458778,-0.7251865065937095,-0.7805176156719649,-1.3868011569429592,-1.3932168763581212,1.8346202842087327,-0.7417228574528943,-0.2172854819053374,-0.6960467637869435,0.0445353315782292,-0.00211513089720113,-0.8913978943850268,-0.9335793744019585,-0.8928640008679491,1.179178098536044,-0.4249348579856801,-0.9439023452168747,-0.9392889914589465,0.9373345414807157,-0.6332085282499146,-0.4921667623410136,-0.6518073218816246,-0.040582195596202304,undefined,1496159886773
903d185fccf839df,-0.7651613906700467,-0.7729892595095006,-0.580357417034606,-0.6778448406664889,-1.4192011027341664,-1.4704451342918388,1.850207141384263,-0.7986816768417982,-0.21913349001737534,-0.7347299455137619,0.03649504216620882,-0.017987890063980383,-0.8174158868092692,-0.9595027326004165,-0.9244429627897239,1.1913016007503716,-0.37024104047203327,-0.9724069247918657,-0.9427104320877487,0.7602678176977361,-0.6787216499954044,-0.484739376077211,-0.6348684857778767,-0.02469774876452811,undefined,1496159888309
903d185fccf839df,-0.7291249931583226,-0.7295500327365486,-0.546542971092126,-0.5885695426764096,-1.3105841417038593,-1.5131004911982806,1.8464623002045093,-0.8731795363154651,-0.3405286638322593,-0.7392797551213374,0.058287405496946304,-0.0434357306664908,-0.6607481060606061,-0.9557993938648118,-0.9539166792343727,0.7649534602447416,-0.6489239769916537,-0.9800254556648117,-0.9424375567877625,0.6111492747960577,-0.7117511040625554,-0.4819936632571325,-0.6727732838510396,-0.05865792664510001,undefined,1496159889759
903d185fccf839df,-0.8635684383595944,-0.5575545213750127,-0.433615184520243,-0.48018671555947806,-1.2716939235360178,-1.5372104477145483,1.842196766319128,-0.9384265082958443,-0.34266397562919243,-0.6377449797073581,0.08864258210668945,-0.0495220814943895,-0.4779690285204991,-0.9132110307822948,-1.028653615171259,0.30627542462804785,-0.7504786736243947,-0.9591267416124681,-0.9998743764608363,0.33668738382110003,-0.7786087408927456,-0.47439768843669333,-0.6362743996407864,-0.28017764387416133,undefined,1496159891266
903d185fccf839df,-0.591909555866029,-0.572229954784032,-0.39469665208554355,-0.4495132984468063,-1.103903350058082,-1.5459846911437642,1.8535075599202047,-0.8611648167879149,-0.41235311103706074,-0.5708837730185431,0.10625161623193677,-0.07878088534003395,-0.8696384803921569,-0.8734001749891748,-1.0054956866936249,0.6881703091318943,-0.6223635101997259,-0.9430093997763322,-0.9903447196736614,0.40910627198763394,-0.7487992743379804,-0.4697588961742241,-0.6802855763379738,-0.2916092442936185,undefined,1496159892775
903d185fccf839df,-0.5170647687515589,-0.7072435212639205,-0.4967783819299348,-0.5921776791211802,-1.0536782924094978,-1.5621309777045793,1.879474267603333,-0.7418164906319389,-0.31770821735298815,-0.6010196170668054,0.09134745073023719,-0.001968347157794639,-0.865286597593583,-0.8576610112644042,-1.0160220465994634,1.1609925766996982,-0.5275457803923159,-0.9266577392455997,-0.9636308954161865,1.1678338757683542,-0.5617914770287057,-0.47114915937812735,-0.6938299783139049,-0.3995947214806129,undefined,1496159894276
903d185fccf839df,-0.4602381545138936,-0.6608692195003616,-0.47827568719021474,-0.5769988222498235,-1.0816656711524157,-1.5318997819535314,1.8419364142049441,-0.9054449941837718,-0.3377421773480484,-0.5939540335555484,0.03336823877800778,-0.001008302389905145,-0.8609347147950089,-0.8780293322202124,-1.0423378212060852,1.1205804692595427,-0.5485189758753973,-0.9103567422919694,-0.9681648285094838,1.2674156244753731,-0.5358054220314098,-0.47772745061220834,-0.7075964941197596,-0.39934545525052245,undefined,1496159895781
903d185fccf839df,-0.6334899548125016,-0.5053101280862246,-0.36534790061833167,-0.4458764665375059,-1.2265911394276572,-1.5112324406107494,1.8319063375094684,-0.9306846043231216,-0.24113316817311825,-0.6773702839668269,0.019448960157427652,0.005135559833513604,-0.9044535427807487,-0.9141368622285023,-1.0223378198420106,1.3771976002340793,-0.4700274491537037,-0.9315594371314545,-0.9995105409189105,0.9486832008095326,-0.6200604155430788,-0.4937944574508226,-0.7105358222119647,-0.34130938777722036,undefined,1496159897271
903d185fccf839df,-0.6570522153875792,-0.322748288302519,-0.09610708401680039,-0.14997989314257187,-1.3020881543376641,-1.5795280633347641,1.8763711005637524,-0.7217072880731921,-0.26839034954241725,-0.6577356703144589,-0.06794910866063188,0.1069770767144129,-0.843527183600713,-0.9058043533110854,-1.0286535930845577,1.3084969158328175,-0.5065818459150592,-0.8973488751702531,-0.9905826098426613,0.9923839885418375,-0.5927975162912487,-0.4910041394203634,-0.7517007648953558,-0.384281572007772,undefined,1496159898779
903d185fccf839df,-0.754073249778911,-0.24643619240677697,0.281595824681346,0.22989828953421357,-1.248777387685568,-1.6747823005859659,1.8875635451525514,-0.7797933792373186,-0.4290829330599534,-0.7669840682539957,-0.03972950597489004,-0.05635276414868212,-0.7477857620320856,-0.8919168621918108,-1.0623378667435626,1.1387659063017241,-0.5574755376494717,-0.8828464339054122,-1.0464171607792376,0.6612250187008039,-0.6774399034058207,-0.48844710706809236,-0.7280770041020709,-0.47933158931258457,undefined,1496159900320
903d185fccf839df,-0.6279459016196386,-0.39612522152367713,0.4966053410976202,0.4361218268744164,-1.1680140958438525,-1.792888705108744,1.9120891079673399,-0.805976967767923,-0.40544699858253397,-0.759829818904557,-0.03469669409114278,0.07061917080046363,-0.7042669340463459,-0.8669193354395603,-1.088653692885821,0.029452183403990438,-0.9283836970994916,-0.864639220855057,-1.0465291100285323,0.2611118113629068,-0.7668074621207877,-0.4909491947973296,-0.7102638824101257,-0.4932525336190576,undefined,1496159901775
903d185fccf839df,-0.6944746089448142,-0.4706762431970627,0.3613470490538019,0.29418156446667765,-1.1104656207515786,-1.8322621648655413,1.9008098562950004,-0.9436999753137717,-0.3801712729581593,-0.7261529304780943,-0.007437049404540293,-0.03151436289041593,-0.6520443404634582,-0.8493284991092938,-1.1044431959334098,-0.3059687153612899,-0.9861248804038337,-0.8435568517018289,-1.0729840519348977,-0.11473344739210957,-0.8504249920142264,-0.47897960387174743,-0.6479638463864439,-0.5374960181669531,undefined,1496159903266
903d185fccf839df,-0.779021558157614,-0.5193985464971225,0.021925297321201086,0.058556725230840205,-1.2956390249052243,-1.8238396355203381,1.9189292241574787,-0.8611746685325421,-0.3197156103712991,-0.7401843906229079,-0.008288483240950103,-0.008809286880508301,-0.9218610739750446,-0.8206276271460513,-1.1033905584703791,-0.10996974554698645,-0.9885736093392263,-0.8209609080795446,-1.065126633314272,-0.06276369327046549,-0.823794462035768,-0.4804864551972747,-0.662393713530069,-0.5193493647745397,undefined,1496159904771
903d185fccf839df,-0.8081278374201448,-0.5117673515215445,-0.03868585684238091,-0.1524152155649888,-1.3029521534770487,-1.8203946901023689,1.9414508955883618,-0.7088345766708335,-0.3410241236109183,-0.6429572976168534,-0.018397251580342076,-0.007345682583036474,-0.9392686051693405,-0.79563012629535,-1.0612852513672335,0.21736865824198678,-0.7753853023558017,-0.8437278411589719,-1.032087692703275,0.36180224002428607,-0.7289858180004531,-0.49342380261842267,-0.6982662948572218,-0.4028089132630759,undefined,1496159906278
903d185fccf839df,-0.8815865767309894,-0.4853515596941127,0.11443673792420592,0.10770477220034787,-1.419242243957913,-1.7996225348290873,1.904202325808583,-0.9337446145967837,-0.3560409690621388,-0.5272584504127671,-0.035204811999475734,0.060466735927288455,-0.843527183600713,-0.759522615713222,-1.0539168112127206,0.5830987506462698,-0.6824514319952438,-0.8243490336556425,-1.0232507204620416,0.5202676434986385,-0.6881054137421955,-0.4867967845544724,-0.674767516422967,-0.36757780354443237,undefined,1496159907977
903d185fccf839df,-0.8247599969987338,-0.4636320047636214,0.1718579650986254,0.1385612523275251,-1.2853533262983474,-1.7964850492904971,1.8757162653597603,-1.0883681690706608,-0.3445619020862401,-0.4815547977691872,-0.015215071620176785,0.040809097430274235,-0.8565828319964349,-0.7298959187791594,-1.0149693944119653,0.27798691832874534,-0.6525679577119081,-0.8218981841978052,-1.0083405161045846,0.2870119934937674,-0.7341210062287077,-0.47080704223474945,-0.6566804593061025,-0.3453783255286749,undefined,1496159909277
903d185fccf839df,-0.12482266030240369,-0.391429101538706,0.08445010271394128,0.1064840894078085,-0.8988785481395455,-1.8903766827286466,1.87668141003981,-1.0807198738674104,-0.5183720578614088,-0.4671603566498387,0.013922574340193495,-0.012989659559634449,-0.9566761363636364,-0.7243409301019141,-1.016022024512762,0.8033449792717222,-0.6851096482113798,-0.8101062423396614,-1.0130703605753058,0.6168004946627561,-0.6546529939444533,-0.48100444911331597,-0.7204579617998825,-0.4052924769285678,undefined,1496159910776
903d185fccf839df,-0.22045764689011008,-0.4642190343757389,-0.35896804664000664,-0.3495708171266407,-0.8507929128902897,-1.8996214325731935,1.9147899260759613,-0.8495265048690478,-0.4867198736067868,-0.6014960924183885,0.05555865967887551,-0.07385729405380403,-0.673803754456328,-0.7160084082337228,-0.961285104664418,1.2256519712157241,-0.6594465365444379,-0.8015884332264492,-0.9805981613822856,1.45664711054883,-0.45750815017903435,-0.45736429695132963,-0.661396053751119,-0.3320942852405709,undefined,1496159912304
903d185fccf839df,-0.23847581976691484,-0.4131487003111859,-0.3385517006711284,-0.3157326065666982,-0.9982280933474658,-1.9084725420019832,1.950247600220758,-0.6391428369423209,-0.567715667641234,-0.6612068558936499,0.05779524701095444,0.04114062243517908,-0.691211285650624,-0.6752717339451699,-0.967600914718134,1.484289860191765,-0.560294360896174,-0.770449349563353,-0.9945567989833837,1.145613913577514,-0.5127660681571518,-0.45092445983636875,-0.6915142232036676,-0.31118772618972096,undefined,1496159913769
903d185fccf839df,-0.860796394510458,-0.42958510564458857,-0.10950518399040203,-0.07672456690851129,-1.4620513152840846,-1.8237348200155719,1.9460951326952478,-0.6774672131884,-0.3405492827134339,-0.7360566662081345,-0.02389429358450677,-0.025582002110704733,-0.7477857620320856,-0.709527562208721,-0.9981272907125148,1.1003742742158573,-0.5727168791987253,-0.7786061810530538,-1.0107963970342686,0.8483315264242349,-0.5902916874838642,-0.4450215441238746,-0.6370245053333672,-0.3715707938165616,undefined,1496159915274
903d185fccf839df,-0.8122858600620873,-0.42430197066149605,0.3166860381099313,0.2589978277489157,-1.422780525275546,-1.8498199714973096,1.9235235049500123,-0.8501493041889034,-0.3760226791603524,-0.6694250547935952,-0.036784129329785475,0.08165474447163235,-0.669451871657754,-0.7058242299485037,-1.0412851984675222,1.0437973181466955,-0.625910964050646,-0.7617858823690674,-1.0319337626376568,1.096338891232266,-0.5344827890651787,-0.4629455717262225,-0.6365831038399944,-0.38327373134754394,undefined,1496159916806
903d185fccf839df,-0.7526872019752855,-0.5992326154696236,0.5036235870928969,0.48503282154360294,-1.313926993995558,-1.8632317315792333,1.9022352212950364,-1.0137051748363137,-0.3388099236570311,-0.6364277914589955,-0.01025250504181179,-0.011041720690758955,-0.8739903631907309,-0.687307594548966,-1.0097062218212798,1.029653114460307,-0.6362843002026564,-0.7230282671686253,-1.0036666471057238,0.8658857600487192,-0.5591053990830124,-0.4541218522607378,-0.6388380039081586,-0.4152575958976888,undefined,1496159918272
903d185fccf839df,-0.8039697975254976,-0.5792740470775117,0.7339461253966781,0.6364410494889613,-1.2552368076903158,-1.8789610825328626,1.8860224729902022,-1.1228056222946503,-0.328416281462353,-0.6986405253247578,-0.03809132248970345,0.043383705324181426,-0.8696384803921569,-0.6780492153330179,-1.0454957483196445,0.029452098609825828,-0.787962786913426,-0.701293604334936,-1.0191715798922165,0.2382913156288418,-0.6897806558635844,-0.4539393645309582,-0.7219118112317544,-0.5582481204914489,undefined,1496159919768
903d185fccf839df,-0.738827068993128,-0.48946072313694705,0.9170551012365802,0.8492012997090067,-1.227064282187608,-1.8440830544946196,1.8920473542966973,-1.018769857154959,-0.33666949792996587,-0.7378271304043599,-0.05750493968569073,-0.056511094849424945,-0.8739903631907309,-0.5799108294949166,-1.0033904191297975,0.3466877016565325,-0.7738341397563594,-0.6404403476806935,-0.9876299569556375,0.4331586397764275,-0.6129394942119079,-0.4183210569528455,-0.6981883087374396,-0.5641891757880264,undefined,1496159921271
903d185fccf839df,-0.6265599573322423,-0.26345974426426655,0.05510185952062823,-0.0648967578352222,-1.0995010672404493,-1.7009815847617442,1.8354434174067018,-1.1488057827717635,-0.25347626303617027,-0.6857579661889873,-0.08080509543966086,-0.0056899331395988285,-0.9131573083778967,-0.576207490759312,-0.9612851120266518,0.9993439773507472,-0.6129199353249967,-0.6808951932040632,-0.982564266143957,0.7985637507687614,-0.5435356402201581,-0.41456709840000977,-0.7447433595146048,-0.4701917803137597,undefined,1496159922767
903d185fccf839df,-0.5766633060694265,-0.3820369200247485,-0.15671823818038239,-0.3212300953071873,-1.0971559251148446,-1.6088881254512777,1.8509355985149756,-0.9327638799002179,-0.30558887047257605,-0.5903873617702381,-0.06044449705509125,0.017049869676367506,-0.9001016599821747,-0.560468330272235,-0.9076008590902735,0.8134480909259257,-0.6228314091768314,-0.6750182209897535,-0.9506308214251434,0.6483673093892713,-0.5705672490372926,-0.38465565576803845,-0.7451545210050893,-0.44958300637466314,undefined,1496159924307
903d185fccf839df,-0.571119321887383,-0.4430865382853575,-0.15863239768343945,-0.3552371329605974,-1.1748746536639627,-1.5836927455878063,1.8638505879417027,-0.8407234238704915,-0.203207352414658,-0.6990853882510536,-0.05476731637746965,-0.028758519091769595,-0.9436204879679144,-0.6752717404205572,-0.9360219527963592,0.6881704221907804,-0.6282420429075994,-0.7110970013523954,-0.9641556561830008,0.6906514398712716,-0.5835559530052644,-0.3861788970373974,-0.7389655044571066,-0.44449001828113865,undefined,1496159925764
903d185fccf839df,-0.4782562928852887,-0.3908420573125923,0.09529615944143313,-0.014705823415881464,-1.0996759214714211,-1.808524890047198,1.910511234269327,-0.8233550969521983,-0.3887927284068888,-0.7771893037478834,-0.055624659608161674,-0.06677070539373019,-0.9871393159536542,-0.6632358927675357,-0.9528640564958096,1.2054459174956464,-0.43909948165089807,-0.7101723917415962,-0.9810459573517977,1.2068689257933953,-0.4815236461836678,-0.3970308410700411,-0.6038407122143674,-0.425793489075331,undefined,1496159927282
903d185fccf839df,-0.553101183515988,-0.5675337763430763,-0.1509762679451101,-0.14539195792356693,-1.1050347680740584,-1.8700168046883108,1.935849416305839,-0.773942022528406,-0.3665267275798316,-0.7893641087135298,0.007317821608159634,0.01394692052408948,-0.9044535427807487,-0.7530417632128329,-1.0539168112127206,0.8275922663475928,-0.6123414507712834,-0.7728242032209083,-1.0613833392628014,0.9798804452256699,-0.5850014035591818,-0.43140047734012243,-0.4808359704397144,-0.45605918186000777,undefined,1496159928775
903d185fccf839df,-0.7194229173235172,-0.6127339896544078,-0.24412559229116765,-0.2734020722622745,-0.9780681233930884,-1.8861118465357425,1.9200179785042553,-0.8894111875851624,-0.36450088503656636,-0.7252934943000763,0.052650150688287746,-0.04066482038715684,-0.847879066399287,-0.7187859284738944,-1.0433904807558172,0.5305629996681791,-0.7379878907403504,-0.714383797891822,-1.0493488240043811,0.8659165503834672,-0.5872054215709247,-0.45176244865491666,-0.44835830431534607,-0.5328488428047522,undefined,1496159930270
903d185fccf839df,-0.8039697975254976,-0.7236799412113194,-0.14523378943593895,-0.16267186830788186,-1.1487181266632853,-1.8172828278568762,1.933832351287853,-0.752288853926772,-0.3700071200892916,-0.5619744398666303,-0.0006992521611733901,-0.005631362337104244,-0.9349167223707665,-0.6984175589526816,-1.0170746693380264,0.635634473359639,-0.6815105339774121,-0.6777223876077999,-1.0294708842425706,0.8601267329570907,-0.5531568682344155,-0.473168604451314,-0.48252056902629,-0.5817083350867339,undefined,1496159931790
903d185fccf839df,-0.7027906542286989,-0.7019603570528357,0.2286408002560933,0.12166292014304272,-1.0392783116783717,-1.8544831070360739,1.9167596462514276,-0.8536521526151115,-0.38478520456731696,-0.46491416335194824,-0.047081312883518966,0.02582110569513319,-0.9958430815508021,-0.6206475232096313,-1.0265483660130161,1.1852399203050117,-0.4602056151940681,-0.6246776504690249,-1.0283374016390645,1.3563724302754872,-0.41727207369020414,-0.4571196471459669,-0.27888404100027664,-0.6057118067082434,undefined,1496159933279
903d185fccf839df,-0.7429851261404801,-0.6121469162003017,-0.0667583325495885,-0.11993013983341153,-1.2634962205057096,-1.7746251416047554,1.93119991016433,-0.6954818903332217,-0.4572953999492159,-0.40833079858755417,-0.03839506917224872,-0.011049649950065,-0.8783422459893049,-0.6576808976149032,-1.0412852095108729,0.22545106842412926,-0.7604952840520041,-0.6721177318553481,-1.0300236336536985,0.702061685900699,-0.5769212182338292,-0.45878189575280776,-0.27429120404416923,-0.6026290098126754,undefined,1496159934779
903d185fccf839df,-0.6099276942374241,-0.8017530528734332,-0.24986756252643996,-0.31302483023248084,-1.2364036949925101,-1.759440832198183,1.8652943411393093,-1.119081954368228,-0.43624733929321907,-0.6019462016020455,0.007530580676277918,-0.021794680586242725,-0.8609347147950089,-0.5586166544290454,-0.96233776421415,0.2416160301120219,-0.698443712399337,-0.6561080506707612,-1.0088722747649956,0.6126737084560662,-0.5907415453321836,-0.4092377034769212,-0.17247160790323512,-0.4853248012707441,undefined,1496159936282
903d185fccf839df,-0.4768703658505973,-0.6902200863184003,-0.3340849896480627,-0.34896467072899306,-1.3297258259889955,-1.7885353593522604,1.9000419693964425,-0.9471930777777208,-0.39652511158273784,-0.6871306005869753,0.024052814976816755,0.039339978923276425,-0.7913045900178254,-0.6215733611312262,-0.9781272525372712,0.24767773882210337,-0.6241584968267659,-0.6673680245347008,-1.0114261112059963,0.6631190154957793,-0.5816192380277986,-0.40007620032302416,-0.1836387156221017,-0.4739664978892892,undefined,1496159937766
903d185fccf839df,-0.26758206452403593,-0.7876646344625353,-0.3576917708800023,-0.4072975670065161,-1.029537756790996,-1.8627006646624558,1.906490261107086,-0.9626562238592665,-0.3423729519484931,-0.5848241236657882,0.003944100189420001,0.029558166745421215,-0.852230949197861,-0.7224892607341119,-1.0697063068980754,0.6517994350475316,-0.6286994265079668,-0.7439839764406322,-1.0566045188103697,0.6681235133083043,-0.6364855148828735,-0.3959842974613589,-0.19002327707015826,-0.3638731144271186,undefined,1496159939269
903d185fccf839df,-0.5517150321961333,-0.8821741076160633,-0.389592565593324,-0.3869171021086922,-1.1014553489495684,-1.8965747898199556,1.9511338445117674,-0.7375640966481817,-0.2703221745047037,-0.5912007857988076,0.02611902138804375,-0.014325590581152021,-0.8609347147950089,-0.8085918183453535,-1.10865371265548,0.2779869324611061,-0.8618026782267271,-0.8366412766856703,-1.0967592162603423,0.23096164965953095,-0.7852816514036551,-0.4110492816511087,-0.45365032650926074,-0.3290112520198388,undefined,1496159940772
903d185fccf839df,-0.5655751996837005,-0.7788594094907144,-0.33918907614028226,-0.4329332330083575,-1.29336588358313,-1.7311778419621255,1.8935068988853474,-0.9234283880307922,-0.40862645963708505,-0.5909807081584552,0.017741865682351074,0.0509742608116241,-0.8870460115864528,-0.7872976303287077,-1.1454958692546418,0.2739456991053133,-0.645553024541165,-0.8282691257587281,-1.0907629488802504,0.17994659977482297,-0.7917440492107168,-0.3669301583562427,-0.4056890771073336,-0.28031288327812215,undefined,1496159942275
903d185fccf839df,-1.028504158868908,-0.4090396099383323,-0.3308950626589002,-0.46143991532646017,-1.4731393001384516,-1.7525229898084667,1.9078340786305084,-0.8381757627871057,-0.3171310043607653,-0.45359845043128794,0.05858139605954833,0.09808829363920679,-0.7826008244206774,-0.8122951506055709,-1.1665485228062147,-0.06147517139524546,-0.8629368111874418,-0.820859582492216,-1.0943803000545562,0.09185209480362246,-0.8050363054911505,-0.3637712458729372,-0.3926883456760473,-0.314796723075236,undefined,1496159943785
903d185fccf839df,-1.0714706228717108,-0.20651923099050729,-0.6294846307276434,-0.7118232306710504,-1.5175117961321367,-1.8310602775469131,1.8797556487175298,-1.0898856055496742,-0.27207453386895997,-0.43287277989591283,0.04171631860585433,0.03208094130771925,-0.843527183600713,-0.8446993256897879,-1.184443289736514,-0.42720520727008543,-0.9476776598855087,-0.8900026619495481,-1.1314074229692495,-0.25944803920408915,-0.9241221013484685,-0.3481936277271091,-0.4076686841138045,-0.31432090901954374,undefined,1496159945283
903d185fccf839df,-1.1033489459833778,-1.0565177374260695,-0.8910688093169464,-0.9229205098822404,-1.5493151712630522,-2.0351389012357006,1.959638632055764,-0.8420053962785466,-0.13689602952420932,-0.48309123934234993,0.13524316885581283,0.04424194413116033,-1.013250612745098,-0.9409860486354742,-1.2486538896948216,-0.7060490934367608,-1.1100821284922326,-0.9609759618749599,-1.1767327640118759,-0.6939767695700599,-1.0629042064575722,-0.33519467156783034,-0.3733508370446044,-0.34739812742058435,undefined,1496159946831
903d185fccf839df,-1.2031420069711414,-1.0882165765526166,-0.9727347014663582,-1.0189282041427579,-1.8590072213057582,-2.0440249489374516,1.954910238095476,-0.9359453568255139,-0.28804936415233173,-0.6750689905928341,0.08994844101243932,-0.032830033698934745,-1.02630626114082,-1.061344450698735,-1.2633907534388213,-0.8980068086967302,-1.1868289618743988,-1.043031912582481,-1.2238143046090169,-0.8361352177820918,-1.1440284139744,-0.3808198716677747,-0.39186023146058946,-0.38775866103002843,undefined,1496159948314
903d185fccf839df,-1.2904609051432008,-1.0970218015244375,-0.9631644122249718,-1.0109302692120439,-1.9057968575358564,-2.049938887707086,1.9528353111161583,-0.9558339897281329,-0.2905893976178869,-0.6764446621795641,0.09229650101508413,-0.007201050744037954,-0.9479723707664884,-1.111339478301687,-1.3160223919191496,-0.8980068440276322,-1.2353383340724147,-1.0752855942995783,-1.2492756992424356,-0.8506867487288325,-1.1701551451848442,-0.3784889390470066,-0.3926465087909827,-0.3882525678563084,undefined,1496159949772
903d185fccf839df,-1.318181214239278,-1.087042546556374,-0.9580603257327523,-1.002810343279015,-1.9408505133350333,-2.0469201935430217,1.9451615393716308,-1.0066931605108784,-0.2904040947505971,-0.6784546970916547,0.09144871793798597,0.040465587472746645,-0.9001016599821747,-1.150224505886293,-1.3307592547428702,-1.0152020884482742,-1.3281598892763065,-1.1731739045217058,-1.300870182842799,-1.0674968608010191,-1.270190009493919,-0.47447703401633834,-0.6645909987424238,-0.5269600313572075,undefined,1496159951277
903d185fccf839df,-1.1754217065014165,-0.9954681191654604,-0.9274358067794349,-0.9772034784241962,-1.8068690252583448,-2.0950306295172116,1.9541923022736616,-0.955281462408488,-0.29952422298401055,-0.6738060611715573,0.08881105803611579,0.02623579324233993,-0.8957497771836007,-1.1502245026485993,-1.3381276838540324,-1.0313669512096415,-1.327368747082577,-1.17699266948166,-1.3024164780037255,-1.0705457526224391,-1.271692432740422,-0.4743344749811861,-0.6650142683416589,-0.525249609357124,undefined,1496159952787
903d185fccf839df,-1.1199810969356145,-1.0171876960169461,-0.9197796770411056,-0.9722163079682561,-1.76399823935784,-2.1452979406714463,1.9534691057973976,-0.9722461200116888,-0.2939958900166301,-0.672447363707044,0.087400124055534,-0.06647818132200999,-0.865286597593583,-1.146521170388382,-1.337075051912677,-0.9747899244786756,-1.2932502712679181,-1.1756184206150793,-1.30339603152646,-1.0387941577352517,-1.2641067065758829,-0.47412631112924236,-0.6646136356953005,-0.5252167079969671,undefined,1496159954275
903d185fccf839df,-1.1934399138836311,-1.0841074788727652,-0.9370060960208213,-0.9830208471440648,-1.6084682142211,-2.167069339667043,1.9654084260926117,-0.8907742662625605,-0.26861637426755164,-0.6725510458508018,0.08871864611690759,-0.066465077937167,-0.4779690285204991,-1.1530020067003028,-1.3286539890196012,-0.9869135750827913,-1.303240126900345,-1.180241469554942,-1.2985332478937648,-1.090317356131215,-1.2757186446128117,-0.4730771355812946,-0.6653933323409321,-0.5225277242546517,undefined,1496159955789
903d185fccf839df,-1.167105626712122,-0.9796186996021868,-0.9044674175644469,-0.9526801478658375,-1.5830316841906407,-2.1287976096385255,1.9565749115443771,-0.9294505006427141,-0.2640829982016694,-0.7029468331708463,0.08364655405901997,-0.09121615038702771,-0.678155637254902,-1.1205978251406985,-1.3002329026757493,-0.8798213575221882,-1.2336801223793734,-1.1549540251908927,-1.2823216370619186,-0.982943995468842,-1.2370593215998944,-0.46975555723323414,-0.6526729744637463,-0.5193740491484096,undefined,1496159957263
903d185fccf839df,-1.147701371526282,-0.9837278192030326,-0.8649110013866947,-0.9235718484466098,-1.5133152298039372,-2.0724230330176807,1.9474994571725306,-0.966650315998681,-0.2849786700923228,-0.7033115717098744,0.08377263924144707,0.0000770646771775188,-0.7738970588235294,-1.1372628300247576,-1.3212855580678806,-0.9444808015014768,-1.27165744290865,-1.1611286453483265,-1.2892134958794357,-1.0254899008831224,-1.2492854922753767,-0.471397149278218,-0.6560940974914795,-0.5222802177675284,undefined,1496159958764
903d185fccf839df,-0.7623892950627957,-1.0459514674598844,-0.7692091255206286,-0.8227625288038234,-1.1823935019320555,-2.0410994239769624,1.9345055809745462,-0.97349842315656,-0.2888783370199204,-0.6987407837176182,0.0660980785810822,0.05131763609836275,-0.8826941287878788,-1.06227028862033,-1.269706541405836,-0.7808115572099079,-1.1656002740618363,-1.0967922709449514,-1.251444710865005,-0.8929092860617763,-1.1818567940276867,-0.4642235670299835,-0.6207441865331259,-0.4971192355555794,undefined,1496159960328
903d185fccf839df,-0.4505360269209736,-0.9643562950370346,-0.6824396551528961,-0.7270246705985641,-0.9110053870704529,-2.059840482982075,1.9167596556791242,-1.050035517114478,-0.3187593271136926,-0.635274268860989,0.0611559840539016,0.012353090424755443,-0.8304715352049912,-1.0233852626545707,-1.2476012577534663,-0.7484818316871733,-1.144223295017794,-1.0670084369132269,-1.234050639147927,-0.8063392246453818,-1.1454865267096064,-0.46550113468453097,-0.6067959287732205,-0.48613901365912415,undefined,1496159961797
903d185fccf839df,-0.7651614251754565,-1.0130785983370945,-0.8042998472231128,-0.8425361963974846,-0.5778002317153176,-2.0892704204385555,1.915941777897995,-1.0186862664851302,-0.3008342849321178,-0.62683914507348,0.059671668910362845,-0.024359195310787334,-0.9001016599821747,-1.0409761135544586,-1.262338112294674,-0.8353679672629772,-1.1889380447915054,-1.0626387059087063,-1.231454822337148,-0.7463622792147642,-1.1307655205040144,-0.467441570565397,-0.6169592123423394,-0.49456772076316347,undefined,1496159963285
903d185fccf839df,-1.0368201696473829,-1.103478981117769,-0.9280736905224877,-0.974911894717357,-0.6486069688718078,-2.1168416253126794,1.926723981526639,-0.9930558180818553,-0.3045996566010316,-0.6214025957013335,0.08292640304139187,0.0333811567126919,-0.9001016599821747,-1.0752319644818653,-1.2886539384369322,-0.893965603605659,-1.2216736699445236,-1.0902630066170569,-1.2451056002780232,-0.8739691971397084,-1.1729809980654256,-0.4661131356047221,-0.610557906181344,-0.48667358769366525,undefined,1496159964777
903d185fccf839df,-1.178193733097848,-1.1134582506998287,-0.9599744852358093,-0.9977831445649796,-0.7316742563860195,-2.1255995649965276,1.934447714823128,-0.9749844136020506,-0.28955254746301456,-0.6827591436176427,0.09139451666277079,0.026976614747996466,-0.8043602384135473,-1.0835644604485075,-1.2939171018248254,-0.9101304593008459,-1.2011751048804702,-1.100022072718721,-1.2533968211057152,-0.9179471572804535,-1.1895065702931393,-0.4656193387668589,-0.6026558195069653,-0.47966510064162937,undefined,1496159966278
903d185fccf839df,-1.1851237995889268,-1.1087621307148576,-0.9567845582466469,-1.0048883000387743,-0.7517930840423706,-2.139651864999894,1.9388763059509517,-0.9544837093418608,-0.2907105218364642,-0.6784105803507827,0.09212004774160845,-0.013406020838071173,-0.7434338792335116,-1.141891996968876,-1.3160223928394288,-1.1000676073461817,-1.3172068845708613,-1.1697097845184192,-1.2898641994133078,-1.1226078953570278,-1.2741011759104308,-0.4727390381197439,-0.6585440561517529,-0.5081397226283707,undefined,1496159967770
903d185fccf839df,-1.2544246025213532,-1.1075881007186148,-0.9657164554710816,-1.0083309150882367,-0.6783429217327297,-2.152150562636579,1.9365015949945619,-0.9598600289041516,-0.28798435998310906,-0.6760909084890665,0.09173249531219496,-0.009669916680450731,-0.7738970588235294,-1.163186176891288,-1.3297066209609565,-1.1829125378309144,-1.382117167129947,-1.199005982091841,-1.3098540879901015,-1.2444557958562819,-1.3182760679804788,-0.476467768800239,-0.672511650668268,-0.5291338774911346,undefined,1496159969269
903d185fccf839df,-1.2641266956088637,-1.1140452730049482,-0.9848570339538544,-1.0242884682850526,-0.6050881841479031,-2.1498236525868135,1.9388421315999465,-0.9292801783428982,-0.2841495290677083,-0.6737656864959173,0.09174167291431451,0.0269256898896516,-0.8696384803921569,-1.166889512389199,-1.3412855815186566,-1.1667476750695471,-1.382117167129947,-1.2047372960866607,-1.3140591713331016,-1.2229133706230775,-1.3161639037250574,-0.47669593879958577,-0.6725176419623273,-0.5284373378466736,undefined,1496159970779
903d185fccf839df,-1.0867167173939694,-1.0876295688614934,-0.9453001095022034,-0.9786121811596212,-0.6924240324061604,-2.150357048419801,1.9416902071797923,-0.9174039093736837,-0.2778167120545505,-0.6571072259207537,0.08695484913215612,0.0075750855171978475,-0.852230949197861,-1.1539278365276635,-1.3244434538919463,-0.9545838495600568,-1.293391899120653,-1.1689308326454197,-1.2995897664401332,-0.9524704729268518,-1.2355579123062355,-0.47204918828074627,-0.6357834823286048,-0.5031343371204555,undefined,1496159972315
903d185fccf839df,-0.6418060346017961,-0.9561380777563371,-0.7641045307545101,-0.7994597846878595,-0.9111082369309856,-2.0721365377042518,1.954668301414429,-0.8056220911505347,-0.31432783557163374,-0.5960721069224519,0.13088119640356577,0.021128584124824212,-0.7651932932263815,-1.1150428154184449,-1.2939170999842668,-0.5949156425203649,-1.0033123849483228,-1.1081472392962517,-1.2679501876129795,-0.5748236009145136,-1.114464906755558,-0.4513418801719415,-0.5151074114572903,-0.4538955177383104,undefined,1496159973774
903d185fccf839df,-0.4172717077637956,-0.6497159491500514,-0.258161576007822,-0.1880191140046119,-1.087045088012834,-1.9822465379613357,1.9504632514374296,-0.7756718283196061,-0.290594940818886,-0.5058446590761085,0.18554564000831109,0.0018973902236978921,-0.8043602384135473,-0.8669193322018667,-1.2139170080217212,-0.1827116703702214,-0.7113236343163007,-0.9505076043927446,-1.1838485211444703,-0.31345038925547697,-0.9570279958359752,-0.3529785078216688,-0.5227621975563145,-0.44985457470338996,undefined,1496159975278
903d185fccf839df,-0.6237878617249913,-0.665565368713325,-0.14459590569288622,-0.08571659377094741,-1.2819487611047515,-1.9514516664980583,1.9647168019232173,-0.6810891255471366,-0.18691039140613,-0.5224758688293486,0.17997452669086642,0.002930290462797024,-0.847879066399287,-0.7373026059634495,-1.168653797732276,0.44367676516584986,-0.44410225153419725,-0.8722450861673114,-1.1363471717356852,0.07112578740793071,-0.8236484145959635,-0.3411033109252004,-0.5647507670565284,-0.4680255134007963,undefined,1496159976790
903d185fccf839df,-0.6972466700466554,-0.7512696461230246,-0.20520655158256937,-0.2097487245918195,-1.3042172950950102,-1.9936667970550577,1.9450195456974209,-0.8510017207996682,-0.23882049657819013,-0.5373519023791518,0.1230156527285215,-0.027327893137170624,-0.9392686051693405,-0.7984076400601344,-1.085495787858963,0.49015066611025143,-0.6187457443818314,-0.8358369930047417,-1.090203204554535,0.44972736935176216,-0.7091578151954401,-0.3688053575277286,-0.7114475847381265,-0.5315848486732261,undefined,1496159978277
903d185fccf839df,-0.6154717819356968,-0.7917737102213926,-0.44573751700773917,-0.4180077928856178,-1.1683535182086535,-1.9912537056000092,1.9752728215035522,-0.5700069367045124,-0.14033576088996103,-0.6385418615259826,0.08285098478293834,-0.004252872838727185,-0.8739903631907309,-0.5826883367843138,-0.8718113362730255,1.1913016572798147,-0.3842256439499719,-0.6759554980326373,-0.9448304643214043,1.2479057839578092,-0.4193530217246573,-0.2624213247313415,-0.31831206863496475,-0.08547705013847166,undefined,1496159979778
903d185fccf839df,-0.45746605890664266,-0.6526510387546545,-0.47444787645799946,-0.4832480281133411,-1.061629129090377,-1.9073382044916718,1.9580212898315987,-0.6131200601006659,-0.2232526538177508,-0.5999097869282597,0.07106901071646553,-0.019889436843791502,-0.852230949197861,-0.6197216852880366,-0.8854955533512024,1.2256519994804456,-0.4237355913778228,-0.6787419939316998,-0.9242178592584991,1.1559924633581709,-0.4372542832716806,-0.26564280345924857,-0.28401029172197584,-0.042378961922747975,undefined,1496159981275
903d185fccf839df,-0.3549011093440867,-0.6626303229507104,-0.461049268210499,-0.5177878584593575,-0.8854762825017969,-1.8507935935451905,1.950663101835361,-0.5780176742230674,-0.2543784239416554,-0.6981720386609299,0.0735752303437075,0.037110311657617655,-0.8696384803921569,-0.685455912230389,-0.8907587333041217,1.3084969723622606,-0.4513015909307329,-0.7644013910533365,-0.9215170901866969,1.240114172298626,-0.4625037907057752,-0.30674517141669816,-0.15836022307279043,0.039010257685221345,undefined,1496159982781
903d185fccf839df,-0.5156787899587529,-0.8011659794193272,-0.46679174671967016,-0.5278481153882162,-0.981441841462165,-1.8639747581381594,1.9272551986837305,-0.8367847176039934,-0.3429217153970192,-0.5927337729344829,0.05622709072009203,-0.000965677296826907,-0.865286597593583,-0.7511901003204179,-0.9076008517280397,0.9670142235632911,-0.5163691126223134,-0.7905247836118451,-0.9163394508230666,1.1116449405671018,-0.501699455022033,-0.3249845264478421,-0.13443286672299898,0.04220848308275866,undefined,1496159984274
903d185fccf839df,-0.4172717077637956,-0.766532065302173,-0.45977350072439355,-0.4701964855148851,-1.0642622699268487,-1.8802025677313765,1.933287982494639,-0.8158954437374554,-0.35107665021050843,-0.6976580179133663,0.061353339855603616,0.025632799406570757,-0.8130640040106952,-0.6928625832262111,-0.9339166484213629,1.057941578362527,-0.4989594023914469,-0.7773395944048984,-0.9221398065871695,1.0301101724136577,-0.5131340386512584,-0.3266752227025622,-0.14392859105491018,0.061528650828203135,undefined,1496159986820
903d185fccf839df,-0.2953024685099899,-0.838147953528967,-0.461049268210499,-0.44230376551380235,-0.922453362662911,-1.895754897709499,1.9382241283097505,-0.7707995147076887,-0.3351041946192815,-0.670339992531303,0.05960766132131069,-0.06667274205133011,-0.865286597593583,-0.700269228320484,-0.9107587420304302,1.0458179348245917,-0.5082944436720156,-0.7677071869885352,-0.913477754611736,1.0316500162043971,-0.5054304509096638,-0.3289548657546902,-0.1600505229087056,0.04309928322653655,undefined,1496159987314
903d185fccf839df,-0.08047016574868016,-0.8205374743573329,-0.46679174671967016,-0.4651045256557768,-0.6496458204136881,-1.8900109939042686,1.9330802285447721,-0.7396813441734188,-0.238180007700321,-0.7529819011983864,0.06403032576634426,-0.3691602195096309,-0.7695451760249554,-0.7882234747256898,-1.0107588592843104,0.03147277181716529,-0.8438043268841375,-0.8162365340838733,-0.9541572130548542,0.3598928319812078,-0.6973926252833277,-0.33482582833289587,-0.2860030065751119,0.021901159542650418,undefined,1496159989721
903d185fccf839df,-0.20798345819534883,-0.8299297435552675,-0.5650451575579473,-0.6244860213878225,-0.6293418525672583,-1.8698211482823286,1.9461345834135284,-0.6314087012620893,-0.25203467536713114,-0.7344842729401765,0.0779531856191029,-0.5404180258977216,0.9494485294117647,-0.8132209658633103,-1.039179956671513,-0.20089715687566542,-0.9247270551683745,-0.8979631714433367,-1.035642072824373,-0.10293824029383682,-0.8582465833326011,-0.4103050431752344,-0.6045253151424768,-0.37132927296823964,undefined,1496159990267
903d185fccf839df,-0.1913512986167598,-0.8774779876310922,-0.5286786683693576,-0.6169783563826033,-0.8050318431912119,-1.7783728887059032,1.9247726715467013,-0.6934082204487767,-0.3410292626191859,-0.7450885243202737,0.0470724050896112,-0.794328979072922,6.189115418894831,-0.8206276336214386,-1.071811567099669,-0.3241542089329143,-0.9808333468560811,-0.8966585840436574,-1.0535049317755136,-0.2999305499803213,-0.905088432747689,-0.42643445817585973,-0.6432456255365784,-0.39321617935430814,undefined,1496159991762
903d185fccf839df,-0.25372196604728814,-0.9044806775446761,-0.5880135467729353,-0.6651800075387158,-0.9622590115661397,-1.7342501097938374,1.842186237677577,-1.230826571678147,-0.3568293516238972,-0.6573404802572269,0.07573906981952669,-1.113064954192156,6.324023785650624,-0.8354409885638572,-1.1202326732131802,-0.5504623158567774,-1.0067081155528466,-0.9226806496915743,-1.1226824006807725,-0.5866034088403754,-0.9981048669230609,-0.4094336991468338,-0.6252963238509675,-0.4867077229424606,undefined,1496159993272
903d185fccf839df,-0.8607963772577532,-0.8868702276010344,-0.6588328739209564,-0.735920868295479,-1.5559391597077095,-1.731303620641598,1.8320877819019588,-1.4039564513363967,-0.34135156706176273,-0.6730955358393924,0.059096281568362864,-0.7973757834282684,3.4082623106060606,-0.8965460258982357,-1.177074853263118,-0.5241943767721086,-1.0151398104677456,-0.9618752385428131,-1.163067993030368,-0.6679226011000133,-1.046639509523775,-0.4091294206502568,-0.6152213073036198,-0.4830905447700587,undefined,1496159994776
903d185fccf839df,-0.6833865025590882,-0.8886312725953985,-0.6837154226390014,-0.74882999438306,-1.4398136416998046,-1.7593010745597641,1.8457943301247433,-1.3428755720726966,-0.29344654606906523,-0.6691904564417438,0.07668757829054432,-0.4853841996229831,1.3498217468805704,-0.9122851993360872,-1.1970748840761278,0.009246094353010794,-0.8531726533080346,-0.9656116763533674,-1.1687424065228948,-0.14368252756397704,-0.9286366953857561,-0.4011655281975074,-0.5428896118539797,-0.43537971307818935,undefined,1496159996272
903d185fccf839df,-0.7055627325832451,-0.807036129400541,-0.5267645088663006,-0.5719242922315149,-1.4037622723736582,-1.7957769614018368,1.8791481656887101,-1.1375355984940214,-0.29818532065831166,-0.713201560127325,0.10976775776346533,-0.20469137716286112,-0.7651932932263815,-0.8076659674729841,-1.1676011492258946,0.13452375602197567,-0.7841104438795095,-0.8907119506115962,-1.1528596458389548,-0.037371661804829766,-0.8634929952683923,-0.42315481528687887,-0.5580939714345546,-0.46174120663493723,undefined,1496159997783
903d185fccf839df,-0.6099277632482436,-0.6520639945285408,-0.052083956815982546,-0.0683231258027781,-1.2579625163472343,-1.8509659564418313,1.9443752485626757,-0.718132492350833,-0.30076572223505177,-0.7933148616964545,0.08723510439393617,0.09015600893133385,-0.8087121212121212,-0.806740132789083,-1.1602327348391999,0.9387256607345456,-0.5141001428100479,-0.8810795428741065,-1.1342131446140449,0.4783068810037386,-0.7465886367830511,-0.43930592700418974,-0.5013229562809284,-0.3688595910099889,undefined,1496159999279
903d185fccf839df,-0.6653683296822834,-0.43134617986694507,0.5112799709681756,0.4651625698092888,-1.294168169862628,-1.828863806614848,1.9057749577075398,-0.9163713676747839,-0.34519784892255256,-0.765371360711983,0.0557958626259165,0.043256909691733264,-0.669451871657754,-0.7660034423120619,-1.114969526390313,0.7993038024453726,-0.6780296123281258,-0.8296307077081342,-1.107870151828516,0.6983506674273839,-0.6685657856173589,-0.4465100287197088,-0.5356316985943244,-0.4398123762788084,undefined,1496160000834
903d185fccf839df,-0.8164439172094393,-0.45247874902730734,0.2120522650194303,0.18266456823745605,-1.3926022907088211,-1.8299166228618247,1.9538504414411704,-0.6164452740866825,-0.3565038215857283,-0.7582577415013151,0.000016043272178015567,0.07929761138938501,-0.8348234180035651,-0.7391542591427837,-1.1044432032956435,0.7427268181114891,-0.6810341725162578,-0.7900434765205337,-1.0660642068954231,0.9001472973703357,-0.5981275541964075,-0.46088363981338026,-0.5798837204929124,-0.4940581880268278,undefined,1496160002283
903d185fccf839df,-0.7817935502486357,-0.4554137363339373,-0.01380330812433584,0.028441976489749995,-1.3987634230988286,-1.8242193036846577,1.9431786801303033,-0.6816012400913978,-0.36639917693962826,-0.6593419521550768,-0.004176468278388643,-0.012163972620390744,-0.9479723707664884,-0.7613742721302498,-1.087601066466141,0.5952223659194835,-0.695545650330759,-0.7789861565331442,-1.067463569327675,0.7251901640598484,-0.6349510242661823,-0.47153335082059866,-0.5900267819827436,-0.47857219001682993,undefined,1496160003781
903d185fccf839df,-0.7762494970557727,-0.4225409841231166,-0.06612044880653577,-0.06188727856712929,-1.3213532663550973,-1.8528526401897225,1.9310053120406732,-0.7973062143237637,-0.3550710591517889,-0.6888454999711213,-0.019023502745439087,-0.01962856134751943,-0.9479723707664884,-0.7771134455681012,-1.0507589098669794,0.3446670001844715,-0.7596064429696583,-0.7940775629939789,-1.0497196575133083,0.6673844008641622,-0.6536623547331695,-0.4822426968883386,-0.5793612432334627,-0.503914249756964,undefined,1496160005282
903d185fccf839df,-0.7651613906700467,-0.4413254056070163,0.11379885418115318,0.0627047467702468,-1.3636686229270851,-1.8764571505521574,1.9070688147265227,-0.9866090909001503,-0.36997199452440965,-0.6559141168762778,-0.01751265655410021,0.028147388174252566,-0.8696384803921569,-0.7243409430526887,-1.1033905658326129,0.09815289606997377,-0.715544933732392,-0.7621658598755774,-1.0606906571942694,0.3393359190495493,-0.7095802737907485,-0.4778123025074021,-0.5809544641842984,-0.4935962860696781,undefined,1496160006769
903d185fccf839df,-0.7540732325262062,-0.4536527351815616,0.1329389243900271,0.10983503046539685,-1.386986298741457,-1.8623023640671488,1.8872505927790073,-1.108804421405835,-0.3557675650849556,-0.6686332768439018,-0.041300903974658236,0.050019661870016476,-0.8609347147950089,-0.7150825767875153,-1.108653720017714,-0.07359880080081994,-0.8050101521682984,-0.7710193153691114,-1.0725782385006033,0.017570000176860886,-0.79011301394,-0.4620032133246742,-0.615766384180921,-0.4874236850599692,undefined,1496160008277
903d185fccf839df,-0.9079208639024985,-0.5434661468061033,0.0563776270067337,0.053555430047854916,-1.5066603829458203,-1.8897780690166306,1.9024929367968648,-1.0608210891141772,-0.30030867147477536,-0.7461155423010949,0.00634151622266901,0.036919374588521695,-0.8391753008021391,-0.7280442429359697,-1.1202326842565309,0.4699446971843383,-0.6460165565893766,-0.7539203670525866,-1.0855643196222915,0.46604972396150385,-0.679125010524434,-0.47150226510894055,-0.6516478014155495,-0.5197622683337589,undefined,1496160009773
903d185fccf839df,-0.7513012231824795,-0.6291703803738143,-0.27602638700448934,-0.34815879330115407,-1.400285705824408,-1.9040563056893873,1.9227950425816904,-0.9386909876523291,-0.26729532249881954,-0.7315599227851042,0.03541954162936212,0.012729511360306506,-0.9218610739750446,-0.7141567388659205,-1.1076010825546834,1.421650912765306,-0.5181116517866123,-0.759297036339889,-1.0621809773482322,0.9218745013506694,-0.564215219686656,-0.4716502801911707,-0.7241430158198747,-0.40280394261009667,undefined,1496160011279
903d185fccf839df,-0.6404200558089901,-0.6414977245623558,-0.2811304734967089,-0.3533119784925035,-1.2026768940252732,-1.8960949660219086,1.9460662085234737,-0.7466846146596423,-0.1840556818710025,-0.8220889812602007,0.0503681881610373,0.011161293839658673,-0.8565828319964349,-0.7465609301386057,-1.05075892091033,1.4034654474584032,-0.6133265272055625,-0.768612795254656,-1.0328923258317515,0.9314831313360766,-0.556408804763061,-0.47255783913051563,-0.7279098801250595,-0.4461817787986976,undefined,1496160012836
903d185fccf839df,-0.47964240969973365,-0.5182245165008798,-0.1854285976306427,-0.1922196087592653,-1.0452748732278445,-1.8223629001693689,1.9042312562654877,-0.8907408943763221,-0.21641360631753018,-0.7660992736769918,0.035696954048721176,-0.039260259814733786,-0.8913978943850268,-0.7965559836431066,-1.0518115583733607,1.439836378072209,-0.5499638174660446,-0.82319010414879,-1.0285612993546698,0.9145910359410733,-0.5859725626591632,-0.4671321934781317,-0.646654064372606,-0.45443543721546475,undefined,1496160014272
903d185fccf839df,-0.4782563964015179,-0.3168781675492975,0.26500728944468294,0.2554224404574027,-0.8918842718247805,-1.7464739578234616,1.8942669157526677,-0.8148063501657608,-0.25516088922710123,-0.6897864076629328,0.04610348695094612,0.028297623274702772,-0.8696384803921569,-0.8141467940718241,-1.0433904807558172,1.4216508845005844,-0.5606913697816562,-0.8355140129823913,-1.0230408154873327,0.9317757010725917,-0.585666939190745,-0.4671617618664887,-0.6374481057402188,-0.4660114836438208,undefined,1496160015773
903d185fccf839df,-0.4782562928852887,-0.37029653237834376,0.5380764250523283,0.4670674963542001,-0.9306819209018443,-1.7391065742385343,1.9117314515537192,-0.6926707258788584,-0.31540804143889667,-0.648427773071497,0.05092945417297143,-0.013958383763706932,-0.8783422459893049,-0.808591805394579,-1.0254957175066348,0.5184392996008008,-0.7589844416477328,-0.8358433262197157,-0.9936122285118342,0.6380195553417485,-0.6484947558368853,-0.46072669234247837,-0.6321682020856891,-0.45420933104982425,undefined,1496160017427
903d185fccf839df,-0.3923233993850926,-0.39319014653307016,0.49788161685762455,0.41123654658070663,-0.9515001726839589,-1.7399497585663013,1.910521739865398,-0.7115977993210001,-0.3236023283118494,-0.6458724502146213,0.06113478922433561,-0.018343085046835936,-0.8913978943850268,-0.8011851279233697,-1.0223378124797768,0.16685352394179248,-0.8304835307613582,-0.8405803683617015,-1.0087743176693595,0.4171288536242809,-0.7026630972593022,-0.46064623079584016,-0.6684047065569672,-0.4989110473199563,undefined,1496160018853
903d185fccf839df,-0.35628701912607325,-0.39319011730507786,0.5048993545790024,0.41133872552115586,-0.9708269978293481,-1.7526324662991697,1.920220460276933,-0.659497197319669,-0.30640721839036567,-0.6955550391582722,0.023510345769450394,-0.044957362725423014,-0.843527183600713,-0.797481789187765,-1.0097062365457474,0.10421471783894139,-0.8506953666895796,-0.8307136423670114,-1.007409939523939,0.30222565416180946,-0.7288271766515328,-0.45676894836985704,-0.6450034057772289,-0.48094321703704546,undefined,1496160021964
903d185fccf839df,-0.39648143927973983,-0.40316945995711845,0.6050679414681341,0.5286084077715609,-0.9288922107814539,-1.768010104100208,1.9484935040263964,-0.4907435704948679,-0.2987261323444469,-0.7459087201777125,0.031152680163880557,-0.07507944881286069,-0.8348234180035651,-0.7947042948491424,-1.0507589061858624,-0.049351527857310215,-0.9127763136278267,-0.8312646085555312,-1.0184369136429772,0.03678725174719465,-0.7974323664846671,-0.46405668610177603,-0.6222019214913646,-0.5032429716524899,undefined,1496160025128
903d185fccf839df,-0.35628701912607325,-0.412561729155053,0.28733779491661826,0.1812767578938329,-0.9927149623435261,-1.7602910025968526,1.955870110598337,-0.45444186981754214,-0.34200709319948963,-0.7693692988538015,0.028023668765647027,-0.050682631748730736,-0.6563962232620321,-0.8113692932578143,-1.068653669435045,-0.1281552673833324,-0.9158299245143112,-0.8442661420248768,-1.0353761929161052,-0.020202394109084823,-0.8156938288748582,-0.46745816951860253,-0.6505464501893182,-0.5309883289911534,undefined,1496160026287
903d185fccf839df,-0.2883723330080917,-0.45893588477865027,0.4085601032437822,0.28330055457418574,-0.9001642579067387,-1.8035426435996271,1.9785495670944728,-0.33159040405276335,-0.4131391344542696,-0.8404869106763139,0.0386227578402309,-0.0810076975936756,-0.3778757241532977,-0.8187759772044109,-1.0518115399677763,0.20322445455559823,-0.8191237727434294,-0.8301436779121995,-1.0468649568772082,0.2593717816694772,-0.7522149294421966,-0.4756420714206615,-0.5742121387812898,-0.5327898318029325,undefined,1496160027809
903d185fccf839df,-0.2634240591347984,-0.40199534227689865,0.425786522223498,0.4241047541693757,-0.9877983977787785,-1.7748091471801886,1.8952294259154057,-0.8426496266623018,-0.4367985371003244,-0.9718545095790454,-0.009602415815156622,-0.027074015025144126,-0.8304715352049912,-0.7298959317299338,-1.0244430947680718,0.22140994812722262,-0.8014478849787714,-0.78800427063854,-1.0344316238025435,0.3654208764408011,-0.7044738884236135,-0.4459714154481281,-0.5868018455397365,-0.5599367436144651,undefined,1496160029278
903d185fccf839df,-0.18442123212568104,-0.4143226572374478,0.8679283958174415,0.8493000127311153,-0.9916246764769325,-1.7675419224948565,1.8986823615294988,-0.7997705203145491,-0.47821693637952467,-0.8860045030598463,0.014363427766924333,0.10975508153982862,-0.8696384803921569,-0.6984175719034562,-0.9876009308066763,0.5305630279329007,-0.6591004669889158,-0.7519951532432358,-1.0109293363981058,0.756233415984524,-0.5951317781723068,-0.4337891531025985,-0.5852764898582781,-0.5991662826308152,undefined,1496160030764
903d185fccf839df,-0.5905235080624035,-0.44073847829287194,0.4270622897096034,0.4242112894495726,-1.293407029578119,-1.754703158096924,1.908515200346397,-0.7969106244580979,-0.4182565760300531,-0.8392677297923055,-0.010881622535598419,0.009675024747609675,-0.9001016599821747,-0.7567451084238248,-0.9076008370035721,1.480248570306529,-0.3744963709020345,-0.779271141611933,-0.9572777910606418,1.4147479320620788,-0.4355476586866937,-0.44956381754792857,-0.6676813306752968,-0.40860029455165486,undefined,1496160032339
903d185fccf839df,-0.755459228571717,-0.430759194096816,0.03978960004396955,0.09808932525039073,-1.3507806489070218,-1.752804830411733,1.9017618503864493,-0.8654576272490362,-0.41303400737844226,-0.7000732034226869,0.04368115060471225,-0.029130387980978893,-0.8609347147950089,-0.7641517923704214,-0.9202324055753677,1.2498993148210378,-0.49947691250570625,-0.7737298157281152,-0.9753715439877291,1.5093097887382914,-0.4197808435388467,-0.44158033493175025,-0.697712980474215,-0.4329804728982018,undefined,1496160033778
903d185fccf839df,-0.8510942841702429,-0.4976789038826542,-0.0035956434137955655,-0.03162229041297181,-1.460127893204742,-1.7686226933915936,1.908736094409647,-0.8696422716056463,-0.3821107567136692,-0.5065762137223613,-0.008656943379479533,0.05133463277675969,-0.852230949197861,-0.7197117469693275,-0.9423377113144388,0.8316335562328285,-0.48480435298257507,-0.7477520807634532,-0.9670663296912103,1.2209738979046618,-0.476830082760972,-0.442026878735266,-0.6983474392119534,-0.36759951521402523,undefined,1496160035276
903d185fccf839df,-0.78040753695042,-0.4231278822092686,0.2158805840255444,0.16546114494873185,-1.415446824277376,-1.8101297357994424,1.9524723992856972,-0.6292595138531325,-0.3745444300894151,-0.5134404875870283,0.006807468291653703,0.012220885769409872,-0.9044535427807487,-0.7076759187424678,-0.9633903795904792,0.7609122551536704,-0.5403869677761355,-0.754895641652338,-0.9833688996211061,1.0405041179338366,-0.520687497718264,-0.4606183051110628,-0.7440230278441139,-0.3221163774620245,undefined,1496160036791
903d185fccf839df,-0.8732705314471046,-0.4912217389033189,0.3032884464102285,0.17708328607517193,-1.3652320506794018,-1.8308576353857875,1.9597175230171078,-0.5963211405112353,-0.33732902739007103,-0.604603941626475,-0.015941379225657193,-0.06527087740161627,-0.7695451760249554,-0.754893452006797,-0.8876008356394974,1.3064762991549213,-0.6145435105842932,-0.798048318906707,-0.9635189479163714,1.1995854580682823,-0.49361597027203646,-0.4923651941034432,-0.871348755449948,-0.2190095138533334,undefined,1496160038273
903d185fccf839df,-0.8954467442185566,-0.7859035894681711,-0.2702839084953182,-0.34318808476524365,-1.3565920637747255,-1.7740754412227313,1.9012648316733645,-0.9447729620048082,-0.2908401203997657,-0.6539583913244228,0.026270065843592594,0.011726055942293383,-0.8826941287878788,-0.7298959187791594,-1.04023258677231,0.13048253679854366,-0.9157497970132343,-0.8140200028167962,-1.0329972795425182,0.509134564385029,-0.6827545338833683,-0.4749883930812894,-0.7994562490797045,-0.42004147818724696,undefined,1496160039788
903d185fccf839df,-0.45053606142638336,-0.6491289487659262,-0.4144746060374702,-0.46222911270067296,-1.0887833703862242,-1.823921159491411,1.898926926442726,-0.9600243781967954,-0.37970887559672656,-0.7622924168799109,0.012278350629771312,0.0367177114999058,-0.8913978943850268,-0.6928625767508237,-1.0307588900973204,0.4699446123901737,-0.7871137301240061,-0.8080037064672272,-1.0186188333805755,0.70240045026005,-0.6317043760395374,-0.4729950630607774,-0.679583029121887,-0.3890410529220519,undefined,1496160041289
903d185fccf839df,-0.21629953798464335,-0.5170504572766447,-0.4100084032883034,-0.47761053348060944,-0.9253024993722099,-1.9010935126857718,1.9566459146666126,-0.6181116215273532,-0.37928747484523734,-0.5577595445200351,-0.03473465549528309,0.09844116032741138,-0.8261196524064172,-0.6632358862921485,-1.016022061323931,0.8094068010406898,-0.635269767475208,-0.7568588548345828,-0.9989228104935786,0.9721658174605486,-0.5436519969531152,-0.4750666670446157,-0.714990449961946,-0.3795435934173542,undefined,1496160042820
903d185fccf839df,-0.14977093417569698,-0.5540323875442958,-0.1758583083892563,-0.2938907295738178,-0.9088556720702881,-1.9164059320840834,1.9579424030603423,-0.6027830177254648,-0.3697861035777597,-0.5112296886657454,-0.0740062021543709,-0.03206703626048216,-0.7086188168449198,-0.6752717339451699,-0.9928641107595956,0.7063557179093541,-0.649868918751518,-0.7502409284702416,-0.9761481910471748,1.0930744099739562,-0.5090983028213808,-0.4604637616165805,-0.7220391263381888,-0.42753007761967776,undefined,1496160044325
903d185fccf839df,-0.2772842611277754,-0.39495119152743435,0.06594791624812009,0.05405489916381388,-1.0158166351352085,-1.8886530467376135,1.9819604174729735,-0.41383044459450674,-0.43938421839610886,-0.5089518278156409,-0.07470779726760328,0.010704275810766847,-0.7086188168449198,-0.6947142396432389,-0.97602197761121,0.5992635144811117,-0.6401075347336992,-0.7543763413947351,-0.9545980131126977,1.1056857372521836,-0.5158602613368212,-0.4599407290712303,-0.6450619705764412,-0.3743435094831837,undefined,1496160045774
903d185fccf839df,-0.6667542739696797,-0.4066915207178544,0.541904489921493,0.49058818444838215,-1.1523901216323118,-1.7351095976640167,1.9428788731077515,-0.5085370671609156,-0.45869297197355036,-0.3561597752686664,-0.1526070610484964,0.0032364888055879727,-0.7390819964349377,-0.6428675491478719,-1.0202325670026506,0.47600649068858436,-0.7705895164998391,-0.68340304157452,-0.9847752579711438,0.9584304101939628,-0.5285001382170025,-0.4435354133401967,-0.6045931224459058,-0.4705219756444846,undefined,1496160047281
903d185fccf839df,-0.8386201299808914,-0.44191239137714533,0.4398225059401523,0.37465591537205223,-1.354956640680321,-1.694278033947542,1.9116341514443684,-0.7024638239844757,-0.3824011634043041,-0.728546703072788,-0.10447299698549838,-0.04716265192639273,-0.8087121212121212,-0.5984275361237144,-0.9833904251279566,0.613407916020551,-0.6938535604649725,-0.6523272867059443,-0.9814867566572426,0.793189696633198,-0.547819340934713,-0.4458369864391035,-0.5886457845986709,-0.4428939589628576,undefined,1496160048785
903d185fccf839df,-0.6612102207768167,-0.5047230546321185,0.518936100706505,0.3163660931237275,-1.1204427458666295,-1.749133947643022,1.9096539141500912,-0.7401152289186789,-0.4335551852540849,-0.4354406516620587,-0.1786360476379453,-0.02565170105448707,-0.7390819964349377,-0.6123150207676018,-0.9897062057327376,0.6538199669312634,-0.6478579435008855,-0.6107958418259946,-0.9571448511768542,0.8356894101574908,-0.5115092078048806,-0.41129997337287,-0.6704935347741727,-0.4352314005531066,undefined,1496160050267
903d185fccf839df,-0.5239948352426377,-0.5446401329603575,0.5718908709948082,0.42128597283916236,-0.9722669958628505,-1.8617945902827953,1.932601598029258,-0.7126243987111299,-0.3578184044468036,-0.2882399216135777,-0.14784698470944538,-0.10618598819509806,-0.499728442513369,-0.6058341812179873,-0.9570745916234645,0.7306031180441107,-0.6169109375004699,-0.615127573507451,-0.9393379670858677,0.7816254689898549,-0.5218959340803002,-0.3940997419952477,-0.6476008450092935,-0.45550299535379357,undefined,1496160051786
903d185fccf839df,-0.5198367953479904,-0.6667393987095678,0.965543922912666,0.8497528088057933,-0.9987629522621612,-1.9080625979015637,1.9622710742268084,-0.5821545708188253,-0.34929212297150974,-0.08744836101034291,-0.13142545618673795,-0.0498041627477408,-0.8348234180035651,-0.5086216009245444,-0.9633903648660116,0.6598817887002311,-0.5550533762698195,-0.5139334679204013,-0.9488256423471401,0.6857239478155991,-0.49801254469103995,-0.3962728909194266,-0.6284486551440367,-0.45155263381047034,undefined,1496160053271
903d185fccf839df,-0.566961247487326,-0.6215392000122324,1.3043280450391634,1.3509248670165783,-1.127766163882468,-1.916214934915809,1.9829518675203126,-0.46468430645124176,-0.35975212222977787,-0.2423652384460361,-0.10111728858376354,-0.07088515973066654,-0.7260263480392157,-0.45121996060425607,-0.9528640417713421,0.37093490393823836,-0.4845317394603379,-0.41734341001158576,-0.9442497284742216,0.5432113337832124,-0.48399329308069267,-0.4132123933740741,-0.6244464648101574,-0.4324479882825001,undefined,1496160054775
903d185fccf839df,-0.5045905455513879,-0.5340739068361611,1.3898217479207906,1.4062909210080228,-1.2744093475541733,-1.8895218530696176,1.9248094814625396,-0.8377850588182619,-0.3940809031012824,-0.4113067419820804,-0.09065767492539235,-0.009555624339695961,-0.8957497771836007,-0.4364065797602884,-0.9781272451750374,0.28404881075951677,-0.502266287498928,-0.36047990805127333,-0.955087789354115,0.34016743286890544,-0.4927579018099836,-0.4245266584155356,-0.6225645510588712,-0.4791850469080099,undefined,1496160056316
903d185fccf839df,-0.5267667755755449,-0.5757520155447681,0.9534215904251698,0.8800435690747025,-1.2606059423926175,-1.9060734265829549,1.9745706655500415,-0.5334127521347325,-0.3255348169529238,-0.5417765113156348,-0.05832163326558736,-0.04245305484475594,-0.847879066399287,-0.4752915911564263,-0.964443009691276,0.3830585757408952,-0.4821239994833859,-0.3957544039301701,-0.9472583581238055,0.5993540643591321,-0.447347991909585,-0.4766214540903803,-0.7184712147757126,-0.3149450494880263,undefined,1496160057805
903d185fccf839df,-0.7069487286287559,-0.6591082037339897,0.4570489249198681,0.3856426294070555,-1.3962537130754562,-1.908824258352487,1.9229764974493995,-0.9212795295326771,-0.3437992440977971,-0.703471466322426,-0.01806096047293042,0.0330390773571975,-0.8130640040106952,-0.451219934702707,-0.9781272525372712,0.5063155430039794,-0.4824066663289297,-0.4629912672575571,-0.959768655640983,0.9943549871357467,-0.39046396926341725,-0.49395789878812024,-0.849381545620515,-0.24355913616147662,undefined,1496160059281
903d185fccf839df,-0.8011977191709514,-0.5276167272428296,0.1903601515644466,0.10867096585771424,-1.3928800056571538,-1.8593884850440707,1.8828430369363283,-1.125192352781666,-0.358886363652521,-0.7716780443988304,0.04377881786178828,-0.02905000741090723,-0.7826008244206774,-0.49103078402043965,-0.9949693709611892,0.5810781339683735,-0.516852444289753,-0.5148327442560544,-0.9791078407940117,0.9209198027544411,-0.431506917030028,-0.5054128414095459,-0.8005803065024227,-0.20021941750289274,undefined,1496160060765
903d185fccf839df,-0.8441642004264592,-0.5575544921470204,0.07105200274033965,0.009772331399155718,-1.4274399477264132,-1.872886426870141,1.9057486450075982,-1.0047277617904824,-0.34326761499965186,-0.7263907062638248,0.05015756472316779,0.0645566592217422,-0.6085255124777184,-0.5641716431062905,-0.9939167555848599,0.6214902414085289,-0.6059717125384941,-0.5849700941543705,-0.9711104863228762,0.8504257206590996,-0.47714219612173303,-0.5007154825668596,-0.7799100435359355,-0.23793050412015088,undefined,1496160062285
903d185fccf839df,-0.824759979746029,-0.553445416388163,0.27904378143523617,0.28363446787081137,-1.4481759142122932,-1.853658556885258,1.9117998348239478,-0.95070683356531,-0.3662851547555083,-0.6406041464975991,0.06139924948624527,-0.012773372513807956,-0.7390819964349377,-0.6123150207676018,-0.9854956853295502,0.5285423829902828,-0.6852572591675988,-0.668951260880372,-0.980675126589431,0.8602499300250518,-0.5189222274849719,-0.4816102879862832,-0.7408415056104347,-0.24912476355742927,undefined,1496160063780
903d185fccf839df,-0.7069487631341657,-0.5211595914914867,0.7537243334855542,0.6364841510684442,-1.3775543177120029,-1.8351643977183525,1.997116002593293,-0.3541060738604811,-0.4022107590958499,-0.6481098899946404,0.035459059845257906,0.0837429304925864,-0.7303782308377896,-0.5752816334115554,-0.9760219702489762,0.5325835032871894,-0.7311043142154819,-0.6513266782718435,-0.987413055249574,1.0031782986785238,-0.48546252446064103,-0.48175637389305404,-0.7617041123947818,-0.27241680393686535,undefined,1496160065279
903d185fccf839df,-0.6917026168537924,-0.6256483196130783,0.9617158580435013,0.8675938667378779,-1.3809280271968436,-1.8835683175707845,1.9880431691209746,-0.46565261389133944,-0.40623159387637653,-0.7006189882963585,0.016230887806177964,0.01570877158581802,-0.8391753008021391,-0.5947241391096243,-0.9960219716130508,0.41942953461942245,-0.7793324144416418,-0.6317895481842525,-0.9911143685030722,0.7958690228560481,-0.5238879994490133,-0.46278834468686486,-0.8282300384036614,-0.3786405524555801,undefined,1496160066789
903d185fccf839df,-0.7873375689360891,-0.5622506121319915,0.762656230709989,0.7351682962726095,-1.476574721863017,-1.8789471066508714,1.9670546903935064,-0.6076332719787653,-0.37834475167165466,-0.6118079443640753,-0.0054685888716666,-0.029692308212101542,-0.7651932932263815,-0.5151024793264826,-1.0339167767185937,0.10219415769048808,-0.7869737346101231,-0.5795617622470776,-1.0161419615227798,0.18813857450234747,-0.6513382605571417,-0.4388716736282993,-0.6737781582877789,-0.5261285441009874,undefined,1496160068270
903d185fccf839df,-0.7554592458244219,-0.4090396099383323,0.7664842955791537,0.8102089601882845,-1.3720103267622044,-1.8636836018664282,1.8979460144646343,-1.0229664991131004,-0.36866457012443876,-0.6478396215339438,0.02007270509479763,-0.06013617000422465,-0.6563962232620321,-0.4873274711863841,-1.0233904573050412,-0.04935147132786714,-0.7402116694383577,-0.5556738985907584,-1.0129654091890221,0.27018149209594594,-0.6222790486093588,-0.42488085879143067,-0.6786383082044148,-0.5133448291621566,undefined,1496160069830
903d185fccf839df,-0.7499152098842637,-0.5088322473029452,0.4870355601301327,0.43069427056269777,-1.2777419129625247,-1.8421614310693852,1.9229212888607725,-0.8376719415044426,-0.3330498562000371,-0.6924389077389276,0.024480516511383704,0.024215090540921316,-0.7129706996434938,-0.5299158083673521,-1.0233904720295088,0.6194696247306325,-0.728209515383278,-0.5813033214427704,-0.9906875630151266,0.6474434042241219,-0.5412244035633783,-0.43506646587586817,-0.8066688878209134,-0.4926083863901246,undefined,1496160071275
903d185fccf839df,-0.6612102552822264,-0.6808277878924734,0.03085770281953474,0.05046709874133786,-1.2557510916400043,-1.8024828409238567,1.8853334718153794,-1.0577154350946802,-0.34538194608179495,-0.8080077442233369,0.04050183739768373,0.10839914332227357,-0.5127840909090909,-0.6706425508125832,-0.9960219936997522,1.134724701210653,-0.5784413010530354,-0.6663167577058167,-0.9587751081845247,1.4317170270751212,-0.3884004723921315,-0.4632980298559529,-0.9314416865067654,-0.4031497115217356,undefined,1496160072770
903d185fccf839df,-0.7235809399654596,-0.5792741347614887,-0.1088673002473493,-0.13138357624311944,-1.3710743256510054,-1.715136372020975,1.9371669336995816,-0.5868888223118752,-0.2865429181978734,-0.7842494452401856,-0.04319073679740864,0.09347847035875559,-0.47361714572192515,-0.7317475816715744,-0.9318113734953016,1.0357148514351098,-0.5314032971762737,-0.7208244031730695,-0.9191381745987338,1.3899718427626204,-0.41505403516491185,-0.4727144925324591,-0.8461587370468647,-0.4079071145049289,undefined,1496160074259
903d185fccf839df,-0.6806144414572469,-0.34388088669087363,0.08253594321088424,0.09982987280819096,-1.265954503646307,-1.6514037279665936,1.8866720307793965,-0.7552923063617454,-0.31396989411126797,-0.7330157493761084,-0.10366114837673529,0.03320572784932336,-0.8087121212121212,-0.727118430915924,-0.9254956076149883,1.114518534431689,-0.567519159122731,-0.7362007896300339,-0.89795882768354,1.3273001694327515,-0.4277693872593653,-0.47491331916683194,-0.8331798639013401,-0.4448394535317146,undefined,1496160075771
903d185fccf839df,-0.6251739095286168,-0.2751999565427173,0.31158195161771174,0.31340292303004336,-1.3286766835127126,-1.6410991715828673,1.8856779640226162,-0.7258154790289655,-0.35024660256146417,-0.7335345485921316,-0.13625879131016141,0.08721472249759223,-0.7086188168449198,-0.7178600646507506,-0.9254955708038194,0.8457777033897741,-0.48423254735577975,-0.7362831180030367,-0.927954155997494,0.961001949129563,-0.5179873668708618,-0.47170968945193853,-0.7565236359530954,-0.3784108991555055,undefined,1496160077301
903d185fccf839df,-0.5960675785079714,-0.37557963813344386,0.19674000554277163,0.0909702942552976,-1.2113168809079438,-1.6758304588093456,1.9392339780773997,-0.41537293556257315,-0.3946421966942284,-0.43666357722476035,-0.12204206051108704,0.000429474853126871,-0.6172292780748664,-0.644719212040287,-0.9328640404072674,0.47600654721802743,-0.7490779633345586,-0.686119870951705,-0.9469994751120534,0.40567241139692706,-0.6427977395325972,-0.45471837708365526,-0.5792268888690222,-0.4256354435042814,undefined,1496160078777
903d185fccf839df,-0.4269737663458961,-0.4354552556258024,-0.04442833535155205,-0.10627404935738177,-1.0721411131181229,-1.7327361016864553,1.9718067593938595,-0.2915134038634093,-0.34705924260972765,-0.3653144070881811,-0.09570163130345552,-0.050272005622982834,-0.4475058489304813,-0.5854658764506472,-0.8665481600012233,0.7851594857000979,-0.5816057624787018,-0.6103588662650482,-0.8730501810604422,1.1522352386844332,-0.42024102341662195,-0.42556810501507547,-0.113475945050485,-0.17904273691753822,undefined,1496160080261
903d185fccf839df,-0.5323108805265225,-0.4354552263978101,0.12081659190253094,-0.009295085631507684,-0.9951526730357718,-1.8233714587116296,1.9341794958202725,-0.6525107860332184,-0.29424963165060075,-0.37353142177406573,-0.06640722380932865,-0.019277486767895056,-0.43880208333333337,-0.585465824647549,-0.9128640095942576,0.9003341699722865,-0.6327412996793035,-0.6302759738923693,-0.8756390007973108,0.954919560714677,-0.46539212193281737,-0.43325199978807133,-0.061801316395067515,-0.19605414968220536,undefined,1496160081818
903d185fccf839df,-0.4643961944085409,-0.47713337894840563,0.3645369760429644,0.27431990866534806,-0.9771938443741804,-1.858831796944846,2.018399024546298,-0.13054968531056774,-0.35409394184093257,-0.36168258034524087,-0.06093496507977382,-0.036696474766693944,-0.6433405748663101,-0.5910208780786669,-0.9476009133540594,0.7952625125601367,-0.6312710980877483,-0.5909737268976912,-0.8827407642775666,1.0559949564221676,-0.4333593782989594,-0.46718889139507325,-0.03027299586026162,-0.21565340790558107,undefined,1496160083285
903d185fccf839df,-0.4865723899272881,-0.4671541385943382,0.831561398354953,0.923090829455345,-1.1600015381809714,-1.8739881576195418,1.927249946409456,-0.7764139570104691,-0.41304486269622914,-0.6848042135467414,-0.09762300228556488,0.03757331520521959,-0.7782489416221035,-0.5067699250813549,-0.9349692932466273,0.7225206513325252,-0.5933505371793111,-0.5352691548539448,-0.8709021604210383,1.1395777177795805,-0.38817850260007625,-0.48554000044233764,-0.10629415983651797,-0.23710855102922665,undefined,1496160084784
903d185fccf839df,-0.346584926038563,-0.326270436747232,0.12336863514864073,0.08850950087318782,-1.0378794522759403,-1.8055597678854562,1.982767787562988,-0.3035869599398245,-0.36786025690216995,-0.5530695550535343,-0.07736339491426153,-0.10340246746112876,-0.8261196524064172,-0.5456549753298163,-0.9497061441067178,0.8195098561654502,-0.490291231882857,-0.54873299404224,-0.8840351743998589,1.2443641419359568,-0.3750494892910242,-0.4617289879580433,-0.042356384836291894,-0.16387127740072802,undefined,1496160086271
903d185fccf839df,-0.45608008011383666,-0.3245093625248755,-0.22817544907145623,-0.37577762504558415,-1.028961755058139,-1.7225084140906801,1.9129543253533803,-0.673104304859351,-0.310316001622757,-0.6096414758183961,-0.07837124134677932,-0.03514126041890821,-0.6868594028520499,-0.6141666966107914,-1.0076009837063875,0.2496984685588859,-0.7982723110027607,-0.6187246877198026,-0.965226168296069,0.4460163414279058,-0.6058829194976288,-0.4752640080913269,-0.4617213094438666,-0.4156779658858798,undefined,1496160087783
903d185fccf839df,-0.6404199867981706,-0.45306579325342106,-0.4476511682368974,-0.54596957607763,-1.0463034403090083,-1.6911824768921182,1.9120943759544415,-0.6583166755743068,-0.30803713408779365,-0.6080840423356558,-0.006214870389728119,0.060475517273438646,-0.6302849264705882,-0.7002692477466458,-0.989706227819439,0.17493593412393496,-0.7554998205911312,-0.6408203288856964,-0.968395723549799,0.5804139726503662,-0.5973134673346115,-0.4536845583696529,-0.4413448626750265,-0.3867390888537029,undefined,1496160089288
903d185fccf839df,-0.6501220798856809,-0.34270673978266153,-0.10057328676596722,-0.05844477403566791,-1.1212553172870212,-1.644586046259584,1.880323675790459,-0.7809212637159008,-0.3754833674148451,-0.5847762000715664,-0.05732263812022701,0.013967844149689785,-0.4823209113190731,-0.7113792380519106,-0.9833904177657229,0.3022342478016981,-0.7284732702303078,-0.6870571502203284,-0.9918280430595668,0.6191410619381035,-0.6169605014795568,-0.42276432943427855,-0.4650623041457483,-0.36684101891196014,undefined,1496160090779
903d185fccf839df,-0.6722983616679524,-0.32509634829500456,0.18334190556917,0.24021537880502436,-1.211388880833225,-1.6119044895230756,1.869454675553492,-0.8001650659369639,-0.4421642721135238,-0.5189650167170804,-0.06212381684502727,0.06313113918432241,-0.8087121212121212,-0.6808267290978023,-0.9423377186766726,0.2739456708405918,-0.775422441444678,-0.6997293699540499,-0.9587401245093993,0.6030804850204154,-0.618342002320381,-0.4275349486120367,-0.45384077306602305,-0.3714961434641518,undefined,1496160092279
903d185fccf839df,-0.5600312500070668,-0.41901880645041123,0.011717124336761964,0.08267377014317974,-1.1207204617572073,-1.687369508922421,1.9087702792358703,-0.6552454432508844,-0.4147362653141513,-0.5826531816081132,-0.03339089658927316,-0.017887232127549207,-0.8261196524064172,-0.6632358668659866,-0.8886534657402942,1.0437973181466955,-0.522672261173591,-0.7170499704244904,-0.8802988778994295,1.304202502798025,-0.4209765948699674,-0.4536998019035432,-0.6092844741236327,-0.06599411041823605,undefined,1496160093784
903d185fccf839df,-0.5822074972839285,-0.5722298963280473,-0.08908883802152379,-0.04168300789792745,-1.2348608433434969,-1.701000216906872,1.896941411733651,-0.807507227281581,-0.368027841104516,-0.628202735873155,-0.015297940148249988,-0.10157649357345734,-0.8696384803921569,-0.6891592315398318,-0.872863977417173,1.0054057143255501,-0.585934084692585,-0.7357004893772363,-0.8940476109845982,1.3346298322653443,-0.4243504203234476,-0.4494054738081939,-0.6400375352397869,-0.10676703654987743,undefined,1496160095320
903d185fccf839df,-0.5531010799997588,-0.6262353346111997,-0.08908883802152379,-0.0990106440599426,-1.067214270140234,-1.754952386436369,1.920046896390898,-0.7199567485889399,-0.31558293809009785,-0.6261030818433969,0.025707386943104635,-0.05591488543548134,-0.33000501336898397,-0.6224991861020465,-0.8718113252296749,0.9953027439949544,-0.6316370400138478,-0.7129715537273333,-0.8813414031543657,1.3567881952087013,-0.4017914515407776,-0.4553765567061435,-0.701402463952869,-0.14162212044582692,undefined,1496160096777
903d185fccf839df,-0.3646030989153678,-0.5235075930279876,0.19163591905055205,0.18177920151805113,-1.0174520639511029,-1.7154275263573773,1.897919711192389,-0.7791229708464433,-0.3677741848966114,-0.3337666751452697,-0.014822726506923803,-0.04098085013709784,-0.7782489416221035,-0.6502741942421449,-0.861284980048304,1.1327040845327565,-0.5561945635565302,-0.723205591485132,-0.872301523318187,1.4555846216767192,-0.383932622532385,-0.44841689933679385,-0.6260317358296168,-0.1462580611129686,undefined,1496160098285
903d185fccf839df,-0.23570379317048334,-0.4988529923348816,0.44301243292931486,0.5452799792687307,-0.6554058091948239,-1.7793092416129752,1.9189003115084444,-0.6436153677606055,-0.31340886621332,-0.3453249514342715,-0.045364185961594354,0.04529896536737434,-0.7434338792335116,-0.6956400905156082,-0.8265481130996711,1.9995449084070638,-0.25048937397020526,-0.7407161803212609,-0.8438314997386462,2.0914018246161863,-0.24154031590333191,-0.4472705165530255,-0.5113742766287861,-0.23431867030576578,undefined,1496160099770
903d185fccf839df,-0.2703541601312869,-0.58279613706624,0.4359946952079371,0.478816424686017,-0.7895210089203843,-1.7867115641019296,1.9503028255697334,-0.48495815524630725,-0.31792096543432824,-0.47101378024005924,-0.061441472577376546,0.08682758482362259,-0.7782489416221035,-0.6984175654280689,-0.8128638923403774,1.00338521070654,-0.593272741956398,-0.7237375581062431,-0.8972101700024553,1.4254344579405345,-0.4185315863006253,-0.43022504134666234,-0.46225719521310493,-0.5295711109205434,undefined,1496160101276
903d185fccf839df,-0.5184507820497747,-0.6344535153569067,0.6146377224356218,0.485932488636298,-0.9787984089951093,-1.864342778006159,1.9788414778977426,-0.4317434503771245,-0.2580674362620166,-0.8012509479124297,-0.08417002815914885,-0.00185335546810543,-0.8087121212121212,-0.5512099899086106,-0.850758671678102,0.7892006625264475,-0.5021874316120344,-0.7006729769397382,-0.9066208802095089,1.0086601335048053,-0.5006314444872848,-0.42054998585810593,-0.3943749611461068,-0.4969013259713458,undefined,1496160102777
903d185fccf839df,-0.7914956778415558,-0.6450198437790764,0.9438518094576822,0.8797624058483571,-1.2772070554681991,-1.8481731990178294,1.9347632943813313,-0.7704582471364939,-0.33371902544186055,-0.6569574907108429,-0.07444469188450914,-0.0874894931261999,-0.5301916221033868,-0.6049083562471671,-0.8939166015198108,0.9548904952311913,-0.521565964050884,-0.724389851509871,-0.9300462027187711,0.9609711509462888,-0.5268708992438396,-0.4434544178919523,-0.3552115604633815,-0.47699651438298407,undefined,1496160104276
903d185fccf839df,-0.7166508562216759,-0.5264426972465869,1.1594994637539586,1.211797041701918,-1.284839041810519,-1.8465404021072989,1.8606106522666204,-1.2456690318121633,-0.40801166672484435,-0.5873458760071477,-0.03817166679708015,-0.218884042838991,0.3271292892156863,-0.5308416916166578,-0.9486535287303887,0.8821487470624659,-0.6742231047208103,-0.6692362454663977,-0.9354197534170057,0.7728483418654836,-0.5401806495671811,-0.44880108345549313,-0.4912751237630999,-0.46822128197619,undefined,1496160105778
903d185fccf839df,-0.8594103639595374,-0.5734039847802749,1.5295459885768263,1.5072731000884898,-1.3410298047576796,-1.811352585271655,1.8571366876525142,-1.2404657693056735,-0.41081318538031536,-0.5258551773612349,-0.0023641440246825,-0.2456841814850528,0.46203765597147956,-0.6160183595032065,-1.0233904573050412,0.13048255093090444,-0.8052325533390287,-0.6798185944897362,-0.9918700235761543,0.09159032685828104,-0.7118717017089983,-0.43223391790126486,-0.5653135489365405,-0.5847894410072945,undefined,1496160107279
903d185fccf839df,-0.7097207552251874,-0.6080378404414444,1.6998952564600782,1.632084870806356,-1.3029007257860636,-1.8176881158572484,1.8576021665319054,-1.2197075112495268,-0.40168998002658957,-0.7738229162132485,-0.07566867888683095,-0.2540767555688952,-0.3343568961675579,-0.6243508684206233,-1.0349694178627413,-0.2089795670578079,-0.912027282864834,-0.6984184499705766,-1.009725884578645,-0.2088025464501581,-0.7880041888384247,-0.41447104991443773,-0.6118752576220878,-0.5592708488839039,undefined,1496160108837
903d185fccf839df,-0.9009907801587148,-0.697851252065986,1.3087939936513808,1.2185635433592372,-1.381390880208701,-1.8343654672654164,1.8331055247463253,-1.4133330905705501,-0.372515906215828,-0.9310676663525352,-0.07963759423526563,-0.22169014945748206,-0.35611631016042783,-0.5900950077801358,-1.0433904660313496,-0.18675288252747302,-0.8777048153447138,-0.6741759415956667,-0.9959491638707116,-0.14637724906863103,-0.7607331989972558,-0.42927568109129416,-0.6233892282726421,-0.5678387324995704,undefined,1496160110282
903d185fccf839df,-0.8067418241219291,-0.6385626495717488,1.3190026749097188,1.28965833399208,-1.3065315778629092,-1.8543806206269158,1.8820383181239742,-1.100040157426258,-0.38850504847357076,-0.8756062234914811,-0.06305758703799873,-0.2883553191549811,0.6187054367201427,-0.6456450823388182,-1.033916773037477,-0.029145445872510955,-0.9003331083560715,-0.5861860200934164,-0.9796675848505768,0.12177127808866611,-0.6677519934529681,-0.41522700708645033,-0.5912668947192362,-0.5435503566456089,undefined,1496160111785
