UUID,iqrAccX,iqrAccY,iqrAccZ,iqrAccXYZ,meanAccX,meanAccY,meanAccZ,meanAccXYZ, covarianceAccXY, covarianceAccXZ, covarianceAccYZ,pressureDerivative, pressureIQR, iqrGyroX, iqrGyroY, iqrGyroZ, iqrGyroMagnitude, meanGyroX, meanGyroY, meanGyroZ, meanGyroMagnitude, covarianceGyroXY, covarianceGyroXZ, covarianceGyroYZ, class, timestamp 
903d185fccf839df,-0.30431148593757285,-0.2666882682979495,-0.1264126610985914,-0.32601411645434486,-0.9591681660377551,-1.6301418473314053,1.8205858303042668,-1.0937182511070087,-0.15785044805912837,-0.6907286253058267,0.07116851464977225,-0.3865880518848213,-0.38657948975044565,-0.3706724369979705,-0.7254953510205264,0.5669338172230988,-0.6782945001060923,-0.5299051556120332,-0.40401897238393136,0.7718705482262366,-0.34036626017722665,-0.4994972105262427,-0.5437864126171325,-0.44253337609320365,undefined,1498238835129
903d185fccf839df,0.21752303842180395,-0.4695021255168429,0.1303873894178162,0.021780386226287213,-0.5230389238029204,-1.7281179589544498,1.8917231809207964,-0.6325887280106102,-0.4386075056925552,-1.4474800919420614,0.3007681445723487,5.22683690988869,1.0364861853832443,-0.22253892642610826,-0.625495277940049,0.2517189721778961,-0.5614137011884948,-0.4159140325200878,-0.6276864335963395,0.43397203610353374,-0.41671382270516905,-0.5577672719265773,-0.37177952249822493,-0.4374447020145654,undefined,1498238836524
903d185fccf839df,0.1302040626125726,-0.5282037714689434,0.9310915932271333,0.866535183955239,-0.5872512005956255,-1.7607362453592716,1.8724680519257264,-0.8408240475390942,-0.37564758552918287,-1.0067198347320834,0.2569073420014842,3.4387105030597067,2.5335338680926913,-0.2910506995101815,-0.6781268713266952,0.40528521787414773,-0.5750058961786498,-0.42140189112694765,-0.7281760321715297,0.4641768075627077,-0.4384077332260513,-0.478792015486046,-0.48051277424103495,-0.48174487244138076,undefined,1498238838029
903d185fccf839df,0.29929782301653335,-0.6203652138579782,1.921285389265526,1.9459485259889475,-0.3351606324362444,-1.7995084035031863,1.9263610744100261,-0.49193889773006316,-0.2869811250504455,-0.2756769464562051,0.30409349533050933,2.964333700214902,1.8938070967023175,-0.305864028551051,-0.7097058626974052,0.06582308575307465,-0.5728866820272619,-0.3894045366953497,-0.7377404891186788,0.2746279806590814,-0.45654529510228337,-0.4541492941889369,-0.5842914965756606,-0.4600229396405454,undefined,1498238839530
903d185fccf839df,0.31592998259512234,-0.5129412938338103,2.4680610359499706,2.3796601602902245,-0.37596399587070434,-1.7812704604500076,1.8946613946523885,-0.6958763000317633,-0.01432433076496755,1.084730387283486,0.28224047895373905,-0.30802205663302773,-0.4213945521390374,-0.20772562328678787,-0.7770743658420125,-0.07157816999056278,-0.5730840504032491,-0.33576035024699663,-0.7573437262673458,0.19715775535032876,-0.4456709897167574,-0.47367304805063754,-0.6417437587866529,-0.45514530479142273,undefined,1498238841018
903d185fccf839df,0.30484208324185474,-0.347989962449731,2.6722247497757023,2.6205019684627726,-0.26699732058894543,-1.745099704449693,1.9150607885000648,-0.44685179056791435,0.06930536365016583,1.2120105683167302,0.18463410095278,-0.06381324496227386,-0.9044535427807487,-0.1882830787363953,-0.7454953744713025,-0.18069107489086617,-0.6155133067612337,-0.2950606024328275,-0.7898231175358366,0.0730043953560867,-0.45705018978715467,-0.3858135055492304,-0.6526651845904677,-0.5314283249739967,undefined,1498238842601
903d185fccf839df,0.49611191839562857,-0.4160837606877966,2.569504882051309,2.5915865609419475,-0.21838711577298364,-1.7222405512757397,1.8499862384170773,-0.7978541288569264,0.24190937120105568,1.4143993553068681,0.17752193748883877,0.04943162523182441,-0.9740836675579323,-0.15587889393909735,-0.7802322782311043,-0.004898130531918921,-0.573416283812286,-0.26352254312980866,-0.7632912096943957,0.14135809543257952,-0.42305595668416374,-0.385997201655248,-0.7307343238598655,-0.5280832450583208,undefined,1498238844031
903d185fccf839df,0.5695706232010634,-0.4912217973593036,2.971451947450549,2.8868780020111244,-0.24481106989440019,-1.7478388919009302,1.9282361153756706,-0.3052065642156589,0.234191858413521,1.341126341124054,0.08332992144890256,-0.005327262003942261,-0.9262129567736186,-0.21142897497316707,-0.8044428073606,-0.18877348507300865,-0.6166335125275351,-0.2535481564614232,-0.7704489466645839,-0.05646573108881847,-0.45394950106077697,-0.3768421398267667,-0.7361561878956131,-0.4939699730991964,undefined,1498238845538
903d185fccf839df,0.6139233247872454,-0.575165029774639,3.0320628474771816,3.0901764504911498,-0.11471757588040415,-1.786862965179772,1.902832197680263,-0.4782779342851907,0.2530098427659064,1.4872073061697122,0.012317185255376933,-0.0146738745637406,-0.8261196524064172,-0.22161311440606254,-0.8328639157911534,-0.19079401695674042,-0.6066763505876657,-0.2920841195688531,-0.7841976801962981,-0.05815955789355351,-0.4775274700888165,-0.36523528382312154,-0.6958141602551728,-0.4971428540148683,undefined,1498238847077
903d185fccf839df,0.5889750854193618,-0.5810351505278605,3.07863776378716,3.1398641601075923,-0.07886164109362838,-1.8275058595777582,1.9167333560732047,-0.44688769701220266,0.07673171475679419,1.335107363653565,0.006893899758259279,-0.046090427121616546,-0.7869527072192514,-0.24290733479964474,-0.8518112870544312,-0.13017585579650726,-0.7153484862476315,-0.34460322148546463,-0.8010599939992471,0.004065561554970442,-0.4928906281681351,-0.35771841678567035,-0.7308741428614904,-0.5265043510195265,undefined,1498238848553
903d185fccf839df,0.6624337212139773,-0.5540324021582921,3.1264887017201928,3.132273992909743,0.03110274279381825,-1.8460442735871592,1.9409801660059778,-0.23864196396710963,0.13097822528009773,1.1914540660116602,-0.10164239805939347,0.024960884266070158,-0.8000083556149733,-0.16976641095992115,-0.8297060181265291,-0.07359881493318071,-0.6625762425990254,-0.3329062739541185,-0.8116601624896471,0.08704778545162642,-0.48031266522709115,-0.3104907715093811,-0.6688322402714449,-0.5538181791090585,undefined,1498238850032
903d185fccf839df,1.1516969675706936,-0.34329376939477907,3.176253799156283,3.057429303049422,0.5565887256639283,-1.8365223428708524,1.9597806372527131,0.20581807886684494,0.45375254291402345,0.5999711789579552,-0.12229198475444897,0.0031132887102061127,-0.7129706996434938,-0.20309647253113752,-0.8454955064496503,0.08198793438208113,-0.6286075860733751,-0.32086734671120654,-0.8347706287174389,0.19443654318629006,-0.464278483378968,-0.29803833991339657,-0.6040526507220697,-0.5146974550001607,undefined,1498238851538
903d185fccf839df,0.965970771544866,-0.34329388630674845,2.9956966124255415,2.7372440086877736,0.7027279078261353,-1.8324554910614699,1.926842304874633,0.05779500109375743,0.5105876626571706,1.0905941062837659,-0.1245446736697671,0.07492340861237168,-0.5650066844919787,-0.2327231565144256,-0.8170744053813308,0.05167896686085069,-0.6488146333699498,-0.31709924399401845,-0.8570694659479048,0.12417343742262336,-0.4806005666550038,-0.2732291109149089,-0.6186596343841011,-0.5045897961444032,undefined,1498238853024
903d185fccf839df,1.0851681912346984,-0.4295850910305924,2.7570800606403782,2.5614116113169407,0.7357552813007322,-1.8344679556012955,1.9175590955053976,0.006986906261448041,0.5443846172927668,1.5830495252290704,-0.07303834987390224,-0.011843147126048222,-0.7042669340463459,-0.07903468316686732,-0.7697059624986685,0.10421474610366292,-0.5444404131181503,-0.19021871706866053,-0.8268432424345921,0.2690420119389653,-0.38792316388096865,-0.25556364335084375,-0.5692306447929598,-0.518327537678231,undefined,1498238854509
903d185fccf839df,0.7539107369178558,-0.600406616237874,3.1481813234490756,2.961038504888502,0.6802845204311201,-1.8031117380206325,1.8998552528267632,-0.056197845232516835,0.49376055267878105,1.7257747015306886,-0.26609189304852615,-0.05355800937793544,-0.5998217468805704,-0.0003388095022222231,-0.7402322092428508,0.051678797272521476,-0.4110529328043852,-0.05697358439958676,-0.777424767891615,0.3180090660484031,-0.3021763589858788,-0.239082203626086,-0.5549967276739827,-0.5324950169993227,undefined,1498238856011
903d185fccf839df,0.9230043593001777,-0.5851442555147103,3.5941512619121836,3.671862297277733,0.5827555388597744,-1.7818411270035075,1.8904405585219541,-0.11376464219574595,0.3941764442613085,2.311627858932156,-0.2700996540270627,0.028078160587413963,-0.5432472704991087,0.04224952767874575,-0.7360216814774297,-0.04328976261778566,-0.36350587660024103,0.014158036504453445,-0.7510118064284325,0.3052899490058611,-0.25657625165075587,-0.2532827202906403,-0.5691019437351247,-0.539728372691566,undefined,1498238857518
903d185fccf839df,1.1018004888349264,-0.5552064906105195,3.6043591807596735,3.6702578535560857,0.5553235929902968,-1.771066065298962,1.8789903790521738,-0.17963722819611758,0.2879903372343053,2.0092950271594177,-0.20853310369798392,0.04137365432269111,-0.4823209113190731,-0.04848217421275899,-0.6802321315282889,0.031472743552443755,-0.48341257593692794,0.04774796808619412,-0.7183297030436875,0.36788462973155345,-0.22402319098150417,-0.3057829739141629,-0.618786793595823,-0.47579660234961235,undefined,1498238859044
903d185fccf839df,0.9424087525076565,-0.5235076514839723,3.3548968263839676,3.450587313015762,0.5694869866633643,-1.7825608604553793,1.893015132970298,-0.16930398573883224,0.1715467157945389,2.7944548741364885,-0.1161829368704653,0.10030357917623742,-0.852230949197861,0.014474493637098174,-0.7602322179691593,-0.025104269046161254,-0.4833761433312844,-0.010578444732852337,-0.755552736485533,0.3571673092373354,-0.26265418686798814,-0.34920910466017496,-0.653888081310416,-0.5079627536142749,undefined,1498238860523
903d185fccf839df,1.062991909452427,-0.5493363406293056,3.117556804495758,3.3115189424447657,0.5439167416611675,-1.7842262664322712,1.9813634573243353,0.3398755027763683,0.06419009024114285,2.3798248727662923,-0.10112267965863447,0.1031249588592404,-0.7260263480392157,0.01077119375381717,-0.7644427825457493,0.017328483336612115,-0.5181555876729103,-0.032034457158869684,-0.7638859392367364,0.36055496579505136,-0.2699751820382525,-0.3927054658599951,-0.6721298007069627,-0.5099713302439929,undefined,1498238862045
903d185fccf839df,0.7192601974300036,-0.5229205488018738,2.577798895532691,2.5921022246787935,0.25260523169406623,-1.7777463232389656,1.9382504190117344,-0.08625095967289254,-0.0766653346447661,1.9077805100731031,-0.051331566708204095,0.09170559482889817,-0.3778757241532977,-0.08273802190247197,-0.7644427825457493,0.02339030510557974,-0.5858946065838961,-0.15469724068279836,-0.7660129704711766,0.3256928841872869,-0.33479381924657253,-0.42428243252986964,-0.6761072765047683,-0.49975890194008005,undefined,1498238863505
903d185fccf839df,0.7289625665607917,-0.5452272356424559,2.690089052498471,2.762448341889541,0.1119174694083637,-1.7805833366579618,1.9978234202487744,0.2245880032852947,-0.10345873319556809,0.8648831721805675,-0.016028257589877366,0.002486440025089548,-0.6607481060606061,-0.15495308191905166,-0.8654955372626602,-0.025104269046161254,-0.5901512579956512,-0.22282071301341402,-0.8307474649407594,0.25305841495742,-0.4050080059240751,-0.4789655515398312,-0.6626870929993084,-0.47508152862128195,undefined,1498238865008
903d185fccf839df,0.5016559025776721,-0.5417050871977429,2.9440176096233435,2.7362193111783557,-0.11618843497605628,-1.8206835174524536,1.8973201301442217,-0.5476259578267488,-0.03015398891818096,0.3678735465952424,0.03641944578914992,-0.0507905066501164,-0.5127840909090909,-0.14476892953538162,-0.9349692858843934,-0.11805224052329354,-0.5950302784920685,-0.1988188536634722,-0.8962446113371204,0.20727883873226818,-0.4133559465679996,-0.47096483243449705,-0.6824028117213584,-0.5678478005332643,undefined,1498238866498
903d185fccf839df,0.6859960162944645,-0.6103859004339299,3.0448235719816292,2.995913152536536,0.1603013909380128,-1.8085225592500225,1.9632493590202411,0.01635846331489821,0.08417200466450993,0.42801600081105606,-0.047509739696595214,-0.23522691837989718,-0.27778241978609625,-0.1549530948698262,-0.929706113293708,-0.10794924192797621,-0.5501337792938197,-0.22294103631336828,-0.8932289855617705,0.20581598788226266,-0.4261445234004199,-0.4733255402877769,-0.6521140680370471,-0.5569939476728525,undefined,1498238867981
903d185fccf839df,0.21752296941098448,-0.7571398545602231,1.8995927675366433,1.9098928938657045,-0.35541317014705215,-1.783629980958738,1.9108741508136362,-0.5413565759208516,-0.19822180136456774,0.21796327924061779,0.07719431990067654,-0.22723190103245017,0.17481339126559717,-0.13736225206417232,-1.0002325067407056,-0.1140110354322223,-0.6233434231899041,-0.2577468947200211,-0.9337055354556817,0.09008127350998807,-0.4695128078607918,-0.45626214160534084,-0.73602276614575,-0.5464867100370582,undefined,1498238869494
903d185fccf839df,0.23692708657518555,-0.49885296310688926,1.5965375049926323,1.6856581666168233,-0.36390915967380993,-1.7140835559760477,1.8799108118357326,-0.6836608478960602,-0.20258727032166624,-0.01550044640581529,0.08103881507938643,-0.1395405328144639,0.048608790106951884,-0.354933218232408,-0.964443009691276,-0.031166090815128878,-0.6859472109679645,-0.3272066237862825,-0.9412131127984261,0.05917659827841086,-0.5170679551129914,-0.45802127435984863,-0.566071724291565,-0.5212033213783994,undefined,1498238870975
903d185fccf839df,-0.0721539479377467,-0.22647771169864214,1.5372023724521051,1.4950359650495348,-0.4700678455736062,-1.713296270551752,1.922587290726867,-0.43396405451716885,-0.14963824381246255,-0.3695460756209652,0.135497331922195,0.04949227514353033,-0.2908380681818182,-0.37993072555849666,-0.9939167482226262,-0.2130207862812399,-0.697529604635836,-0.416570790849724,-1.013958955489356,-0.17903735611429455,-0.6238977499435168,-0.43022184692873827,-0.4695470864979022,-0.5204542042775779,undefined,1498238872486
903d185fccf839df,-0.2717402079349124,-0.14899164426264197,1.087404369119832,1.188558003637739,-0.803910710668221,-1.6515225191816543,1.854559476068054,-0.8620978644718169,-0.2313288650290228,-0.7513451606388741,0.17725994600072262,0.1329005650681038,0.3097217580213904,-0.6252766998668308,-1.1054958223530897,-0.2797008822693268,-0.7943927576669495,-0.565686283225725,-1.107044527264211,-0.28083647936356404,-0.7479385557298708,-0.43928548063181466,-0.6161629721464648,-0.5683553675126468,undefined,1498238873976
903d185fccf839df,-0.4394479205352476,-0.28517932842275023,1.1492912907695196,1.1431075614750454,-0.8868648533024329,-1.6019679567312262,1.8591143092848719,-0.7892767157062296,-0.24636539419319317,-0.6949300843857582,0.2504069860177529,0.20786353429683202,-0.8261196524064172,-0.5438033124374013,-1.1339169050158246,-0.36456634463779125,-0.862744357104477,-0.5684854425317158,-1.1256070672051464,-0.4104451940118423,-0.7803531492620636,-0.4258306183915458,-0.591376640802394,-0.5301879716661068,undefined,1498238875475
903d185fccf839df,-0.31193455907775947,-0.36677453007359245,1.6067451697031725,1.5601262307405597,-0.8254489618851956,-1.6316750723345128,1.9213565479434898,-0.4343688613334797,-0.14110103059134516,-0.33878008742005294,0.3138960392866092,0.0031635360846625125,-0.8043602384135473,-0.44936827181029193,-1.0939168654765064,-0.33223659085033524,-0.7693499324527716,-0.504231395881237,-1.1005235001694393,-0.40339270486660905,-0.7325486815096991,-0.4193938363824574,-0.6450367820064078,-0.5567422116025216,undefined,1498238876992
903d185fccf839df,0.07753548826955456,-0.44602155481997974,1.1805536934658898,1.0524251112379477,-0.5725853853953552,-1.662237018823171,1.9049518182244396,-0.501920857425451,-0.16551926024584326,-0.4822136137091271,0.1716960168549372,-0.0529528901612193,-0.7651932932263815,-0.5447291633097706,-1.091811601593796,-0.0655163764863167,-0.7020502171195023,-0.5569214874487748,-1.0778118526081637,-0.156909790277227,-0.7009366601630939,-0.4465819796842627,-0.6912664240086108,-0.5411999630137566,undefined,1498238878499
903d185fccf839df,0.16208229946071545,-0.5117673515215445,1.3604729964535787,1.1800631564643473,-0.2849252936097991,-1.6788118847581337,1.9671099167900046,-0.03474192888325794,-0.05804916349598472,-0.3963931673947908,0.11651237043320803,-0.05239327195491929,-0.32565313057041,-0.5771333481070686,-1.0254957395933362,0.1931213711661163,-0.7592328893701057,-0.5728108431630345,-1.0263992858948479,0.043932133153658064,-0.6533005058882201,-0.4461996507965984,-0.6953732335534863,-0.554178106802811,undefined,1498238880009
903d185fccf839df,0.20782094533429368,-0.5487492964031919,1.326020666768046,1.2206033205485016,-0.1983711480978012,-1.693847124582153,1.9580186809785713,-0.06603650858018005,-0.19634262832194477,-0.7324809245545183,-0.031057721451992464,-0.030972439036197872,-0.6607481060606061,-0.4836241065492304,-0.9886535829941745,0.3628524796237351,-0.6932317532308295,-0.5393475688159887,-1.0057377040427797,0.20969639740018411,-0.5977599374906458,-0.4656211972406264,-0.6682883416059554,-0.5166601574252785,undefined,1498238881491
903d185fccf839df,0.07753541925873508,-0.5516843713937988,1.9417012269605052,1.8918345036238442,-0.26189561398163663,-1.6944667023690383,1.869630896478557,-0.6621670066852141,-0.18947293726211278,-0.0966354622028781,0.04022346165190809,0.027357807303126622,-0.7956564728163993,-0.472514103293191,-0.931811395582003,0.5871399274726196,-0.7563006643248393,-0.5308234277114058,-0.9094266021662745,0.5241942497529789,-0.5021364725304719,-0.39591887555627064,-0.6613793414089781,-0.4976975631750256,undefined,1498238883029
903d185fccf839df,0.1399060866892634,-0.5135283965159086,1.9002309054166455,1.9516514924424961,-0.28203500805076753,-1.6997494174315908,1.8670116069911573,-0.6811216085653248,-0.2016517230059821,-0.07358903125364377,0.006137158054402275,0.12776585138678956,-0.7303782308377896,-0.47436578561176784,-0.9349693006088611,0.6356344450949175,-0.7543831362098534,-0.5472890806525182,-0.9095035672877809,0.5242712407551402,-0.5060521901311954,-0.4033498935533096,-0.6741633550534658,-0.4836574685157871,undefined,1498238884566
903d185fccf839df,0.0913955522408926,-0.46069698822899907,2.075683751518218,2.1618085323147884,-0.1952237247940272,-1.7194081967275,1.798507785858923,-1.0989764578024248,-0.1761131785780318,0.8356574477756813,0.10707752154089707,0.14210099960234415,-0.29518995098039214,-0.37993073850927117,-0.9149692624336174,0.5042950676496907,-0.7397673507144945,-0.45430880380125244,-0.890115404703298,0.5798750256865907,-0.44845959143769515,-0.4201978404991559,-0.7396436256505513,-0.4603209852388313,undefined,1498238885995
903d185fccf839df,0.4933399608100165,-0.40375641649925514,2.736663968808449,2.68218234268041,0.16906481050426989,-1.6992416429532005,1.8497705950568193,-0.5289344990146967,0.18543687963537067,1.7474609189087662,0.1437483830241032,0.07098771606353502,-0.3604681929590018,-0.1549530689682771,-0.8276007284760003,0.4073058062873226,-0.5819044875964985,-0.34072745712012775,-0.8488971904830391,0.4851437928416231,-0.40731332210515636,-0.4187615851746304,-0.6672445394021315,-0.39116806880847776,undefined,1498238887499
903d185fccf839df,0.7220323620480741,-0.4078655214861049,3.2126202883448727,3.1567527678486353,0.4717317362994808,-1.681441597351375,1.8812178183957948,-0.13865195693256588,0.1831729152648719,1.968541656421298,0.1375531951593915,0.004310228918954801,-0.7260263480392157,-0.26605319218409285,-0.8686534422895182,0.3123373029264585,-0.6143821438698251,-0.31597198103818913,-0.8504574793574747,0.5201752574704575,-0.40098566629815663,-0.41529927433783465,-0.6687933378144986,-0.3706564737329498,undefined,1498238889027
903d185fccf839df,0.666591830119444,-0.46539299130200085,2.538880108961042,2.797473027372999,0.4877362799630962,-1.695936452401129,1.8730207152382405,-0.22274268561845678,0.19568190677373876,1.6296479561872688,0.11902539347568261,0.04503296976829184,-0.6868594028520499,-0.27345983080297853,-0.8886534510158267,0.1486680586348896,-0.6190313121067277,-0.3005955946199814,-0.8433627128410222,0.41794497943148073,-0.4146148118562035,-0.4277827358063334,-0.6963945754619619,-0.37940203826247,undefined,1498238890512
903d185fccf839df,0.440671317456179,-0.49004773813506847,2.5350520440918776,2.6782412637438515,0.4270506629469622,-1.7307562498779747,1.8762106684109257,-0.2806330668760241,0.15650977265239358,1.4482073458289035,0.04879319016698494,0.043318519339129134,-0.35611631016042783,-0.27345981785220397,-0.89917978147273,0.14462685354381838,-0.5847000568661856,-0.3049716580643426,-0.8637444225638762,0.3490523318796444,-0.43488516390859433,-0.48486679928555304,-0.7237399148296841,-0.4029463815273617,undefined,1498238891691
903d185fccf839df,0.7885611383840692,-0.5757519863167757,2.453386914353314,2.499247464564979,0.46334888930611107,-1.760123297066921,1.8856674521414145,-0.24953632292735162,0.1754410568193023,1.8994315870560952,0.057885462908981986,0.05612603491046796,-0.2560230057932264,-0.25864647586055994,-0.9160219072588818,0.15068870357750752,-0.5908389559861994,-0.3002409489435476,-0.8872117262503686,0.2702122915177529,-0.45680730434369715,-0.4799266961629207,-0.6970899433321539,-0.4566237546205298,undefined,1498238893334
903d185fccf839df,0.8412295056946287,-0.5287907864670647,2.8502298932603343,2.8862234197590038,0.6091383635665205,-1.7605914744772486,1.918161343020291,0.03627956547155785,0.24388672051168928,2.0706275884815217,0.12859052892091918,0.1744515821500625,-0.5998217468805704,-0.23735230727007595,-0.9170745447219124,0.20524515602765922,-0.5788373361949394,-0.2534404944644644,-0.8650668196177052,0.2557839483365169,-0.43282615096479565,-0.44540419809511483,-0.6287746223378157,-0.4004357909467104,undefined,1498238894420
903d185fccf839df,0.8606339679129272,-0.5510972979396928,3.016750588000523,3.1976684621819995,0.6578822740998089,-1.800784826873637,1.964835134698907,0.26826415516790497,0.23212287272137427,3.0890620496970826,0.12401700872607996,-0.04997126411481554,-0.7173225824420678,-0.21976146446442205,-0.921285087211801,0.23353361992987942,-0.569202263341142,-0.22213675274317268,-0.8615894043978994,0.2619125300145461,-0.41862076248592495,-0.4262602781075822,-0.6379105450365282,-0.39814509099269085,undefined,1498238895860
903d185fccf839df,0.6929261517963627,-0.45717486901227844,2.5554686441977053,2.5977540517703916,0.4622791707925421,-1.7763930335776452,1.8617546251534807,-0.4406590581893393,0.07990038229862914,3.5784333171010543,-0.013965929714269748,-0.020884660914751756,-0.6563962232620321,-0.20217058280644454,-0.8991797667482624,0.26182216862626423,-0.5962024463803711,-0.24442871519628578,-0.794622927093496,0.31003267198034207,-0.40886060495603693,-0.3965048538475551,-0.5462861772214295,-0.3678402654524424,undefined,1498238897344
903d185fccf839df,0.5626406257208042,-0.41080062570470416,3.1443530044429613,3.0488170059853656,0.23588069011998788,-1.7320839171010585,1.899784252847093,-0.16173167197975882,-0.1935146297527134,2.64897451241771,0.025744106820803164,-0.03210932839179492,-0.6389886920677362,-0.15217556815426725,-0.8602323867586761,0.4578210253816815,-0.583121198731064,-0.203593893938139,-0.7325402247230407,0.5042686586530221,-0.33322951925344274,-0.32082210369197833,-0.5377637021278702,-0.33441454267690823,undefined,1498238898867
903d185fccf839df,0.2715775570522183,-0.42606301565586024,3.3829693020911753,3.328600550422039,0.09791863560097216,-1.7161891888052412,1.931602270618029,-0.006464020807377451,-0.27117114893985994,1.941799197575179,-0.10572408667304288,-0.08974679886595818,-0.9044535427807487,-0.13643640119180298,-0.8612850094972391,0.4578210253816815,-0.560298832229698,-0.20116837718517122,-0.7288179210491466,0.5021744686183978,-0.32826029988941163,-0.31282260807457435,-0.5287893908042685,-0.38090319740417794,undefined,1498238900363
903d185fccf839df,0.2743497216702887,-0.45893582632266555,3.1941181018790514,3.1261735766219987,-0.07003650600079028,-1.6899852483409565,1.8005274838229384,-0.8583944060827258,-0.3126125409296907,0.891731421234327,-0.05499394645561984,-0.05588271915894523,-0.691211285650624,-0.16976641095992115,-0.8065480970111288,0.6235108580864253,-0.5938578215528774,-0.19476576965457468,-0.69703840627361,0.5750553111579936,-0.29438568300772283,-0.2858352305026424,-0.5800776701059981,-0.4810703755946604,undefined,1498238901970
903d185fccf839df,0.5071999557705351,-0.4882866931407043,3.590323197043019,3.688948052403856,0.12680087952672162,-1.76285316758122,1.7720151279582834,-1.128193713078299,-0.08211100167471311,1.9927210313409538,0.0810754817364707,-0.026195062777105104,-0.7477857620320856,-0.1132905567581294,-0.7433901142697089,0.5426865018825067,-0.633744668097238,-0.21346061910232927,-0.6908462285559949,0.6272252452454493,-0.2919468809354927,-0.2725161165669147,-0.5987683187155903,-0.5179974544769709,undefined,1498238903354
903d185fccf839df,0.43928551119042164,-0.5481622229490858,3.3746752886097933,3.4392001185846186,0.24306011484697335,-1.7729038337303409,1.9232815583175087,-0.18964181631789934,0.024853426470929006,2.761111360840644,0.06647641885817701,0.09274487795276269,-0.7303782308377896,-0.11884557133692362,-0.7265479811213232,0.5588514918351208,-0.682369609492341,-0.21366327327232232,-0.7296575389538199,0.60934765153624,-0.29917580893763857,-0.2979929295098801,-0.6663736647383125,-0.5416719724556316,undefined,1498238904885
903d185fccf839df,0.2244531049128827,-0.532312788771816,3.2075164559896026,3.2350881818132367,0.14456427807009403,-1.7940812761029252,1.9418532539470168,-0.14903966773238406,0.004437764662763111,2.692783769287022,-0.0168999610699239,0.178982496813611,-0.0950033422459893,-0.11699386959218494,-0.7486532868603943,0.4840889291354484,-0.6609998557180581,-0.2153541676506996,-0.7724850193515101,0.5805371610755243,-0.31646847524461663,-0.3510128284871941,-0.6923213836631511,-0.5616595876863376,undefined,1498238906369
903d185fccf839df,0.22306709161466695,-0.6315184988222845,2.898080577056418,3.0328560604778927,0.13235515417903937,-1.8169264542429528,1.9056224170601477,-0.37275723235667757,0.10152702312337875,1.9383998438596013,-0.10423388737688068,0.20372327642197355,0.17481339126559717,-0.13088142546533238,-0.8118112622395806,0.4436767934305714,-0.6638247660225524,-0.24321278859837672,-0.8306355135810786,0.46608051720411053,-0.3627580792824363,-0.4430267855994797,-0.7472114325486362,-0.643566744151963,undefined,1498238907862
903d185fccf839df,0.4129511895135029,-0.5857312412848393,3.3383082911473045,3.1280736630493022,0.17950478845913334,-1.8125381680838308,1.9264215504619937,-0.1913187766621029,0.20790268190163624,2.0140562967525306,-0.029376629122087165,0.05983316111861154,-0.22991170900178254,-0.13088142546533238,-0.8581270971081473,0.3547700270445104,-0.6461016032039099,-0.18572865695068677,-0.8654236576330584,0.43948740582244344,-0.35408917679466806,-0.5069116730655859,-0.7177514530733685,-0.5468521659742522,undefined,1498238909372
903d185fccf839df,0.3089999161040436,-0.6720225629206525,3.144352750306012,3.0355934483359284,0.20238018091327084,-1.822244107218311,1.936146566813122,-0.13496613691726148,0.16997275555900673,1.733401151349673,-0.05113388927548261,-0.014930787071106559,-0.26037488859180036,-0.14754640444784237,-0.8676007974642538,0.3749760807645881,-0.6335892700499343,-0.1270602676756342,-0.8670119342587167,0.4232882422899348,-0.334575042796155,-0.5128693694048951,-0.655090969116921,-0.5543162632021245,undefined,1498238910853
903d185fccf839df,0.38523085453836836,-0.6262353346111997,3.174977269259329,3.112893484024823,0.3496199401505454,-1.8065496936882186,1.9391024742864345,-0.061082698270030086,0.12443169747258521,2.0544232588936273,-0.053152842567005164,-0.19747693209008726,-0.20815229500891266,-0.21420642398407871,-0.8528639318796957,0.376996725707206,-0.7030504609678749,-0.10074688746566705,-0.849939716588247,0.5270429690667067,-0.30395786525699203,-0.541496602777862,-0.6796596941326757,-0.5458313975211007,undefined,1498238912360
903d185fccf839df,0.6790660188142053,-0.5006140081012534,3.225380250438472,3.286175342725309,0.3665810501398271,-1.7496720010021838,1.8608052697694306,-0.40453122464810665,0.2600474871581516,1.3928802505208262,0.029571121476897277,-0.17476032234910682,-0.24296735739750447,-0.20865144825760812,-0.806548089648895,0.5447072316192892,-0.594942749957454,-0.09367932440902074,-0.8312862180692124,0.6763462965177701,-0.2745582498104455,-0.5223800368338889,-0.4763329134041535,-0.5348173420496949,undefined,1498238913863
903d185fccf839df,0.8550897766984252,-0.4301721498707023,3.657314205184926,3.585814233006123,0.2969777346615676,-1.7590169086409413,1.956937834897578,0.2063110144733793,0.3340487490906217,1.3584306630845486,-0.012987139015789491,-0.16219433457007007,-0.517135973707665,-0.24661060878137664,-0.8381270736573713,0.4598416420595779,-0.5925873829868152,-0.06980412651824973,-0.8315800843951836,0.6833525881726948,-0.26110975931257535,-0.528553976352707,-0.45068715801287595,-0.5471433165604828,undefined,1498238915368
903d185fccf839df,0.5293763065636261,-0.39377719075918394,3.784916367490415,3.701319101939583,-0.07072565903531965,-1.7906689411185515,1.8995107580007213,-0.3224935015697423,0.45845049616726513,0.6711156262500939,0.026288574529505945,-0.00980481537810344,-0.7086188168449198,-0.12902972372059368,-0.7770743658420125,0.45175926014215695,-0.5851048746689234,-0.04029894270595042,-0.8030890706949828,0.6272098548370018,-0.2511530533376651,-0.46611744517356846,-0.3923841103122239,-0.49878620009033564,undefined,1498238916893
903d185fccf839df,0.1703985172716489,-0.5874922862792035,3.220276418083202,3.068681654996904,-0.2662670376256116,-1.8484783283827213,1.8833111466667052,-0.6733584433845883,0.2573004630948922,0.713977839469908,-0.10994579802528229,0.04532729631178547,-0.5998217468805704,-0.19106064430427788,-0.7876006962989158,0.597243039126823,-0.5354613291379339,-0.11274781895666432,-0.7983452322905384,0.6323837299087283,-0.2841792138290667,-0.4385351920870943,-0.3561075803452199,-0.47842884209577363,undefined,1498238918370
903d185fccf839df,0.4822517164026516,-0.6080378404414444,2.624374065979619,2.507386617889716,-0.1156021417006381,-1.8192021200577309,1.8328372764128587,-0.9793490200298447,0.10573838589024319,0.8535363936503513,-0.0923635901568676,0.03401103000790093,-0.7042669340463459,-0.18735729261789869,-0.8244428455358437,0.643716968335946,-0.45218241615162963,-0.12056900235521376,-0.8149136796084727,0.5783967773873496,-0.3081286101651948,-0.3975853246013539,-0.2695456931170129,-0.4739439194082569,undefined,1498238919866
903d185fccf839df,0.5709568435317376,-0.5428790879659934,2.876388209464485,2.830176124588904,0.16515624766618237,-1.8040760392387194,1.9298613532953568,-0.2547775997130688,0.11071570164909476,1.1938906691651503,-0.10973261188405456,0.009855615501510488,-0.9610280191622104,-0.2382781581424453,-0.8265480910129698,0.4659033790343809,-0.5349494155033979,-0.15163842446835865,-0.8522906433300333,0.5386533892327655,-0.33594077027940517,-0.41241571956434353,-0.43361217597149027,-0.4632112965320311,undefined,1498238921358
903d185fccf839df,0.8592478165930725,-0.56166359713387,2.6371342822101678,2.545701016560036,0.40044155329147035,-1.7840049853972169,1.8287321631575648,-0.7045737137278156,0.019210894105334612,0.6812122622197889,-0.1263407665817094,0.037318265854822605,-0.8000083556149733,-0.27345981785220397,-0.8065480675621937,0.5366248214371467,-0.5461994671631892,-0.20459449964820026,-0.8440903819979998,0.6225287195189549,-0.3411189164528851,-0.40653782483362305,-0.5134112984215643,-0.46264017731374946,undefined,1498238922859
903d185fccf839df,1.1475387206435879,-0.5293778306931785,2.959329869100002,2.744885801323969,0.4615694432631284,-1.8021730524308894,1.9679278024275466,0.2530045932568717,0.04617408353408493,1.0852477449675217,-0.1836901938950975,0.09759196638779165,-0.6085255124777184,-0.37252402218573827,-0.8202323104081888,0.59724298259738,-0.5867093577606238,-0.26656235208087403,-0.87469443268083,0.6874485674186848,-0.35877186997418203,-0.4691076715694849,-0.5982587497939328,-0.4775240106000166,undefined,1498238924366
903d185fccf839df,1.387319297278191,-0.5645987305804617,2.4540247980963668,2.3565134562205614,0.30974227109676766,-1.8042111367832105,1.8939723866686742,-0.28010317276040236,-0.051162291867519374,1.0959163039881958,-0.195397891949619,-0.016067909411943436,-0.7521376448306596,-0.3891890788728955,-0.8549692215302245,0.5992636558047194,-0.5824782566924424,-0.31626329390048297,-0.8993721843492515,0.6713263955345282,-0.38274415310832877,-0.4990904231503569,-0.6802289070652826,-0.49040347404458057,undefined,1498238925879
903d185fccf839df,1.010323473131048,-0.4847645446959913,1.4006680587852318,1.6340247858952026,0.04877358677419653,-1.764318257211325,1.878632716353422,-0.4975880952738695,-0.05332008816358758,1.6169077274939072,-0.051829145884911054,-0.12847511323851302,-0.6128773952762924,-0.3706724369979705,-0.7781269885805755,0.5608721085130173,-0.6260862617443694,-0.2772460284964942,-0.8386888431509336,0.6912365891852493,-0.34035822661714277,-0.4172691555700579,-0.5532731944048737,-0.4745530371858532,undefined,1498238927327
903d185fccf839df,0.28266573244876375,-0.40669146226186975,1.0408294528098538,1.0462422280724797,-0.3514943087905865,-1.7338960650304358,1.810102598234073,-1.0528933377245395,-0.14138738710846996,0.16778422615427308,-0.051227228633736764,-0.3412658116934092,0.23138786764705885,-0.3530815682907675,-0.802337561883474,0.6457375850138425,-0.6323480154107062,-0.3280742341799456,-0.8362259656550555,0.7125788346141895,-0.35386921601937316,-0.38613328116449525,-0.6231925712306224,-0.45299577366268173,undefined,1498238928906
903d185fccf839df,0.426811115463202,-0.3720575773727079,0.9661818066557187,1.0239769708527289,-0.3343789154482757,-1.7487449653582294,1.7805067591523092,-1.2691887346107469,-0.1750317309417879,0.0069467641935266194,-0.09194486710791991,-0.318342143124249,1.0625974821746882,-0.382708239323281,-0.8212849331467519,0.6073460377221404,-0.648536773038563,-0.3805363389224507,-0.8517308976769153,0.5443354187795505,-0.4075356455584356,-0.4022451519218823,-0.6584460245738532,-0.5121928108093315,undefined,1498238930361
903d185fccf839df,0.19811878323596394,-0.5657727021207197,0.9138649201104682,0.8640528698644642,-0.3702554289870449,-1.8268070881458283,1.817655405828165,-1.209766392114265,-0.2709675692627836,-0.24993511417568617,-0.0397220131569274,-0.31037638046953997,-0.1863928810160428,-0.3901148908929412,-0.8644429071618633,0.5245011778992115,-0.5726097342163542,-0.36432400229443734,-0.8584198490524135,0.43006355294176396,-0.42977505939644645,-0.38418760673372515,-0.5609317601090634,-0.4796797542694943,undefined,1498238931887
903d185fccf839df,0.22029499600741598,-0.6520640091425369,0.34667292745714534,0.24798219043169473,-0.38123026640874746,-1.9446642632346498,1.907497457502031,-0.7823798457762845,-0.10929655135065612,-0.21199571177451396,0.05641133376192083,0.0022233794572337913,-0.5606548016934046,-0.472514103293191,-0.9202324276620691,0.46994472544905985,-0.5079382986993303,-0.5100387048403021,-0.922909454890513,0.4966156346721821,-0.5063021074767029,-0.42991431343180114,-0.5412409248343731,-0.4677691085447311,undefined,1498238933358
903d185fccf839df,-0.15670089715054653,-0.7037213582052113,-0.23200325980367148,-0.19357105945121444,-0.6125555935040877,-1.9908437596589434,1.9379900574698548,-0.7274234358223958,-0.14998690827218025,-0.6760318827493411,0.11534474423158211,0.046733022626166104,-0.5606548016934046,-0.5799108359703039,-0.9654956655598911,0.5669339020172633,-0.49492536325736686,-0.5785611546268666,-0.9881897007614031,0.5546369739366848,-0.5447822467249434,-0.4575469724100613,-0.6545636530283986,-0.44171129394671793,undefined,1498238934861
903d185fccf839df,0.009620802151572953,-0.7137006570152634,-0.2262612895683992,-0.279154517945089,-0.60565389545449,-1.9959634272106317,1.9562067222991182,-0.6187382680659222,-0.17934756075091388,-0.6536118313001936,0.10349692983124284,0.2066878817499038,-0.44315396613190733,-0.659532554031931,-0.9833904030412552,0.4780271356312023,-0.5853451751615206,-0.6363239330667855,-0.9749237470517212,0.5130919682168397,-0.5843967478150718,-0.4759071896084167,-0.5676784206210863,-0.4746039825119428,undefined,1498238936354
903d185fccf839df,0.11495791633219933,-0.6520640383705293,0.32306690863605403,0.33378186075413396,-0.4823078200180732,-1.9165480152310477,1.9743497652016606,-0.38729256118828836,-0.08682382527508374,-0.7349318694246818,0.2261783549726163,0.11699565848184114,0.09212761809269164,-0.665087562135338,-1.018127306801057,0.47196534212695623,-0.6009567643367226,-0.6360706149155132,-0.9959841479495632,0.49901778897123533,-0.6069107866721116,-0.4469586074435613,-0.5115481814763164,-0.4068839070705495,undefined,1498238937862
903d185fccf839df,0.3685985569381404,-0.525855638406477,0.9285395499810236,1.0291032691052655,-0.43093075817158405,-1.8568961995403315,1.923697071978613,-0.5857640436104299,-0.06234988453097624,-0.14576247934260192,0.25296862823541244,0.16386764388834335,-0.08194769385026737,-0.6891592250644446,-0.9907588211090668,0.2779870172552707,-0.7940030662927545,-0.7091717855609184,-0.9961030934224966,0.3249383658530411,-0.676696835907482,-0.4355067524461781,-0.5925366213311303,-0.38744768977522515,undefined,1498238939358
903d185fccf839df,0.17732858376272767,-0.44132542022101245,1.6035552427140098,1.641001151189269,-0.469296408905275,-1.792362296941312,1.9778132242196955,-0.047991994052896635,0.174782438581925,0.023046666168472476,0.3647476345117878,-0.06701964680971063,-0.5650066844919787,-0.648422557251279,-1.0191799221773863,0.32648153487756865,-0.6749408698751427,-0.6421819077567162,-0.9178297706283567,0.42291867333925,-0.6029871050617507,-0.4030655990515879,-0.5479330715130698,-0.43630863275375936,undefined,1498238941025
903d185fccf839df,-0.11927850359331148,-0.4401513902247697,1.9104388242641352,2.041000215319557,-0.6415201198453219,-1.7954042846020333,1.972666692032449,-0.1310675587509462,0.2551306654227415,0.26052580243211476,0.43062789497513965,-0.21932125492362559,0.08777573529411767,-0.6299058635732557,-0.9823377803026923,0.28606934264324857,-0.7282510165322447,-0.6103018682881252,-0.9387712257107099,0.20783318940525317,-0.6434161651608281,-0.3950363510062231,-0.4760535525830453,-0.4658541170718076,undefined,1498238942362
903d185fccf839df,-0.2814422320116032,-0.4841775735398584,1.7037233213292429,1.8924685872109406,-0.6801532053257381,-1.7893668959404772,2.0050974545341758,0.04838581871884784,0.2408882734632703,0.8382969774400014,0.5227288362668839,-0.2736975496972564,0.44027824197860965,-0.6132408457384221,-0.9791799047247693,0.25373967364995714,-0.6781802667245813,-0.6077433593026822,-0.9331108061580234,0.09657942154047616,-0.6639558662759715,-0.3930328389976708,-0.4630720968816281,-0.43082326494165996,undefined,1498238943871
903d185fccf839df,-0.32302276897971466,-0.5387700122071359,1.497645448000454,1.5852738635846635,-0.7124091527267633,-1.771177867111564,1.954755082309925,-0.30883039833966264,0.2098041588390012,0.7539571170680539,0.49661179845727965,-0.18151367728862988,-0.051484514260249546,-0.5688008068127154,-0.9770746077120068,0.025410921783476127,-0.74871954351548,-0.5890865075834321,-0.9432421888457535,-0.018446965512490327,-0.6796671669090356,-0.3920942445016396,-0.47626102477708865,-0.45873515560266476,undefined,1498238945354
903d185fccf839df,-0.30223243148483947,-0.6379756053456351,1.348989055983034,1.4825978141239406,-0.8108226977257197,-1.8339881326313807,1.8823223327079606,-0.9985823605080543,-0.042646456088528704,1.0416059495865844,0.39703525889734925,-0.14107065785322231,-0.7869527072192514,-0.4993632735116946,-0.9476008986295918,-0.14634073269023526,-0.7940860499019295,-0.5731654881972151,-0.9197538944758316,-0.03834175601941941,-0.665699320363474,-0.40563832361611657,-0.5023197492210678,-0.46486649947698766,undefined,1498238946850
903d185fccf839df,0.1828726714610004,-0.7330721811812616,1.384717661428571,1.4306546446719473,-0.6752160697150044,-1.8047026078297272,1.9045994245603108,-0.7527617008621329,-0.09757847429803754,1.244122315467482,0.19747835731847396,-0.05908513378941229,-0.7347301136363636,-0.453997416090555,-0.9539166939588403,-0.11199037635724361,-0.7492991626144534,-0.5904987551252869,-0.9034723160429344,-0.07671468532944424,-0.6728138139306269,-0.4205974229459415,-0.4698330341884451,-0.479426553007217,undefined,1498238948354
903d185fccf839df,0.2036629054396464,-0.6532380829807682,1.2233007990436526,1.4013702669581207,-0.4937763677287968,-1.7696755078436799,1.9216510901215054,-0.5338615303596392,-0.1910471654844098,0.63534020440768,0.19899550186037054,-0.030669100631804492,-0.3604681929590018,-0.5752816593131045,-0.9844430405042859,-0.22716500409998924,-0.8098944688140902,-0.6583119163162433,-0.959698687605621,-0.2070009316581329,-0.7462003323170898,-0.46368349769605904,-0.578644111689919,-0.5215128088348304,undefined,1498238950055
903d185fccf839df,0.2036629054396464,-0.5892533897295523,1.0408291986729046,1.1609980055597837,-0.49232608740914463,-1.733553666098437,1.915321142185531,-0.5142907744753493,-0.2056314463924744,0.19101502471792767,0.1856550779007335,-0.04086800201924462,-0.5998217468805704,-0.5456549753298163,-1.0054957087803262,-0.2594947437550845,-0.8378221092346834,-0.6587552226062008,-0.9426054789152835,-0.27932743075400407,-0.7518650980888048,-0.4665304623258189,-0.5899397483561747,-0.5165053435275956,undefined,1498238951338
903d185fccf839df,0.6402574394317058,-0.4612838863151511,0.28031954892134164,0.4301806010627008,-0.08212219803447338,-1.6852126347068697,1.9097959256321715,-0.35490086791764436,-0.0847689042860144,-0.5962122281045925,0.14551901485162008,-0.023655687462161467,-0.8261196524064172,-0.6150925151062244,-0.998127283350281,-0.2534329219861169,-0.8902595223042448,-0.6979498115072695,-0.952729863421915,-0.2642677525076159,-0.7680416861953306,-0.4591383383502082,-0.6512743361876806,-0.5507309415730662,undefined,1498238952907
903d185fccf839df,0.7996493137806147,-0.3961252507516695,-0.030391843360998837,-0.026493881530263354,0.6467737235468489,-1.738612773679625,1.8955081934627265,-0.2435176530856471,-0.32934930499016496,-1.0403774001005366,0.1429374566541984,0.0024393998868473972,-0.7564895276292335,-0.6410158538785206,-0.9991799134510778,0.22747178402855103,-0.7249986056052721,-0.7032821500171936,-0.9664576063619557,0.3402906158149035,-0.6456808507512896,-0.4697902956245853,-0.5956273897164212,-0.635969392361091,undefined,1498238954383
903d185fccf839df,0.6028351493906999,-0.438390389072394,-0.1726683814000938,-0.12497152214836522,1.128103201654892,-1.784484810210043,1.8145338348781872,-0.6373862939718797,-0.4564610619078577,-0.9300083879500901,0.12893419278586388,0.007495807144465556,-0.7826008244206774,-0.6039825183255723,-1.0044430492305942,1.1367452896238277,-0.511804301912311,-0.6964805674778548,-0.9647713750079642,0.7325814155854735,-0.5604521226804654,-0.4525142012180028,-0.5592338852777066,-0.6430499793824803,undefined,1498238955864
903d185fccf839df,0.5792727852993932,-0.5822091805241033,-0.22370924632228942,-0.19682956825916995,1.279992095793513,-1.8220228302260644,1.8272173932199394,-0.5567464238335176,-0.2894658278635125,-1.0844017646963842,0.1222891803971807,0.08634905246317412,-0.6999150512477719,-0.6465708814080894,-1.0118114893851071,1.0054057425902718,-0.5841566082892093,-0.7193551593263646,-0.995011592026806,0.7380786612829131,-0.5823155440086875,-0.45781909031445694,-0.5609643100027515,-0.6068249318408938,undefined,1498238957359
903d185fccf839df,0.8038072156536229,-0.507071202308581,-0.024649364851827695,0.03426365895915456,0.732391863534498,-1.8261176331090168,1.8923050928440055,-0.3528115667489557,-0.47343940812734836,-1.0423485218533914,0.14177100524374997,0.08634771150466708,-0.6650999888591801,-0.5965758538051376,-0.9707588123827583,1.1630132499070376,-0.5580258461990145,-0.6894383333777551,-0.9730416060269662,0.7248052012005158,-0.5611339927525544,-0.4615133800545985,-0.6084194767570683,-0.5984996788149065,undefined,1498238958886
903d185fccf839df,0.429583211070453,-0.5311388172315579,0.24586721923580904,0.2293832796400502,0.3621479160345905,-1.759347662137935,1.862067575955742,-0.6228729014701487,-0.4570189619550021,-1.003685868336808,0.12925855827896823,0.03505756395742381,-0.8609347147950089,-0.6447192055648997,-0.9528640491335759,1.215549085679293,-0.49807394671547506,-0.710672692869187,-0.9572777908343105,0.6510928440472876,-0.5811316083115158,-0.45361629329929015,-0.5629102844545143,-0.6093248964739816,undefined,1498238960345
903d185fccf839df,0.09139569026253154,-0.5722298378720627,0.4883113276162382,0.31809455517811325,0.22222129670009164,-1.7183833308097707,1.9217141970244584,-0.2515955196374944,-0.32475534222409824,-0.6878933748373506,0.15090980581387112,-0.009627396134049898,-0.847879066399287,-0.6197216982388111,-0.9497061588311855,0.8821486481359405,-0.6225875020889958,-0.672719361576677,-0.9682068099375135,0.4024233500564475,-0.6228640288793392,-0.46013738253915154,-0.5405178366482278,-0.5482482275320115,undefined,1498238961864
903d185fccf839df,0.16901257298425262,-0.6121470038842788,0.22800291651304058,0.20674639248754328,0.18080079867720786,-1.7740591361409355,1.8740621069346262,-0.6632055995797727,-0.2977024429867181,-0.515709785336286,0.14408957675256903,-0.05410871134597076,-0.7956564728163993,-0.6317575199902835,-0.9433903708641708,0.7548504475170635,-0.6906564339779208,-0.7298488465015032,-0.9376937170069792,0.5207604004167629,-0.5977412197303736,-0.4533995160481733,-0.7593573488190402,-0.321946018897096,undefined,1498238963366
903d185fccf839df,0.46146165495105423,-0.6526510679826468,0.34220697884492796,0.2783910253395344,0.018369066164440898,-1.813013332458429,1.896523280839345,-0.6139933457885031,-0.2228424558335494,-0.45726214641695523,0.1467716254745184,0.00613866246801172,-0.9349167223707665,-0.7308217502253669,-0.9423377113144388,0.536624807304786,-0.8042935480550258,-0.7540470246969945,-0.9455861198960854,0.5667247577314865,-0.5970174317989803,-0.479590204772587,-0.7908234226564378,-0.2866216735000255,undefined,1498238964875
903d185fccf839df,0.7677707318783744,-0.672609577918774,0.2611794787124677,0.24683296193048723,0.02237020303059221,-1.8534698880650986,1.87563736497072,-0.7686503410144198,-0.30256095756071494,-0.3524945683368093,0.1214683311214354,0.01786800957840669,-0.9958430815508021,-0.7187859025723454,-0.8833902710629075,1.1124979601508749,-0.6328272526250277,-0.7434900082899387,-0.9089578145651884,0.8891682053498017,-0.5096687362851718,-0.4886620120820169,-0.7399286655140388,-0.21859135790156417,undefined,1498238966417
903d185fccf839df,0.7469806014159576,-0.7125265977910283,0.18270402182611725,0.22700915500114477,-0.08133019225065911,-1.9077481496372233,1.892462868481563,-0.7599773772612339,-0.4368605225088359,-0.47865606921244547,0.0942069557951437,0.07895693721626726,-0.8913978943850268,-0.6836042234364249,-0.8833902710629075,1.7166596475609879,-0.48310306852254525,-0.7383856555586175,-0.9081811682275559,1.2475978164220385,-0.4338572330263964,-0.48574601899975933,-0.7200581893774817,-0.26167306553853764,undefined,1498238967867
903d185fccf839df,0.3990909875205259,-0.6244743188448278,0.21077649753332484,0.23977267630228097,-0.23475164984660457,-1.9379467356432762,1.8841973914814754,-0.8898489882180517,-0.38956011230295073,-0.5865468781557974,0.09588144626455661,0.027364623195296964,-0.6128773952762924,-0.7197117599201021,-0.9033903313248525,1.4741866920081184,-0.5209596823669441,-0.7748380796591289,-0.9389251554337726,1.4741397457066452,-0.4157611315724975,-0.4850212615174513,-0.6747850640825045,-0.220198657900328,undefined,1498238969360
903d185fccf839df,0.28820985465244625,-0.5147023680561668,0.3511388760693628,0.34755078203286555,-0.2553641904166607,-1.8990763925976852,1.8940039385488683,-0.7934714581878343,-0.41983864739687965,-0.4461889670354434,0.0872834050234525,0.03856417638287697,-0.8174158868092692,-0.7474867745355878,-0.8960218911703396,1.2478786133489768,-0.539488406105542,-0.7949388434005442,-0.9319913155858348,1.575076555795526,-0.40807990226886376,-0.4643953126904474,-0.6399818882287728,-0.25529265030467985,undefined,1498238970863
903d185fccf839df,0.044271169112376496,-0.4900477089070761,0.4028176247346111,0.3836886305090114,-0.484550093136158,-1.865139377324868,1.917753710913164,-0.6930163556240125,-0.4310695953985404,-0.6080798933987036,0.11670391236399931,-0.00448446009899629,-0.847879066399287,-0.7521159252912382,-0.8991797961971976,1.2357550828699275,-0.5235653801559592,-0.8143303159994852,-0.9348110305159453,1.520396676285009,-0.43073503660132023,-0.4613659503334009,-0.6037766584979722,-0.2365382319647461,undefined,1498238972384
903d185fccf839df,-0.0430476686752159,-0.6103858712059376,0.4053696679807209,0.41736367638006766,-0.517196900277492,-1.7746996767763479,1.8867351502526113,-0.8150214733990542,-0.35970473175922724,-0.7791841009493781,0.12235719138314223,-0.014830389746744905,-0.865286597593583,-0.7734101068324967,-0.9139166470572881,0.9124578276425825,-0.6144099077069857,-0.8095742760286038,-0.951925230262853,1.0386871035655312,-0.551426741435982,-0.45631128976899765,-0.5552452117228182,-0.40272011873780306,undefined,1498238973861
903d185fccf839df,0.9964632711380709,-0.5528584013900416,0.3619854410707535,0.44131478412524494,0.27281662949546986,-1.6705151345599263,1.8621122745618002,-0.13632019224309308,-0.22738690270685788,-1.007077346535167,-0.12088501546654393,-0.010400149258059743,-0.9131573083778967,-0.6799008847008202,-0.8707587024911119,0.9750966337454336,-0.5135237496345163,-0.7532617411592877,-0.9053404631278491,1.2645823012242627,-0.4692227642784731,-0.3937950294675322,-0.36084445330253695,-0.253708293695059,undefined,1498238975354
903d185fccf839df,0.85370369438939,-0.4548267505638082,0.1903601515644466,0.22246439319444092,0.49581054087335996,-1.7208686268290536,1.8698202363701597,-0.07807239505513142,-0.09125999854868654,-1.1394137532781432,-0.11914156204884283,0.04141472634595342,-0.9218610739750446,-0.7363767842303229,-0.8791797653841877,0.6800879554791949,-0.6092291574881424,-0.7800374262798511,-0.9079222867940054,0.9948323301536931,-0.5418714015079712,-0.37044978590623723,-0.43413332856441883,-0.34800851098922814,undefined,1498238976880
903d185fccf839df,0.9285484124930407,-0.41549677491766757,0.023201064807306552,0.030596137026489202,0.7899506131749064,-1.7670038690414651,1.864560626300302,-0.059934089556990845,-0.03888651437671365,-0.8025345702392996,-0.1730892096091514,-0.011019867856267589,-0.8913978943850268,-0.7298959446807084,-0.8602323573097409,0.47196531386223467,-0.672029512795105,-0.774293446868293,-0.9108189668333883,0.7408965702165141,-0.5936158516451417,-0.3806959996890602,-0.3845038161819483,-0.275201044841854,undefined,1498238978354
903d185fccf839df,0.8523177501019937,-0.48300354354361563,-0.03102972710405157,-0.053969110240660895,0.5332607564505119,-1.8705711636430005,1.8670326417525398,-0.5521043950503927,-0.4408605850772168,-0.7761655790178171,0.10744043553419584,-0.005397141185354805,-0.8913978943850268,-0.7234150921803194,-0.8570744817318181,0.793241980676405,-0.5433964842158386,-0.7690814337733296,-0.8998269767136801,1.0130025004382706,-0.5287007922458102,-0.37903668584998773,-0.3375853147678539,-0.23298446983840557,undefined,1498238979924
903d185fccf839df,0.3145439692969066,-0.46656713821021295,0.053187700017571185,-0.027593072520953256,0.021794188056286103,-1.8375169296319172,1.8903485023067041,-0.6224790997135717,-0.3749021715180951,-0.7633940002550139,0.04623807827590019,0.026333344373713003,-0.8261196524064172,-0.7095275945856574,-0.8591797272089441,0.9407463763389673,-0.4985796052248915,-0.7741097910365689,-0.9076494113166246,0.964789966817048,-0.5416575102678971,-0.378167436104953,-0.3208320299557206,-0.20312847071869486,undefined,1498238981412
903d185fccf839df,0.2951397831218861,-0.5094192623010666,0.23629692999442264,0.1306594023393128,-0.0012766293467241653,-1.8486064380713856,1.922902875522679,-0.41791516853366467,-0.4206307945811283,-0.9098638329940519,0.03671758721110405,-0.0355287776027987,-0.5519510360962567,-0.7178600905522997,-0.8233902227972807,1.5186401175982311,-0.3428241264410583,-0.7651043454982741,-0.8853645692555286,1.6384719534362198,-0.37057222017471164,-0.38913265927989976,-0.4138369302484505,-0.2647096252010417,undefined,1498238982898
903d185fccf839df,0.3394923466864291,-0.4847646323799683,0.28095794093829324,0.1605337428938275,-0.20977799184695606,-1.8299562198148187,1.9231290386205526,-0.4440270276104539,-0.4878235412703181,-0.7523331940767267,0.04285328560930577,0.024120455540561855,-0.6259330436720143,-0.7280442817882934,-0.8423376087850261,1.5166195574497778,-0.3472799779808235,-0.760449631912001,-0.9020799498710238,1.713216007134389,-0.3527858658036815,-0.38218447399130284,-0.44817057448645303,-0.26726010645762793,undefined,1498238984358
903d185fccf839df,-0.22045764689011008,-0.4301720914147176,0.1775999353338977,-0.03309859801748536,-0.6232835829871567,-1.8338809874416184,1.946523794326148,-0.4697163011878485,-0.30167152820773446,-0.8274080743282984,0.04409304317928933,-0.07205828115181404,-0.8261196524064172,-0.7947042883737552,-0.946548268528795,1.1913017138092579,-0.4693511440871048,-0.8294407204054857,-0.9862096041335751,1.226424949598531,-0.5116399350466819,-0.4370230074327944,-0.5696973475938113,-0.33012607212434913,undefined,1498238985878
903d185fccf839df,0.016550937653471185,-0.6602822337302325,-0.2836825167428187,-0.3439065940627441,-0.701074307242457,-1.9427100310320844,1.966962648843562,-0.49089071159393877,-0.26464335902955055,-0.7139449544352184,0.0673472522488888,-0.0008225642947269265,-0.9349167223707665,-0.8159984699150137,-0.9865483080681133,1.9975241504055596,-0.1827357229013938,-0.8371795779557519,-1.0098938084434113,1.4950816316212936,-0.4564229044804558,-0.4358412604941251,-0.4851761225254602,-0.21805267153098737,undefined,1498238987359
903d185fccf839df,-0.3244086442562915,-0.6972642224538684,-0.31813484642835127,-0.33224851738254463,-0.9344773427029334,-1.9590193639621378,1.943402219186083,-0.7570176116206428,-0.3206039858760209,-0.5618518048492039,0.0946164818109399,0.016039979227602315,-0.9827874331550802,-0.8335893062452804,-1.0107588592843104,1.9530708096096114,-0.2090344913292772,-0.8520999934036407,-1.0183039753190404,1.5318993166353994,-0.4585778097446996,-0.4351223362452986,-0.4742242024325683,-0.19907548709151168,undefined,1498238988870
903d185fccf839df,-0.27728419211695593,-0.8258206093404254,-0.36853782760749415,-0.4317297672166062,-0.942191620335049,-1.961064435353026,1.9430471910046425,-0.7716779817668078,-0.28302599916144633,-0.6414029556978039,0.0851637953602363,-0.0003448311714483383,-0.8870460115864528,-0.8539576692911058,-1.0223378272042443,0.8579013186629878,-0.5482846797082624,-0.8844423372014781,-1.04680198617879,1.1842948074750634,-0.556286252160013,-0.44413739716934675,-0.5213950598676403,-0.29933088171092226,undefined,1498238990373
903d185fccf839df,-0.19966730939523486,-0.7483345711324176,-0.456583573735231,-0.43984131834360135,-0.9112008136117403,-1.9608408284515353,1.930424121808881,-0.845840913959703,-0.3076797318996398,-0.6285153959334713,0.09930658348740738,-0.013752167866694299,-0.9218610739750446,-0.8687710177581371,-1.052864170068573,1.282228983814329,-0.3734085384254394,-0.8967979107147096,-1.056289661397243,1.454830100865408,-0.4945706203954904,-0.44507015536237615,-0.5636423909123048,-0.3264066304362764,undefined,1498238991855
903d185fccf839df,-0.13313867108087873,-0.7659450210760592,-0.30154681946558715,-0.36779827728162073,-0.6801429182683455,-1.9768892871273838,1.9397678192765848,-0.7417324959775736,-0.2953082604144185,-0.6808333779201254,0.10644182906151965,-0.0749161612600765,-0.7564895276292335,-0.8659935039933528,-1.0791799998919482,0.5790574324963125,-0.6868945006447988,-0.9031055225343422,-1.0750830956566804,0.9181788809997051,-0.6336291653730436,-0.44740004510784975,-0.5658811017649014,-0.42745196433915067,undefined,1498238993363
903d185fccf839df,0.055359344508921986,-0.7630099314714561,-0.26581821402005024,-0.2811902335863963,-0.7225199898387766,-1.971664803684498,1.9344924188632058,-0.7644784080757386,-0.25819753486590624,-0.6655960274825226,0.11387875128276731,-0.008787850499628113,-0.4823209113190731,-0.8696968621551193,-1.0170746582946757,0.4800477240443772,-0.7757872665050075,-0.9119526453112021,-1.0374962285202614,0.7570033539673537,-0.6621020843807234,-0.4526387196654202,-0.5871422548001111,-0.4630711891591774,undefined,1498238994930
903d185fccf839df,-0.2828282798152287,-0.5258556676344692,-0.46168766022745056,-0.47878455656923097,-0.9444750447294983,-1.908528445670839,1.9085125658290854,-0.9311213476754604,-0.3503022677439624,-0.7040669610670653,0.09886748247226776,-0.146052690802117,-0.499728442513369,-0.9095076985220774,-1.0212852044656813,0.14058556365858252,-0.9365643766434939,-0.935751847816941,-1.0368035443658115,0.27972853424990923,-0.779999168825713,-0.4588261232901774,-0.6725205515710186,-0.5557059852080514,undefined,1498238996361
903d185fccf839df,-0.44914997911734816,-0.586318285510953,-0.5580274198365694,-0.5947636220123563,-1.0950576487565176,-1.8317963188232025,1.901604066368718,-0.9459474074065426,-0.336099354309036,-0.7383330497890529,0.09057935231490419,-0.013719793476235498,-0.6607481060606061,-0.9048785251025716,-0.9970746385250167,0.08198796264680266,-0.9390314414601886,-0.9445419735470376,-1.0200601753996217,0.16764324979254033,-0.8038267799537043,-0.4618881602266869,-0.6556637420797001,-0.5590242489939407,undefined,1498238997883
903d185fccf839df,-0.7027907232395184,-0.9191561109536954,-0.6671268874023385,-0.7502128062756729,-1.3235749767293579,-1.73191621172878,1.8992609036261956,-0.9253691116219358,-0.24680231674508246,-0.7180912709760339,0.08945019651577468,-0.006047900906566804,-0.5301916221033868,-0.9187660324103145,-0.9949693746423061,0.11633831897979433,-0.910227774580532,-0.9680371946842851,-1.0199762133877168,0.04256167665154084,-0.8381828731528372,-0.4653817850622635,-0.6318689266790515,-0.5451892273681741,undefined,1498238999354
903d185fccf839df,-0.6321039070088761,-0.8821741076160633,-0.7181677523245341,-0.7996191009556574,-1.238882552908065,-1.6767505095512054,1.8871690442548723,-0.9249050694989817,-0.22531980957019573,-0.7141240578514373,0.07346562970348405,-0.0006108267667316842,-0.6607481060606061,-0.9363568816913557,-1.0318115275603508,-0.14634070442551372,-0.9632889326437478,-0.9905508086878171,-0.9993566119971826,-0.20207342929033145,-0.8936713928795855,-0.4728699793224912,-0.6336726919391383,-0.5688235324151103,undefined,1498239000883
903d185fccf839df,-0.6515081621947161,-0.5546194463844057,-0.7137020578492661,-0.777865583879444,-1.1443672825515068,-1.471831033004118,1.7978503156138586,-0.9591176302668688,-0.21679347959712816,-0.7395259779715734,-0.07777517746428506,0.012252202960468483,-0.8130640040106952,-0.9132110437330693,-0.9960219863375185,-0.4332670149066923,-0.9844126747872953,-0.9483164067385501,-0.960706228414682,-0.48403436486695717,-0.9353357209363548,-0.46547427253354723,-0.6054816788286862,-0.4652799857445044,undefined,1498239002371
903d185fccf839df,-0.6570522843983986,-0.13549038698982707,-0.4846560494424386,-0.6986675498719472,-1.1875157833903416,-1.3080459186179978,1.7145380549412466,-1.1205751666301973,-0.3004659453144694,-0.6754135795780857,-0.08334680567937895,0.03282946459248844,-0.8087121212121212,-0.9113593614144925,-0.9897062057327376,-0.5767301984120031,-1.0107176431542795,-0.9542313757345943,-0.9593628403532192,-0.5963506259117842,-0.9591443346941313,-0.45828001709556593,-0.6095114677881166,-0.46050563972172626,undefined,1498239003861
903d185fccf839df,-0.6653683296822834,-0.2793092953535057,-0.4623255439705033,-0.6735211761256624,-1.1970094825270485,-1.2402254592320572,1.6910933471113858,-1.1507102984453046,-0.36450048923010403,-0.6251435250907942,-0.037445526185922944,0.030001982478164116,-0.8826941287878788,-0.9178401944887197,-0.9833903809545539,-0.6353277923576026,-1.054349613323888,-0.9556879523872911,-0.9998323940663111,-0.662117386022467,-0.9865803060845002,-0.46307055500569533,-0.6122540347947546,-0.4809965710727565,undefined,1498239005375
903d185fccf839df,-0.54617101350868,-0.10437859208939354,-0.4265969385249664,-0.562453894327229,-1.1609478237368824,-1.3155856645486854,1.7303879123660555,-0.9891273987468046,-0.5047195491182636,-0.45593154746297815,-0.14041870709118964,0.1051491508691065,-0.4213945521390374,-0.9289502106955336,-1.0076009542574524,-0.5039882594564074,-1.0065291168065533,-0.9349475615393159,-1.0060525593149348,-0.4533606613360197,-0.9366379724997239,-0.46668993345900206,-0.6050305569569864,-0.47164758924094957,undefined,1498239007346
903d185fccf839df,-0.43944798954606706,0.004219416387001835,-0.3704519871105512,-0.5204231187784071,-1.0640977001345875,-1.4402814855281125,1.7741794457336462,-0.9252153194484236,-0.5527486517816427,-0.42878272992735733,-0.10798417556552525,0.053990043966213555,-0.05583639705882352,-0.9141368622285023,-1.0012851699715546,-0.41508157786451094,-0.984567759770666,-0.9026115506685458,-1.017352409113217,-0.39258299807496394,-0.912705651484035,-0.46829386890204044,-0.6204647460710868,-0.4783507269846152,undefined,1498239008362
903d185fccf839df,-0.4228157954620683,-0.25289344507008926,-0.461049268210499,-0.5182595400494695,-1.0996759248242942,-1.6636392211390205,1.8641345878603843,-0.8640655120571809,-0.5606350482705357,-0.34635087828060074,0.019641303894144507,0.07826047209327724,-0.6999150512477719,-0.8687709983319754,-1.0033904228109145,0.011266732229448333,-0.7902013767650664,-0.8744236180448842,-1.006346425640906,-0.074805279103778,-0.8303581937960536,-0.469452936024524,-0.6485207783545046,-0.4583437555636636,undefined,1498239009910
903d185fccf839df,-0.42974575843691787,-0.7407033761568396,-0.3806601600949903,-0.42203850156321987,-1.0014578053423588,-1.8340207403812476,1.9448222994386686,-0.622746909091627,-0.33453498997409264,-0.4924853620057427,0.10156009946239464,-0.022200039560276913,-0.8304715352049912,-0.8465510047706711,-1.020232559640417,0.8619425520187806,-0.6618324167777448,-0.8423219260514212,-1.010761413175631,0.41945402545627736,-0.7099618468378416,-0.4668082691578195,-0.6335797144232084,-0.4589644799537398,undefined,1498239011371
903d185fccf839df,-0.4616242023175191,-0.7500955868987894,-0.3474835978955632,-0.3926583102248506,-1.0317594697899404,-1.9070749999259358,1.9461819135907437,-0.7181752558670378,-0.26249311252287655,-0.589763772878416,0.10778079945642174,0.02823661182512496,-0.7782489416221035,-0.8863618540884038,-1.0433904733935835,0.9811585403085659,-0.6282526280171615,-0.8636639473128087,-1.0227889313968435,0.690143296206448,-0.6657377439808435,-0.4687763389441877,-0.6746444335918192,-0.4001184268176181,undefined,1498239013411
903d185fccf839df,-0.6695263695769307,-0.7518566318931537,-0.3934203763255392,-0.44481197612174034,-1.209270029195809,-1.904321839180394,1.9369670780640407,-0.8129700653646904,-0.37090203342640143,-0.656950620661694,0.07991403604869707,0.09448831892454138,-0.4126907865418895,-0.8835843467990067,-1.0802326447172126,1.0013645940286435,-0.6023553484761802,-0.8762918365847415,-1.057535094094198,0.6790564164409456,-0.6849639927628685,-0.4669763763329169,-0.6571286600906268,-0.3493833293586675,undefined,1498239014358
903d185fccf839df,-0.7014047271940076,-0.734246181949512,-0.3953345358285963,-0.44481197612174034,-1.3202938416486791,-1.8687846358667946,1.9416402435327875,-0.7864907555983446,-0.33930804784467355,-0.5210132120216805,0.06586352592794818,0.052887638642094045,-0.3909313725490196,-0.9021010145754809,-1.0802326447172126,1.0801683052899442,-0.5794143217865703,-0.8954363255485007,-1.0887688580067287,0.646673486017425,-0.7082014298192284,-0.4735433464311915,-0.6343998897904208,-0.29152241723193273,undefined,1498239015848
903d185fccf839df,-0.673684392218873,-0.723679911983327,-0.4291489817710762,-0.43554405786397987,-1.3117258580501647,-1.853160099738845,1.9447276380367173,-0.7508913713804298,-0.30227076969030303,-0.65011160143808,0.0632817823718887,0.007898726919074926,-0.4692652629233512,-0.8900651798732339,-1.068653662072811,1.0640034283962163,-0.5760100515176427,-0.9098881028486726,-1.0807784998999244,0.7227572050079137,-0.6945342181860751,-0.4736434820693075,-0.6183406471629821,-0.28213390562837753,undefined,1498239017358
903d185fccf839df,-0.3992534313707616,-0.6955031043895235,-0.41575088179747455,-0.511618064348888,-1.0766976829497386,-1.7660209319534674,1.9054751517325097,-0.8445737730073917,-0.14650516670985916,-0.680523044500815,0.03809333812844474,-0.03644522604186503,-0.6172292780748664,-0.8798809951126275,-1.0654957791326545,1.205445945760368,-0.4802865234830931,-0.909976764342526,-1.0454166175640374,0.860511696758785,-0.651171541255624,-0.43712249710081647,-0.5908602230943176,-0.22510927657743007,undefined,1498239018856
903d185fccf839df,0.033183062726650475,-0.9150470059668457,-0.5159189604127076,-0.5777226886524843,-0.8684843158295061,-1.6841505021925276,1.8545831437754656,-1.0436815063146303,-0.19513286190595344,-0.7493476702556268,0.07023793511788065,-0.05075501247042707,-0.7956564728163993,-0.8983976887906507,-1.0307588827350864,1.405486092401021,-0.38897287045434376,-0.915594086093066,-1.010565502752469,1.2441485649113169,-0.5594413990788083,-0.4294908842260403,-0.5553037249530107,-0.17213027871128753,undefined,1498239020356
903d185fccf839df,0.08446565827686252,-0.9209171559480596,-0.5414388845999065,-0.5948462705925259,-0.7866718797730553,-1.6898152124922452,1.8574417427592531,-1.0189147785142074,-0.1945380822670595,-0.7672501777727735,0.0690284802345111,-0.015589153324406801,-0.7956564728163993,-0.9021010145754809,-1.0412852279164573,1.4822692435138685,-0.35695336551793017,-0.9250935015925438,-1.0169955717462722,1.2927152630605125,-0.5504647756752146,-0.425605807902965,-0.5586288828534459,-0.18828855639172654,undefined,1498239022200
903d185fccf839df,0.05535937901433172,-0.7178097327741209,-0.4374435035263571,-0.5585298789381874,-0.6686949357780906,-1.737879064054013,1.8896700182506923,-0.8279783338771944,-0.18806390248383215,-0.7373967733848472,0.04274124376695207,-0.14998866340997447,-0.7390819964349377,-0.9021010145754809,-1.0549694449946343,1.5368256111698555,-0.39912365379313536,-0.9193748538671088,-1.033997822292822,1.1663094235438205,-0.580257152749346,-0.43380495459091545,-0.5934999951570364,-0.20362670298617674,undefined,1498239023390
903d185fccf839df,0.12050207304129154,-0.7659450210760592,-0.4591356169813408,-0.5650677401295204,-0.6795257754937893,-1.7364838499305888,1.888641764572646,-0.8339081073496334,-0.18534270494489544,-0.7378619961166409,0.038506265892471594,-0.22482187698688014,-0.6563962232620321,-0.90580436626186,-1.0612852366427659,1.5731966548425473,-0.3912719221495966,-0.9193368564320478,-1.0405258469447518,1.1708827620163778,-0.5796238872168197,-0.4345269137562926,-0.5938296622840695,-0.20624174265357847,undefined,1498239025218
903d185fccf839df,-0.14422684647742423,-0.7536176476595254,-0.6020500387634885,-0.6708525916105101,-0.6534823891120013,-1.7569648501716195,1.8934174960428014,-0.8480106596417922,-0.19582247205440723,-0.7030244109023291,0.04332691352885151,-0.6185407150901248,3.147149342691622,-0.9122852058114745,-1.0476010122023551,1.8015252088559777,-0.1987854870416144,-0.9497349861388961,-1.0691707903986005,0.8833629877951903,-0.6631061722399221,-0.42299295948619464,-0.5235199800479429,-0.13236599542151625,undefined,1498239026347
903d185fccf839df,-0.5946815824624605,-0.9050677509987821,-0.7015797253617699,-0.7883524521406708,-0.8353232240002915,-1.819991733182314,1.908625658377001,-0.8948761073816537,-0.24797001804335325,-0.6852095964031909,0.053844068161514824,-0.8778078822870369,6.776619596702317,-0.927098544565425,-1.0707589425205477,1.7833398142108785,-0.15536976647698933,-0.9662069726161091,-1.0959615790802366,0.6012018747298177,-0.7419974259462081,-0.41253646795256665,-0.4614508305921749,-0.12181479253417826,undefined,1498239027916
903d185fccf839df,-0.9675195047365953,-0.897436556023204,-0.7991957607308932,-0.8723992600306318,-1.1154027563623123,-1.825938281385261,1.92224541418155,-0.8759103032295565,-0.30973485153794933,-0.6293158795931164,0.061157185388005714,-1.098816381738714,4.169841800356506,-0.9400602171892667,-1.0665483981901007,1.8358756217184125,-0.10176189488264016,-0.9931853127094823,-1.105400276916172,0.4819409134828714,-0.7817979607187872,-0.401602366036921,-0.41145672507714554,-0.08733175345827568,undefined,1498239029371
903d185fccf839df,-0.8704985048506731,-0.8622155976799362,-0.864273117643642,-0.9152492668399111,-0.992982384172887,-1.838972704173431,1.9051148608015767,-0.9872077086156752,-0.40291996705067423,-0.6952826463142368,0.08499417785057982,-1.160319354056383,3.147149342691622,-0.9798710746012333,-1.1139168815650486,1.6944330478248175,-0.15826592387679714,-1.0253440009081352,-1.1610948918982482,0.25949497039080616,-0.8590202754220402,-0.4319849021799564,-0.4240348860299538,-0.1798964642712784,undefined,1498239030874
903d185fccf839df,-0.33965485954748426,-0.5980585854733808,-0.8432183796578122,-0.8787046395257436,-0.6992640216789353,-1.9096394926377722,1.8855832858603165,-1.0825554597919793,-0.5411490659720621,-0.6811648580867746,0.09221261796918252,-0.9660414903845719,5.079385305258467,-0.9585769011542089,-1.2107591048354216,1.2397962455639164,-0.2938522860128327,-1.0146476593027802,-1.174675701840464,0.12642160750953527,-0.891662974815748,-0.4333754040077707,-0.40919994399069237,-0.21418223981381024,undefined,1498239032365
903d185fccf839df,-0.36876113881001504,-0.7266150015879301,-0.7098742471170508,-0.785544237345668,-0.5154174755860704,-1.9784918046352562,1.8926390553621701,-1.042949400845466,-0.4157854619312647,-0.7989201238822891,0.10272177826357189,-1.0841011914237622,3.682430926916221,-0.9595027293627229,-1.2276012269404566,0.5184392854684401,-0.6126441814481574,-1.0056232138538033,-1.1920907645957615,-0.1955444847862823,-0.9704879276487759,-0.44421715296379066,-0.43013829994942393,-0.36467982532652155,undefined,1498239033865
903d185fccf839df,-0.3063904713794867,-0.8821741076160633,-0.6632990766701232,-0.7050944923102199,-0.5088140587475454,-2.028987380899866,1.8524503611199483,-1.3484853245232922,-0.34515320907981906,-0.746793400749449,0.08630638466500977,-1.0146088576357961,3.521411263368984,-0.9835744084802976,-1.2065485733888837,0.03955523146257045,-0.7545168920730537,-1.0338364776985078,-1.1902296123887321,-0.39854219228936083,-1.0271976179448163,-0.4492128796769326,-0.5204512842326487,-0.3881759213238431,undefined,1498239035344
903d185fccf839df,-0.08047016574868016,-0.8903923322037589,-0.5746154467993336,-0.6554428445773359,-0.45891814407636755,-2.022896420219679,1.853844160098246,-1.3120855652412073,-0.32983937304800504,-0.7218169797975258,0.08220687388421818,-0.7335692257658433,3.2777058266488415,-0.9715385705403571,-1.147601144180703,0.017328483336612115,-0.7693663656639738,-1.012557786693321,-1.1696589886253985,-0.2933708099719977,-0.9899437657480822,-0.4497308822649171,-0.5412285394071801,-0.40817674462794934,undefined,1498239036863
903d185fccf839df,0.05397333121070623,-0.9373535905094545,-0.5829094602807158,-0.6627877979825896,-0.5397637235429242,-2.035492946359258,1.8618229890445566,-1.2857231062503554,-0.25453950763804484,-0.6708369100321026,0.07988826484213458,-0.3862372690663579,0.2705548128342246,-0.9557993873894246,-1.1370747989993322,0.83769526494291,-0.6529883733123519,-0.9802534410115545,-1.1475910473466897,0.1682437865397951,-0.8622338412687056,-0.45602414455607154,-0.5732487920805377,-0.4441824111299515,undefined,1498239038363
903d185fccf839df,0.04842927801784322,-0.956138070449339,-0.5522849413273984,-0.6664376496669803,-0.47160040913895923,-2.005916266886416,1.9092042109489162,-0.9285011292169102,-0.33152790880758676,-0.5407717452777523,0.08327252621156615,-0.14380564935946683,-0.847879066399287,-0.940060213951573,-1.0928642353757096,0.7993036893864863,-0.6845287268371215,-0.9637561230973686,-1.118456326947962,0.5760716135115783,-0.7550453914473367,-0.46300072918152807,-0.5815601888885843,-0.43836371472217056,undefined,1498239039877
903d185fccf839df,0.20920682061087048,-0.8851091826066703,-0.4291489817710762,-0.4472468489520977,-0.3174692368029309,-1.9765422315444576,1.9424712535708863,-0.5905314482259646,-0.2263154820809721,-0.5170836673190238,0.10563898754271947,0.045809654698389754,-0.8739903631907309,-0.9187660259349272,-1.077074724965887,0.6962528041082013,-0.6848865199898135,-0.8965445915613008,-1.085830197609802,0.7766363665802942,-0.6702223227869898,-0.45239217275664345,-0.5923209339830978,-0.4368179509241503,undefined,1498239041401
903d185fccf839df,0.16901257298425262,-0.6743705936851458,-0.1656501354048172,-0.23454327075868742,-0.4358987503873067,-1.9228066824976247,1.9341084701763183,-0.5833295319409916,-0.12524597350632066,-0.792689344643152,0.08257578193231625,0.06272475288145393,-0.41704266934046347,-0.8780293645971489,-1.071811570780786,0.8336540881165604,-0.5362181246336682,-0.8417392969217842,-1.0786094885526227,0.7458856689643267,-0.6468577536047898,-0.4498003187095322,-0.5924883712546474,-0.46603940239303043,undefined,1498239042853
903d185fccf839df,0.13297602019818464,-0.6209521996281072,0.12783483789780756,0.19653707087907374,-0.23644879724787668,-1.881204140461866,1.9155052331418343,-0.6108181240865267,-0.1814268410008375,-0.7595185190916252,0.058498413402797926,0.058579849765425615,-0.4779690285204991,-0.842847678985841,-1.0939168728387403,0.954890636554799,-0.5404381181749982,-0.812272110361836,-1.0755099013036695,0.7306566067410448,-0.6284789263220316,-0.441431040119863,-0.6361244203446103,-0.49198511419059227,undefined,1498239044374
903d185fccf839df,0.18010061035915917,-0.6391496937978626,0.8105071686430221,0.7913409195780076,-0.265135603341398,-1.9042473031340077,1.9535821936314655,-0.3640917196552119,-0.0021672662299914436,-0.8751710276372325,0.032382682533098596,-0.010542192155264474,-0.6607481060606061,-0.7567451343253739,-1.0791799925297145,0.9508494314637277,-0.554929246433448,-0.7575491435139722,-1.0637062818073777,0.8814073898545466,-0.5682848239683231,-0.4410290756597748,-0.6371510591549618,-0.4997479164082755,undefined,1498239045865
903d185fccf839df,-0.022257538212799084,-0.583383210520346,1.353454750458302,1.370731660962991,-0.4826986672271184,-1.8791637258179468,1.896875686026213,-0.7687607513823248,-0.10016264829699573,-0.7732836415942873,-0.017063324175805063,-0.07292628397301743,-0.43880208333333337,-0.6780492282837924,-1.0549694339512836,0.9144783595263143,-0.698370115152577,-0.6680519840298088,-1.0356770568909903,0.996310589882435,-0.4930867978687469,-0.45286905115657755,-0.736384814781773,-0.5375763182267825,undefined,1498239047372
903d185fccf839df,0.13713419811447083,-0.6362145895792632,0.9725619147709932,0.8080483748709602,-0.5454928506617541,-1.8676106992466308,1.8601925234673578,-1.0442171700715748,-0.12119118908144229,-0.3723636205653422,-0.05443880566090289,-0.059716188929326466,-0.843527183600713,-0.6502742330944685,-1.0286536225334928,0.8094067162465253,-0.6095312505949912,-0.613297353161178,-1.011650007649253,0.7481030494030687,-0.5167760150327589,-0.4670512958674071,-0.6955000647300311,-0.5190639957016491,undefined,1498239048880
903d185fccf839df,0.1260460917287448,-0.615082020418901,1.1971422287025526,1.1327748867066265,-0.4512758662535029,-1.8734081749871356,1.9277943183452346,-0.5535202577386625,-0.1456080633038003,-0.37285412751274144,-0.09462258441732381,-0.011040670270650976,-0.8565828319964349,-0.5234349429161885,-0.9991798987266103,0.5911811042989692,-0.6112806809794904,-0.5230085755401673,-0.9910583931841384,0.5888369302387851,-0.5080925127680882,-0.461762151523284,-0.6559260546818529,-0.5186288553396167,undefined,1498239050361
903d185fccf839df,0.13713412910365136,-0.6092118704376871,1.0357253663176345,0.9687771292104124,-0.39279139164044446,-1.8738064750424352,1.9543579887958062,-0.3712188931873605,-0.16166413749081432,-0.28271708580375976,-0.05637328468926371,-0.012277801038285603,-0.8348234180035651,-0.5141766155033387,-0.9991798987266103,0.6619025184370135,-0.5287495028898116,-0.5113559589689094,-0.9913382658088344,0.7754968868137204,-0.4616940169164093,-0.4559005458500118,-0.6687844966175513,-0.5075891276948182,undefined,1498239051906
903d185fccf839df,0.24801526197173102,-0.657934173737747,0.9457654606868404,0.8356326426766657,-0.359208590499764,-1.8828532403476193,1.9571639948528863,-0.33960607227859113,-0.21949331385032453,-0.283554766997703,-0.06984650293086528,0.008158706572719738,-0.7869527072192514,-0.4688107645575863,-0.9939167555848599,0.7689945805416483,-0.513285449752845,-0.48850036491053855,-0.9879867933989059,0.8413252412042942,-0.4333365908074598,-0.46127385784577224,-0.7204146387359046,-0.5212665952817115,undefined,1498239055104
903d185fccf839df,0.28682377234341105,-0.6162560504151438,1.1103725041978707,0.9130282955804065,-0.22765452514969167,-1.8792615543570832,1.951475721057085,-0.3326469436076612,-0.2651718006160465,0.13963189885702787,-0.10584311378177812,-0.002424827601708673,-0.8174158868092692,-0.4752916300087499,-0.9886535609074731,0.7649533754505771,-0.4907488911649712,-0.4815404594159815,-0.9808850304997712,0.8358125974922017,-0.43121867076338327,-0.4489984177730562,-0.7165895510071387,-0.5292217855920812,undefined,1498239056430
903d185fccf839df,0.42542510216498625,-0.6021676904602304,0.9585256769173893,0.8077578983651442,-0.0947633196527403,-1.8761450317481116,1.9822023792945433,-0.06766326173425537,-0.3379597843188856,-0.038791315682934265,-0.12360804375507908,0.0731745305944061,-0.865286597593583,-0.504918313992038,-0.9749693695971146,0.6093666544000367,-0.5554667212905539,-0.48570120410411133,-0.9671083098713595,0.6972419877961196,-0.45872464352582776,-0.4400653859491456,-0.7827311250677589,-0.5569138230748136,undefined,1498239057906
903d185fccf839df,0.4864098253081183,-0.5704688513336832,0.9917027473907154,1.1066275330016588,0.11623746655766479,-1.8889744823368002,2.027934709713348,0.2892145268820543,-0.4371164202741856,0.20158432076609115,-0.12283509398013315,0.015140463194992706,-0.9479723707664884,-0.511399140590878,-0.9749693695971146,0.7528297884420848,-0.5447303509276679,-0.49763246964350777,-0.9681368407215586,0.7783148042016522,-0.4461631715481778,-0.44288428329645646,-0.8174826195448416,-0.5612295135173494,undefined,1498239059407
903d185fccf839df,0.8190532929231767,-0.5205725180373806,1.0912324339889967,0.9480045325867491,0.35493763426650266,-1.881076032271813,1.9914040600425578,0.1834684760348797,-0.46253900958231914,0.5945348808386041,-0.12967486621858557,-0.06643594247131634,-0.9697317847593583,-0.4678849395867661,-0.981285164926363,0.7851594291706547,-0.5159582278888948,-0.45011006073682847,-0.9694312507704463,0.7788691441047895,-0.4311669586138589,-0.4294713108313722,-0.8039975172078836,-0.5062020971764538,undefined,1498239060873
903d185fccf839df,1.2570341162567298,-0.47654634933628803,1.3955637181560627,1.2461306683418698,0.4872939836214809,-1.88639601521259,1.9809453154310497,0.18398960873869044,-0.49818521970560575,0.5329622062161272,-0.14687222176240344,0.028167177023395128,-0.8000083556149733,-0.44659073214395845,-0.9749693622348807,0.6800879272144733,-0.503775886170819,-0.42086452712253897,-0.955528588084556,0.7328277904029807,-0.42521880177222376,-0.43811506049120597,-0.8152214518046418,-0.47875707885241225,undefined,1498239062374
903d185fccf839df,1.0976423109186404,-0.4871126485304654,1.1977801124456053,1.0004752416772618,0.4318952198884234,-1.8616338729910444,1.964895612322157,0.08498702362637002,-0.536811738576119,0.10817469718626092,-0.09527620974820097,0.0852567213412195,-0.5954698640819964,-0.4289999411414027,-0.9833904251279566,0.8073862691569581,-0.449615370531976,-0.41516487812847613,-0.9704038082163519,0.8627290762417033,-0.3975617464989158,-0.4164246713773525,-0.8468045416709507,-0.4908113664288185,undefined,1498239063860
903d185fccf839df,1.0519038720775205,-0.5246816376382265,0.6293120981692277,0.6339794258113735,0.6460640033393422,-1.895966858531328,1.9506052435403565,0.015445699061202427,-0.5239792987167893,0.07367200878043871,-0.03816914156809258,-0.10701352202676906,-0.2560230057932264,-0.4410357564174878,-0.9844430625909872,0.793241980676405,-0.42029680966325755,-0.4927814356891021,-0.9809130182938133,0.7881698026368944,-0.4518533969703658,-0.4020086761552786,-0.7514791091531683,-0.4733118668817168,undefined,1498239065375
903d185fccf839df,0.6832240587088525,-0.5282037130129587,0.46215301141208764,0.5251996826728054,0.6684354015778813,-1.9040609633840873,1.894140686757695,-0.3663786163768341,-0.5385270523478762,-0.3444968390456035,-0.018025888759486176,-0.05018411330933138,0.13129456327985742,-0.4549232993398607,-0.9876009602556115,0.7609121420947842,-0.4793887095074168,-0.4958085824734521,-0.9773096602947157,0.597075095442755,-0.497538647005785,-0.40050954199715183,-0.7146394044060173,-0.4536336907383901,undefined,1498239066857
903d185fccf839df,0.7705428964964449,-0.500026993103132,0.536800149292324,0.4226019603406923,0.7219724478913464,-1.8850473833637569,1.8038883763158042,-0.8934062039512556,-0.535424667112578,0.23514589056976395,-0.07712940697577975,-0.06845375827370143,-0.21250417780748662,-0.44936825885951737,-0.9991798766399089,0.7649534319800201,-0.5176914335160241,-0.5003303049013632,-0.9661847305542534,0.5232241472321442,-0.5121656145852407,-0.4003617397977216,-0.6736380462131427,-0.475056031093589,undefined,1498239068364
903d185fccf839df,0.9576548297772104,-0.6062768100610764,0.6707826738500369,0.5576364962576267,0.789549473172975,-1.9256599987504999,1.8959079183515914,-0.31488463426493807,-0.38274435550881863,0.382492506003487,-0.12977961754264578,0.08789163698763224,-0.24731924019607843,-0.4206674192732114,-0.9823377876649261,0.36891431552506354,-0.5409615558579955,-0.48253473302393857,-0.9504209155818121,0.4677127482615631,-0.510524826210537,-0.4198494414016747,-0.6494091373860033,-0.48201121035673716,undefined,1498239069946
903d185fccf839df,1.1433807497597601,-0.5528583867760454,0.978942277023217,0.8590548563065485,0.778739206367748,-1.9138740484694146,1.9032845280660973,-0.22682876975002586,-0.435188123401775,0.17379494754513983,-0.12716129442722157,0.08935498109896342,-0.7869527072192514,-0.41696409996376854,-0.9581272069997938,0.42347062665160756,-0.47605236514883836,-0.4934970578872508,-0.9391980301281697,0.5483390105030427,-0.4937898322065579,-0.40984315745117106,-0.6386369629270134,-0.48437000432206395,undefined,1498239071388
903d185fccf839df,0.9049861864233728,-0.5827962101362208,1.00829052021653,0.6407292005851264,0.5603430005517891,-1.9198578643041397,1.9436494175691001,-0.06683437366785544,-0.32698044964468786,0.16292562558205867,-0.20162098481206275,0.05880655202338865,-0.843527183600713,-0.45307161054589656,-0.9791798900003018,0.7972831857674761,-0.29080440727836665,-0.5246678063517841,-0.9568369901647611,0.8556611894318378,-0.43964745729315474,-0.416175517807865,-0.6846913602376096,-0.5682036230753138,undefined,1498239072905
903d185fccf839df,0.6333274419514464,-0.6385626787997412,0.9955305581229306,0.8001148271027645,0.2801091796833966,-1.925976777112543,2.0016760912269507,0.14662373345325072,-0.33794326921062323,-0.40213152299454297,-0.06436739123843198,0.09750727202721071,-0.3996351381461676,-0.4715882588962089,-0.9507587889319823,0.8680043737877482,-0.34178620363808593,-0.5608352468739429,-0.9404084783425471,0.8748476549080509,-0.4525986048931176,-0.41266432070312303,-0.6774224763920945,-0.5386984607498531,undefined,1498239074343
903d185fccf839df,0.38107274563290167,-0.6432587987847123,0.9929782607398714,0.8110578357548106,0.10659975936825884,-1.8911383448901977,1.9415587274818282,-0.2743737683212335,-0.41327740818513337,-0.5137646345695419,-0.1044953724077253,0.10728928568013762,-0.499728442513369,-0.4021507191198009,-0.9518114263950128,0.7609121703595058,-0.33851246653241635,-0.4703691472286054,-0.9162904715381427,0.8561385397732809,-0.4108116512484871,-0.44475463414937827,-0.7531674654093681,-0.5012296948920804,undefined,1498239075858
903d185fccf839df,0.47254983034759973,-0.6350405303550282,1.2092643070530995,1.0615263847256025,0.1802350712144129,-1.8696930401955654,1.9172172357204282,-0.32444686601529366,-0.28897902184021423,-0.3288484331319807,-0.2292474996218576,0.052903329969399455,-0.9349167223707665,-0.38270826522483015,-0.9339166705080643,0.7144381563562181,-0.3908073994943565,-0.4555943897233732,-0.9192431263336897,0.9248002072239963,-0.3942536239423105,-0.4703600072754745,-0.7305237920667608,-0.5108354096247386,undefined,1498239077342
903d185fccf839df,0.8079653245590896,-0.5886663162754462,0.8309237687488498,0.551413688225072,0.36713648460168125,-1.8664623849432924,1.9236181815410298,-0.23748948937597256,-0.5745084407703256,-0.3685039570937995,-0.1474430613673596,-0.06959178638088584,-0.9044535427807487,-0.36974658612560113,-0.9697061896441953,1.5267225277803735,-0.2885013775916505,-0.4696788546015732,-0.9579914659902772,1.283999747542024,-0.32780499692811094,-0.4672978554122198,-0.8625374309343198,-0.4610589871757569,undefined,1498239078864
903d185fccf839df,0.652731628126467,-0.5845571966746004,0.31604815436687855,0.2937559451390112,0.19417220253061881,-1.9297478142379003,1.9410248679510116,-0.2710320062393008,-0.4042947496590752,-0.725834570898595,-0.039928831080356324,0.007787034732811805,-0.9566761363636364,-0.35493316642930983,-1.0065483167944218,1.1731162767670764,-0.3589957673840305,-0.5315580482478234,-0.9724048970813429,1.0492504404264873,-0.41186144122567053,-0.47077026586726034,-0.7861619579736145,-0.4473444428864998,undefined,1498239080350
903d185fccf839df,0.652731490104828,-0.6233002596205928,0.09019258122311243,0.22522606335270387,0.3048257167106713,-1.9343177814954513,1.908425803788982,-0.4924118959547682,-0.4045826150571713,0.026310064275354983,0.04525378694227815,0.006205483435208389,-0.9479723707664884,-0.409557416017172,-1.0286536298957267,1.074106511785698,-0.44193379916189524,-0.5871106301305389,-1.0072070337702292,1.1415949172563002,-0.42999726883812583,-0.46571714530214026,-0.7422866522616273,-0.45856606141510625,undefined,1498239081858
903d185fccf839df,0.26048945066649226,-0.683175847884959,0.5348859897892669,0.4725586958336697,0.2559583621008287,-1.9213113102320656,1.956148887573354,-0.18775203573732702,-0.33768022975853157,0.5762372124760586,-0.005628771612322906,0.027337974355324465,-0.8957497771836007,-0.376227386822892,-1.0023378111157022,1.1529100534586696,-0.50163391095879,-0.5733174786682993,-0.9653521106104644,1.2520325701644985,-0.3778683252275069,-0.4435180278234245,-0.8492155846653922,-0.5617459931582097,undefined,1498239083396
903d185fccf839df,0.3505803150505162,-0.32509634829500456,0.9521458229390644,0.8591503689428999,0.3359296565209075,-1.826895598229482,1.9361255440982392,-0.1587823101185071,-0.5758292895539269,0.680899046659632,-0.007220103961170829,0.032573675311327065,-0.9001016599821747,-0.3540073544092641,-0.9854956779673165,0.9932819859934503,-0.42942040715261176,-0.5397592099003325,-0.9494903401756425,1.2644437166961,-0.3549121304990161,-0.3793782613309445,-0.8858843996223901,-0.5960289215332529,undefined,1498239084898
903d185fccf839df,0.47670780123142753,-0.326270436747232,0.38240178703963174,0.4542976229717602,-0.19981115722019155,-1.7753099373146128,1.914516422325655,-0.4091324796794931,-0.44875279708504373,0.5472218137784425,-0.031008190476727995,-0.10378445359678916,-0.7869527072192514,-0.41881577580695817,-0.9876009234444425,0.9791378105717833,-0.4661635044465693,-0.5679598082895423,-0.9349579631956829,1.167556698701955,-0.3837065807838291,-0.33079223283123377,-0.8708828452814169,-0.5609210626425007,undefined,1498239086363
903d185fccf839df,0.4559174637365523,-0.38144978811465774,0.11507462166725865,0.1788182899360933,-0.4001559619949247,-1.7684340227557045,1.945040577839999,-0.26920322165342697,-0.38988854941434065,0.5837418637956342,-0.04334814724576844,-0.10032554897192347,-0.39528325534759357,-0.49936325408553284,-0.9739166953229149,0.7467680514672819,-0.48271730711568045,-0.6271981646216399,-0.9293395241840524,1.0738417621121459,-0.4384624067626145,-0.31935548060627394,-0.7571987557832681,-0.533951817414413,undefined,1498239087873
903d185fccf839df,-0.5212227223826819,-0.46363206321960604,-0.2670939815061557,-0.26847180385825653,-1.1193113235495327,-1.7553460268725123,1.870890571290122,-1.0037737562291464,-0.2991934533799403,-0.36797315663816016,0.07993855775390511,-0.11684252393474609,-0.499728442513369,-0.5863916755199183,-0.9728640578598844,0.46994472544905985,-0.5968841587714623,-0.6518016508249177,-0.9546190018937212,0.6571598262624369,-0.5494974516648846,-0.29611182528892926,-0.7166725866368124,-0.45590832159448624,undefined,1498239089345
903d185fccf839df,-0.9370271604177342,-0.510006277299188,-0.3832122033411001,-0.3530413912722578,-1.4954592602412848,-1.7418620616424028,1.8763000838237336,-1.0572068062259983,-0.3283811388596616,-0.6664515317343531,0.10035478769573415,-0.11058094171359366,-0.7477857620320856,-0.5326933156567492,-0.8728639553304717,0.16887411235496733,-0.694206388930308,-0.6135506705926836,-0.9061311021207392,0.22980677150136022,-0.6108912417428082,-0.2752359249673708,-0.6546020537514584,-0.40390850642366477,undefined,1498239090868
903d185fccf839df,-0.8441641831737544,-0.500026993103132,-0.2773021544905948,-0.2714011245792277,-1.4533599021287984,-1.6655282342647555,1.8694231440999727,-0.9070071902824361,-0.33925224803824794,-0.7870574013365961,0.10003605245245363,-0.11555694118452012,-0.8217677696078431,-0.45307156521818565,-0.7644427604590479,0.12644124691330783,-0.5157587514058954,-0.5403228423194805,-0.8501566159086568,0.18998639149648935,-0.5645578610913349,-0.25842297136079184,-0.6263726793503709,-0.38723879924273824,undefined,1498239092360
903d185fccf839df,-0.9439572269088129,-0.4284110756483458,-0.27538799498753774,-0.19882502688658313,-1.4537301866980463,-1.7012284839838354,1.9031661905765591,-0.7175870063485968,-0.3297140500288171,-0.7595700471239865,0.09798996515362712,0.010104614955365352,-0.7608414104278075,-0.4725141162439655,-0.7623375149819219,-0.06349581633786339,-0.5482987288490914,-0.582943553838605,-0.8440134165889915,0.1492267076387014,-0.5906363953416855,-0.23600546665597907,-0.6038401312471497,-0.40320443834743536,undefined,1498239093868
903d185fccf839df,-0.8358481378898696,-0.5035490830918604,-0.3615200898861164,-0.41304225770094505,-1.3302812498700936,-1.7391601451028547,1.9227740230093735,-0.6238110737407274,-0.31019655113027983,-0.7931648923703264,0.07090509802726803,0.042164215526056065,-0.8000083556149733,-0.630831688544076,-0.8465481218259796,0.4618622587374743,-0.48854208693301304,-0.6868228282424887,-0.8679984846718499,0.5442430242162651,-0.553525783732868,-0.25314151989073885,-0.7967309946166587,-0.3680278222006899,undefined,1498239095373
903d185fccf839df,-0.8899027255311034,-0.46539302052999315,-0.5242124656201907,-0.5716411374137024,-1.35910177415219,-1.7141487735089638,1.8865247785457808,-0.8418748361413699,-0.30329876143094225,-0.8043105950708619,0.04365009257405269,0.032455766987638135,-0.678155637254902,-0.7826684471961209,-0.9223377173125978,0.32244030152177583,-0.5855067171764153,-0.7836155393413075,-0.9383794058247642,0.5251489501666189,-0.6181289339694136,-0.3216959240476608,-0.7731943183727887,-0.44068961945816254,undefined,1498239096889
903d185fccf839df,-0.9245530579864972,-0.4894607523649394,-0.563131506328789,-0.5930295968504509,-1.4823758530462066,-1.7490198146481721,1.914311307083187,-0.8095194088762859,-0.28876406364733986,-0.680139686103765,0.03004773477024918,-0.07048796259256102,-0.7434338792335116,-0.7669292672828821,-0.8981271476908163,0.3588112038708601,-0.5553067574775146,-0.7683594776681236,-0.91952999733523,0.46780513865153234,-0.6180198978615062,-0.31478953287829253,-0.781621533411,-0.45231705259694316,undefined,1498239098477
903d185fccf839df,-0.953659337249028,-0.5041360396339971,-0.5637693900718418,-0.588415126137549,-1.5303586291445095,-1.7207125713454825,1.9103902612149557,-0.795935795836852,-0.2364651278329646,-0.7071471169327872,0.005426770713754761,-0.02645374723855437,-0.691211285650624,-0.6687908879201682,-0.8833903078740764,0.3951821910141089,-0.5648472866504543,-0.7311344357179402,-0.8853155918607767,0.5523118056452758,-0.5722620429396983,-0.2477606106700292,-0.8093109242971348,-0.4823165735189485,undefined,1498239099890
903d185fccf839df,-0.7582312896735582,-0.605102736222845,-0.34556943839250615,-0.42645224645340996,-1.2983544456845366,-1.69093324794743,1.8802000860266468,-0.8974238227393014,-0.2957085284113942,-0.8523644322214045,0.016728372617534466,-0.026842923949245878,-0.8217677696078431,-0.6326833838134274,-0.8918113560426847,0.6821086004218128,-0.4845244728254368,-0.7059419866772882,-0.8441953351949334,0.7067428142183447,-0.5137533421958772,-0.2211483452119093,-0.7724150196355615,-0.48481066582126664,undefined,1498239101463
903d185fccf839df,-0.48241436728534565,-0.5505103413975561,-0.014441700141287421,-0.05255754407847446,-1.0930005020409204,-1.713706219988369,1.8564792315489933,-0.9818295454274563,-0.3851744488890368,-0.977691079432423,0.012699930425471347,0.023526099797637277,-0.8304715352049912,-0.596575840854363,-0.9065482069027753,0.7790976921958517,-0.397487882331435,-0.6228790977257418,-0.8548444812574801,0.8915703551793683,-0.44524869211036855,-0.2200020417650892,-0.7722249128648494,-0.4814677090185573,undefined,1498239102862
903d185fccf839df,0.12327403062690358,-0.4806554689371339,0.7077873009186287,0.6489766543942026,-0.6858308977517589,-1.776423315999271,1.8283429255331396,-1.129812964830643,-0.30347393019238683,-0.5702505383081398,-0.022242194110253875,0.04915090653898974,-0.9088054255793226,-0.6021308424823827,-0.9402324511128451,0.783138897286923,-0.38483068324329706,-0.6206372359352417,-0.859217487419229,0.8642997094382908,-0.4510699159774329,-0.20152065454421517,-0.8056599521642461,-0.5206121100255459,undefined,1498239104382
903d185fccf839df,0.2743495836486498,-0.5135283088319317,1.5978132724787377,1.4674870064161607,-0.35759373312195797,-1.7942443244074924,1.868100332007323,-0.8020399799471367,-0.24124058192076706,-0.1860555781727469,-0.04722093906082856,-0.008787392052789278,-0.9610280191622104,-0.4956599606776391,-0.943390363501937,0.6841291605702662,-0.3391892225153923,-0.5248514629586416,-0.8823279536164355,0.82896027542935,-0.41869360850241977,-0.1686815271089749,-0.928488443429439,-0.5106329801870529,undefined,1498239105863
903d185fccf839df,0.4808658411260748,-0.5863182562829606,1.0599695230187278,0.6893778258517091,0.13229344732271667,-1.8294414574516082,1.8424860305585846,-0.8693215299210966,-0.31379299872622635,-0.12434084197116577,-0.051526928393404524,-0.034531194702486674,-0.9479723707664884,-0.43455496867097154,-0.8676008048264876,0.26384267224527447,-0.4558214980506523,-0.44631662815508055,-0.8723505017100198,0.4419203525429026,-0.48600927818290535,-0.15459359708243875,-0.664343050823632,-0.4593280022841345,undefined,1498239107373
903d185fccf839df,0.43235516865606505,-0.5892533312735676,0.2739396949430166,0.2839747847241511,0.20073446865092434,-1.8473206981898416,1.8511775451474786,-0.8112138465773756,-0.27530987477974184,0.03875231301226255,0.029085315463878613,-0.020989143898281156,-1.0001949643493762,-0.3836340124910031,-0.8412849786842292,0.5123773930376686,-0.37071292982713944,-0.3747037011895489,-0.8413476329662627,0.4452310185157888,-0.44660673489264957,-0.1578467695755336,-0.5738477492398223,-0.4776733748763306,undefined,1498239108880
903d185fccf839df,0.4365132085507123,-0.3409458117002667,0.5131938763342833,0.6088381378761094,0.2254304216928424,-1.776006381193036,1.9032871594408436,-0.29247300246952357,-0.36875363377832737,-0.08788830380289463,0.22546137268856403,-0.006113989145782559,-0.9610280191622104,-0.3225290204843355,-0.7844427986342916,0.6053254210442439,-0.3495545153653989,-0.2814764371098051,-0.7606184288937666,0.6285495118500009,-0.3443129949318672,-0.16868602167162217,-0.628937477286334,-0.42932661608381534,undefined,1498239110358
903d185fccf839df,0.38384477222933316,-0.18010346839106783,0.8443218687224514,1.022303300808746,0.16742937995592427,-1.740746358965025,1.8618177493405437,-0.5202999683926031,-0.5268973071374905,-0.38813115703318624,0.3896201097289909,-0.07547318142492701,-0.9697317847593583,-0.3382682003975744,-0.774969098278185,0.5123774778318332,-0.5240860763028868,-0.28799936782408564,-0.8069093295131704,0.6317061983898656,-0.3548111659653906,-0.27377694798352453,-0.7167306919170761,-0.4747778898772209,undefined,1498239111860
903d185fccf839df,0.2175231074326234,-0.2388050558871836,1.0701779501401163,1.2464844615356832,-0.24882249757292238,-1.6944923263131342,1.8387596053357291,-0.7710561582154403,-0.38124714288830364,-0.42087472157341077,0.4961435991947676,-0.17602109978096012,-0.38657948975044565,-0.34567483901646,-0.7981270193935853,0.29011057599904133,-0.5517663704680627,-0.3331532559227638,-0.814388919802037,0.5460446451067166,-0.39711779265679503,-0.28723580170427154,-0.7442399756580113,-0.45849144211317466,undefined,1498239113395
903d185fccf839df,0.10664169852126588,-0.351512023210467,1.2654092584675145,1.3271824667565182,-0.1939380200161336,-1.6859253840304158,1.8309254140086366,-0.8111340590800122,-0.4046422304574066,-0.2521474764390293,0.4181830488253021,-0.3616545768011818,0.8493552250445633,-0.3928924046577256,-0.8570744522828829,0.19918322119980544,-0.5598989749220213,-0.39014974822201165,-0.8459725243073379,0.5316624967367896,-0.44298550668338366,-0.3232848478735149,-0.6711507668291721,-0.41769254244765736,undefined,1498239114881
903d185fccf839df,-0.045819833293286344,-0.46950215474483525,1.1505675665295239,1.1855860949891648,-0.23048309150918567,-1.7950875078835697,1.8128507564713667,-1.1633654437955592,-0.47693682137119103,-0.6349228893882033,0.26256324352861454,-0.35870912695326684,1.1278757241532977,-0.39289239170695106,-0.8981271513719332,0.20322445455559823,-0.5838521221199072,-0.43794447432692535,-0.86391234747466,0.4310336555029855,-0.4890010286763048,-0.3557074222042365,-0.6005043084512759,-0.43150812490134105,undefined,1498239116364
903d185fccf839df,0.10109764532840287,-0.5510973563956775,1.3776994154332944,1.270365054249471,-0.2262453923314208,-1.85150168038283,1.8585620400822884,-0.9478844431461257,-0.437813013059375,-0.9181940205888184,0.24122226870141258,-0.26721642892459563,0.0660163213012478,-0.30586398969872736,-0.9570745916234645,0.043596387090378996,-0.6804748312297888,-0.40943356183594004,-0.8842170925409043,0.33718013174640155,-0.4964279561462838,-0.37986800124795395,-0.5859772037275971,-0.46833934217538353,undefined,1498239117859
903d185fccf839df,0.044271238123195965,-0.6015806754621091,1.6316277184212176,1.5776490762092243,-0.3069778247754201,-1.8670633284975042,1.91236523575974,-0.6044499517536337,-0.4305251902542778,-1.063298185918071,0.4205883769144481,-0.15760737395293173,-0.4823209113190731,-0.3141964921407569,-0.9507587668452809,0.08602913947315237,-0.5996706134308734,-0.34756070310995724,-0.8874776065745964,0.4243815294799432,-0.44942278955113035,-0.3808605611405254,-0.6214971587912326,-0.48259063441382505,undefined,1498239119372
903d185fccf839df,0.37968680134550536,-0.5593155371413845,1.6099353508292844,1.5493171272956876,-0.2025471460827184,-1.8560809663572593,1.9295063120198943,-0.4487163969457107,-0.5086252122657808,-1.0060145939404355,0.49025480641314456,-0.1778623709965868,-0.5650066844919787,-0.33549069958356453,-1.0012851662904376,0.17493593412393496,-0.6488052452394052,-0.3713599061915094,-0.9663806423782226,0.5831702969969395,-0.4479035769284566,-0.43425549711041583,-0.619881295140689,-0.5509566157507639,undefined,1498239120876
903d185fccf839df,0.6056071069763119,-0.47654633472229185,1.5595328779240403,1.4613405767356082,0.018502767956745162,-1.8665112994466224,1.953716304704176,-0.21725522694392896,-0.5739292139070722,-0.9359273316527837,0.4111236108061086,-0.1366884345606564,-0.3343568961675579,-0.29197652448100175,-1.0033904264920313,0.5063155995334225,-0.48457065674198735,-0.32955614564698155,-0.9867833422584388,0.9428625792764657,-0.35968690407875636,-0.4243051786495571,-0.4986119796372779,-0.5955874896020524,undefined,1498239122371
903d185fccf839df,1.0934842710239931,-0.4912217389033189,1.3872694505377312,1.3547218787109725,0.4713717284869424,-1.8675967247037855,1.9011280753462436,-0.3767597219786803,-0.4628233099808471,0.30703983083866837,0.226716031748742,-0.12074309643858705,-0.3343568961675579,-0.2975315131582469,-0.96233776421415,0.9407462915448027,-0.3942926547833875,-0.30713119184726007,-0.9643305760634258,1.1421800559485153,-0.2933900784803997,-0.414616251189907,-0.5705138576247949,-0.5795082291960018,undefined,1498239123869
903d185fccf839df,0.9604267873628224,-0.44367352405548655,1.226490726032815,1.1940177439800488,0.6411165881471624,-1.8540358944947708,1.9199233074127267,-0.1603922892990536,-0.6158526236134074,0.814184686150281,-0.05887006686680762,-0.018012973002937426,-0.852230949197861,-0.2521656751632691,-0.9254956002527546,1.0316736180793171,-0.46599805821183704,-0.2734082677119176,-0.9429273315610851,1.2234376543994434,-0.251562014807389,-0.419735639448043,-0.6433961013782115,-0.594572330504492,undefined,1498239125381
903d185fccf839df,0.7303483728265491,-0.42195393989700286,1.05550382854346,0.9790738053201524,0.7205118882063047,-1.8639677697618053,1.8940013137211333,-0.2871127595312312,-0.4857565076282109,0.6198037847961293,-0.13281015115247052,-0.03477674612687447,-0.8609347147950089,-0.15124975613422156,-0.9423377186766726,1.0256117963103495,-0.5033178135764933,-0.19809690068648256,-0.9380925346030097,1.3904953931925976,-0.18102428584856728,-0.4295067829293081,-0.7478184630014442,-0.6035408878014156,undefined,1498239126933
903d185fccf839df,1.1697151404474984,-0.44308650905736513,0.5852892251053593,0.5294204224808366,0.825662570352913,-1.8347544518262136,1.8524214508278383,-0.48630692542561466,-0.5898042433597237,0.6228935602034634,-0.094706615116364,0.07179165975363233,-0.9610280191622104,-0.0929222260892402,-0.911811372131227,1.262022958358973,-0.515410588870937,-0.2282860430139,-0.945229281256792,1.6470180946976014,-0.1373198259979203,-0.41787184829121293,-0.8266922826687432,-0.6686483240575273,undefined,1498239128381
903d185fccf839df,0.8758799071608421,-0.5522713863919202,0.222898830020821,0.24505826943792058,0.5494504583008936,-1.8812530540790762,1.869033934234875,-0.5710194274628008,-0.4952115800789462,-0.08889961660483345,-0.09821265145283843,0.012439712285535948,-0.9218610739750446,-0.19939312084475833,-0.8991797741104962,1.2115077957940572,-0.529816753193732,-0.31201389108479266,-0.9240079533906993,1.6354846557062177,-0.1643907605591214,-0.47359694682846454,-0.80963146799585,-0.7556460195251393,undefined,1498239129886
903d185fccf839df,0.8855820002483523,-0.6233002303926004,0.07679448124951078,0.10004400578566104,0.5652595717582665,-1.9116193457763382,1.8435405974603336,-0.7579200399596647,-0.40486043884176043,-0.9787350530286225,0.03462424891272765,-0.022782442452470755,-0.8261196524064172,-0.24383314681969043,-0.9128639875075563,1.1266422910285103,-0.5703101534338852,-0.34523017992526356,-0.9224056838039303,1.4410330917800385,-0.2182370323584484,-0.4732204248250276,-0.7749280301024524,-0.8009757950908989,undefined,1498239131356
903d185fccf839df,1.054675760652313,-0.5763390451568856,0.10741849192892931,0.13160037411599718,0.5138413689561012,-1.8631432200930096,1.8667459984126116,-0.5326988678662599,-0.5608900711722863,-0.2835211527204667,0.03059920875814794,-0.04944542014481909,-0.7390819964349377,-0.2243906670231706,-0.9160219146211156,1.0741064835209766,-0.5282657029082342,-0.30614325268895354,-0.9004217046961701,1.2829372554120344,-0.22445397140563342,-0.43907688575254655,-0.93499203945639,-0.7118510947753189,undefined,1498239132878
903d185fccf839df,0.666591830119444,-0.4788944531707621,0.432166376201823,0.20127458802409554,0.22092528521768787,-1.822300009894586,1.8671720244786782,-0.5670622922564179,-0.5351382010502802,-0.22388238521536458,-0.04263966890932767,-0.10830814393967765,-0.8130640040106952,-0.2734597919506549,-0.9202324571110042,0.8296128264960461,-0.49526650749535506,-0.32942948640801384,-0.8842380812546401,1.1634761166090297,-0.26695606049216497,-0.439852263778127,-0.8181279133610299,-0.7287181788338284,undefined,1498239134604
903d185fccf839df,0.4836378677225063,-0.4407384198368872,0.7530859414686026,0.48071484036417894,0.06690726132858821,-1.8126918979256665,1.8787273871830699,-0.5356529086971701,-0.46285690145521996,-0.026695332150424002,-0.06392412405795876,0.05434072477993571,-0.7956564728163993,-0.3160482068362701,-0.9465482611665612,0.7892008321147768,-0.4948692608428651,-0.3599352757033709,-0.9119874331854246,1.1262426737832707,-0.2904231866193989,-0.45754922621219846,-0.8317492188974347,-0.7109821092275825,undefined,1498239135845
903d185fccf839df,0.3505803840613356,-0.46774110975047106,1.0976122879673218,0.9951711201511645,-0.02198173508253565,-1.8221206575855202,1.9014331254772547,-0.4788809025604147,-0.41761061968064545,0.1759971390486767,-0.0479860769648711,0.04180847656534317,-0.517135973707665,-0.4141865473466605,-0.9854956853295502,0.7892008321147768,-0.5099822232517435,-0.4126190348199946,-0.9299132625597157,1.1517732945292642,-0.31468431481157694,-0.46500564183591503,-0.6923040492998999,-0.697983158947088,undefined,1498239137411
903d185fccf839df,0.4032489584043537,-0.4824165139314981,1.03444909055763,0.8599495148276712,-0.08663763134356715,-1.8579396974686395,1.8935700084071052,-0.6303838784894936,-0.3100021782195655,-0.07871425629568975,-0.017853013284301878,0.08340796328681827,-0.0601882798573975,-0.40770573369859514,-1.0012851662904376,0.8154685380154929,-0.4942432121109135,-0.4046901894798532,-0.9349579629204151,0.8704436977468508,-0.36902169392091333,-0.4788657954738233,-0.660223769470479,-0.6072686376491306,undefined,1498239138952
903d185fccf839df,0.42542517117580575,-0.5311388172315579,1.03444909055763,0.9550759993299113,-0.16274149983618164,-1.8799696417039242,1.8677321647600218,-0.8831944577425355,-0.3068106973349589,-0.1517253096666632,0.0068908386076398905,0.08812426138952906,-0.38657948975044565,-0.38826321504975164,-1.0244430653191365,0.8235510047270784,-0.46449331919022013,-0.3845894264360577,-0.9605802845954895,0.8980223144431245,-0.3671622068288437,-0.45648065778084024,-0.6601177009171075,-0.5472601633552767,undefined,1498239140371
903d185fccf839df,0.31454390028608714,-0.6080378550554405,1.1295130826806434,0.9949874071988304,-0.3366417767788177,-1.9186350129921872,1.8515246718720275,-1.1176237083489486,-0.20626258568702566,-0.12062138780610145,0.02708601748180081,0.1361584887133805,-0.5824142156862745,-0.4002990691781604,-1.0170746619757927,0.6517993785180886,-0.48609939355865106,-0.36073322797981555,-0.964085687358538,0.6104717458215717,-0.4224685737007983,-0.45688374800732895,-0.5328339238159543,-0.48192025492699087,undefined,1498239141910
903d185fccf839df,0.1357481158054356,-0.6579341883517431,0.4194061599712741,0.4526518045194397,-0.5250551789904905,-1.9557397943877453,1.888355108138695,-0.9787585985180128,-0.11991282706805363,-0.4450376232676448,-0.01287004967844619,0.08360947584068265,-0.5998217468805704,-0.45121992175193243,-0.9928641181218294,1.2882908055832967,-0.24107695460155898,-0.45289022288386016,-0.9551577566493125,1.1090887995115304,-0.353425086569086,-0.4834802289298425,-0.6336260670971363,-0.4418221443168579,undefined,1498239143345
903d185fccf839df,-0.20936954050438406,-0.7747502752758724,0.14059505412835646,0.05365449322617784,-0.8018535678576411,-1.9963244585813193,1.9478807624381715,-0.7176301995677106,-0.1110115032822143,-0.7396421131232381,-0.019429212741648706,0.047579409363429866,-0.4649133801247772,-0.547506651173006,-1.014969401774199,1.5570316648899332,-0.1427437844007901,-0.5428496885852729,-0.9876369525308679,1.3332439725251988,-0.3555749322553639,-0.47308954760655353,-0.6047531417036048,-0.3320011956636228,undefined,1498239144848
903d185fccf839df,-0.19550933851140706,-0.6778927275158626,0.25735115970635364,0.15314373503324558,-0.7424536717796101,-1.9959494510912545,2.0482367893101294,-0.047441863847151405,-0.09600227302986093,-0.6740178717071776,0.019975800647694737,0.027595668796117977,-0.4823209113190731,-0.572504190876031,-0.9897062130949713,1.417609820733121,-0.19386482584302558,-0.602639010480247,-0.9889033761804034,1.0921043187076127,-0.4330747185569049,-0.4430075119139022,-0.648614068242625,-0.32879522559996943,undefined,1498239146371
903d185fccf839df,-0.1802631922310338,-0.5387699975931398,0.36772741130602576,0.20937671613946254,-0.7197428472772541,-1.8741721655738164,1.967509637488782,-0.41076868859050414,-0.09034737713811859,-0.7018760583237832,0.007977910286039416,-0.07829226038592782,-0.40398702094474154,-0.6049083497717798,-1.0202325743648846,0.8417365830928675,-0.432670089729374,-0.6737832984232685,-0.9863355474389343,1.039149062421542,-0.48100743039158717,-0.44006703567518485,-0.6043434505048962,-0.3365389182562478,undefined,1498239147906
903d185fccf839df,-0.12066462040775644,-0.16777618265851105,0.2528854652310856,0.31328439403676644,-0.5459351371728092,-1.6681835663841798,1.891781742575587,-0.5665495763131405,-0.17266109605897043,-0.6590547308359013,0.056679097821633134,-0.06976761569802085,-0.9740836675579323,-0.6160183336016574,-1.0286536298957267,0.8397159946796926,-0.4280088443171616,-0.6825670917467445,-0.9976144065293185,1.014434556807137,-0.491764018580728,-0.4459821395619683,-0.602204019604139,-0.31140934556198224,undefined,1498239149358
903d185fccf839df,0.07337751738572676,-0.2816572384340219,-0.038047973099328176,0.05862002957172322,-0.4742232601013044,-1.4955915989470718,1.794789243237567,-0.8977020726280762,-0.2214142716227075,-0.5781307252161971,0.12119156701983583,-0.00012169644587216289,-1.0001949643493762,-0.6586067096349489,-1.033916809848646,0.5224804198977074,-0.671787821826575,-0.700812302176794,-0.9993636092056684,0.7239890813840438,-0.5644817497760544,-0.47844020325989817,-0.6391091399585126,-0.3362063173363691,undefined,1498239150891
903d185fccf839df,-0.19550933851140706,-0.568707806339319,0.049359635148406515,0.08950079238050392,-0.29580756292498034,-1.390400827026679,1.7503297460753409,-0.9642465636946429,-0.1972749320638347,-0.7577260189189092,0.14639373625027158,-0.01764141793597899,-0.9436204879679144,-0.570652482655905,-1.0749694721265273,0.1325031252117185,-0.8143557097557149,-0.6719404124775474,-1.0240203706127378,0.16544127265913836,-0.6924018315856423,-0.4811536343207503,-0.6723695716367064,-0.45153753243251876,undefined,1498239152394
903d185fccf839df,-0.16363103265244475,-0.22060756171742826,0.06786182161422771,0.06038503288861861,-0.34180519657609887,-1.4976762678644853,1.752646600308008,-1.126527042863335,-0.2397531081288308,-0.7544479571696989,0.032180119385418045,0.04646308663293295,-0.8087121212121212,-0.5725041779252564,-1.0833905276573694,0.053699527009304006,-0.8474247511373907,-0.6522702897145479,-1.0298557106759063,0.16114510648732297,-0.6898184955086154,-0.49930750233512894,-0.6742762405885194,-0.44456308360917846,undefined,1498239153965
903d185fccf839df,-0.06799604606473839,-0.26932989424548043,0.4168541167251643,0.20963416629846424,-0.32785778751892647,-1.6861839265596472,1.8013164149105751,-1.1143302289926558,-0.060734656006642976,-0.6160940600835351,-0.011503057068050973,0.01426718260430708,-0.7738970588235294,-0.5132508164340676,-1.0844431503959324,0.3870997808319664,-0.6520628144006192,-0.5870663012134802,-1.0271479445057257,0.6384507193800624,-0.5512120094462413,-0.485650144553317,-0.6827419430197409,-0.4174028796552991,undefined,1498239155410
903d185fccf839df,0.1426781132856949,-0.7418774353810748,0.4544968816737583,0.29213752351563343,-0.2812018644560956,-1.8788446201135072,1.866488268769239,-0.9549245038979515,-0.33080094348548506,-0.8867505676556949,0.06995088271992683,-0.04572099765292105,-0.7956564728163993,-0.4364065797602884,-1.0844431503959324,0.30829606957066574,-0.62870499287058,-0.5346801911583873,-1.0329552978331036,0.9107106277693832,-0.4734545290694392,-0.49105509731298674,-0.7066225797229264,-0.42682439541102646,undefined,1498239156852
903d185fccf839df,-0.06245185485023643,-0.6884589828680514,-0.041237900088490695,-0.12365117780762949,-0.3484394688273017,-1.952176058347274,1.9013857911099523,-0.8530797753203506,-0.29281935185682906,-0.8352930265497504,0.177144436632904,-0.02981837632052454,-0.7608414104278075,-0.5595424858752529,-1.0907589604496484,0.3143578913396334,-0.553460952130732,-0.5776112163585008,-1.0642590298115817,0.903242379210482,-0.5044101542731656,-0.4551645736397156,-0.6397216720368031,-0.41821905537814164,undefined,1498239158367
903d185fccf839df,-0.1289807692078704,-0.7365942273280014,-0.0029572513968439853,-0.0782290115511289,-0.16186720966837012,-1.9865463126138478,1.9954171416993642,-0.22770169286839656,-0.3263158879208727,-0.8810691267471905,0.15391331859281612,-0.03440840295881075,-0.7303782308377896,-0.5484324890946007,-1.0791799851674806,0.31839909643070463,-0.49436491947046884,-0.5997385223313682,-1.0651126408792286,0.735060558019216,-0.5463644476286982,-0.4300653279312707,-0.594320737111701,-0.4741560174543316,undefined,1498239162106
903d185fccf839df,-0.11650637348065078,-0.6937421178511439,0.01044084857675765,-0.031214596814513423,-0.0888181881928776,-1.9586816237912632,1.9124283547091943,-0.7012756212528826,-0.3306915895523581,-0.6468620291788172,0.08841408796752344,-0.0008514343270073793,-0.7826008244206774,-0.45492326048753706,-1.0781273587478009,0.3972028359567268,-0.41946427960446175,-0.5847674418170138,-1.0618241393756984,0.7120090852265122,-0.5374176297463739,-0.41505962975004473,-0.6299983818039829,-0.47894518265658004,undefined,1498239162873
903d185fccf839df,-0.3008464181866237,-0.602754720072348,0.09402039195532767,0.034086458468847704,-0.17401461534014215,-1.9512350457367833,1.9097433235396486,-0.6994964769160591,-0.26693054975691827,-0.8170795963641958,0.06851191215089852,0.02383571205859646,-0.6868594028520499,-0.3984474192365199,-1.071811567099669,0.8922517739225048,-0.3818243878577645,-0.5352691533147517,-1.0274138237900532,0.9865941645323918,-0.4540520645794482,-0.34484640464441885,-0.5579890552276676,-0.4595842218010916,undefined,1498239164360
903d185fccf839df,0.02902502283200322,-0.6825888328868376,0.26755933269079274,0.1777423709065431,-0.04132912345587486,-1.9667990220609466,1.8883130388778098,-0.8123599665027913,-0.2639788534736138,-0.8679605454923525,0.08561346033537172,0.05619877063008402,-0.843527183600713,-0.5113991082139415,-1.0707589259555217,0.8195097713712857,-0.4994758208846593,-0.5661929177897566,-1.0404558789889116,0.9509313656865311,-0.484008415906241,-0.3625408185568974,-0.4646934341164099,-0.44333750100474645,undefined,1498239165855
903d185fccf839df,0.1315902139324273,-0.6526510387546545,0.7620183469669363,0.6757129666311386,-0.1618672051071819,-1.9100144997010862,1.8996396136565918,-0.6749095879998303,-0.3156257261594597,-0.9925907954473773,0.1103485839243182,0.023279418657577537,-0.9653799019607844,-0.49010495257423214,-0.9770746077120068,1.1226010859374391,-0.2246478837688016,-0.5236102028696565,-0.9790658595800791,1.2332002758666394,-0.38276127656303943,-0.20689110809790642,-0.3927680458803011,-0.400960572459154,undefined,1498239167351
903d185fccf839df,-0.06383793715927165,-0.6661523837114464,0.6490900521211543,0.5960466142258901,-0.4384907455368696,-1.9065392760257098,2.009426115487304,-0.10200427042208918,-0.3038795538532903,-0.8418706104647442,0.1496639417399928,0.1050811720259445,-0.9044535427807487,-0.2993831890014365,-0.964443009691276,1.181198686949219,-0.18086857832746436,-0.4597424665641685,-0.9813538165715919,1.0554252239835378,-0.3789628083746694,-0.22300568147806232,-0.5038169400018117,-0.37176375205714673,undefined,1498239168844
903d185fccf839df,-0.15254292626671875,-0.5123543372916736,0.8073172416538595,0.706946864564674,-0.5507282696041131,-1.8189528941836557,1.9945545554261899,-0.11883039623373154,-0.33398348352448703,-0.7064812914204027,0.025113999177762494,0.0023145921051532952,-0.7347301136363636,-0.2253164272401181,-0.9539166645099051,1.1569512868144622,-0.17501369348471355,-0.35089816440025934,-0.9425145191076549,1.2168471291855116,-0.2874831019674319,-0.2266133931233514,-0.5880110275010431,-0.36037986495545266,undefined,1498239170409
903d185fccf839df,-0.1802631922310338,-0.44132543483500863,0.1750478920877879,0.06286467112669451,-0.6028253279106874,-1.7238617034466606,1.9181534305644201,-0.5201220068120698,-0.2489586262698011,-0.7631284135525132,-0.02157318084359437,-0.0727219172984794,-0.8087121212121212,-0.3438232149763686,-0.8318112783281227,1.4155892040552245,-0.22197555584562606,-0.3909793666619129,-0.8603369758382122,1.3302104866881184,-0.26033025852214775,-0.2886100853334685,-0.5952679327056648,-0.3023620991697683,undefined,1498239171921
903d185fccf839df,-0.12066462040775644,-0.4043434899533612,0.0563776270067337,-0.007144932486656114,-0.5705385263453093,-1.7137667799534326,1.852353054725467,-0.932470058512362,-0.23718740040848113,-0.7037869137660332,-0.022379181742291563,-0.0667516313602592,-0.5650066844919787,-0.4243707644842033,-0.8623376322358022,1.3468884065950766,-0.25098635203420644,-0.4576145993378112,-0.8786756170297589,1.3238201313567284,-0.29699696068118064,-0.3039524141183667,-0.5761451308940542,-0.2844306031220066,undefined,1498239173360
903d185fccf839df,-0.033345575587705636,-0.5516843713937988,-0.01380330812433584,-0.06339380066922798,-0.5778105110967111,-1.6880636243032308,1.86751651930472,-0.8146490724175194,-0.3807277466235479,-0.5983003618644583,0.03728751782093661,-0.11165743644857934,-0.49102467691622104,-0.500289124384064,-0.8728639479682379,0.8902310724504439,-0.22141388226950534,-0.4941683507254076,-0.8901433902829641,0.9857318634611569,-0.3810760220175669,-0.2988877631941004,-0.7064940672023232,-0.26548765996079154,undefined,1498239174850
903d185fccf839df,0.19257473004310094,-0.5745778978645483,0.07360404598644943,-0.07496234305926508,-0.4666118462693525,-1.7240224187804314,1.827448797593109,-1.055311419321726,-0.3548116922722465,-1.0147437429491417,0.06894186681601941,-0.03374116433478778,-0.6085255124777184,-0.36882074820400634,-0.9528640785825111,0.7002938678756649,-0.352223984722828,-0.4418645711417137,-0.9427803986794844,0.7877232528211676,-0.4235455649839574,-0.46511389825363464,-0.6360222694798167,-0.3486256088026293,undefined,1498239176359
903d185fccf839df,0.5224463780941863,-0.5593155663693768,0.1386808946252994,0.15996992231462218,0.0068799322137733775,-1.8663156422714011,1.8515956791843504,-0.8812890844969986,-0.5896188717301512,-0.7511370213325027,0.04376608695948369,0.08548568124035187,-0.6259330436720143,-0.3651173835668526,-0.9307587802056738,0.9164989479394892,-0.40956515575021235,-0.40260665201766443,-0.9169271827287275,1.1868201630692425,-0.3275853070190156,-0.45964462395561995,-0.7056810724119772,-0.36428939183264136,undefined,1498239177864
903d185fccf839df,0.6513455458174318,-0.5728169113261687,0.35624321669853176,0.47946564923169266,0.16232766927355435,-1.8696301507027062,1.8171425941527544,-1.0514533169505575,-0.5420500901344493,-0.18936266257326784,-0.00808126494958933,0.19438958415035026,-0.7782489416221035,-0.34197152618240445,-0.9086534891910704,1.1529101665175556,-0.393491732407811,-0.37749652868134215,-0.9148561270456694,1.5554435448384494,-0.23255949899855397,-0.47546570770620167,-0.726811996419681,-0.3514576207574878,undefined,1498239179834
903d185fccf839df,0.4988838759812406,-0.5616636263618624,0.3217906328760497,0.46687249397769426,-0.0004743444675907126,-1.8554404249942869,1.8278643086354085,-1.0121765371855782,-0.5762399602282441,-0.32773119529376776,0.04217621600856878,0.10595740129549984,-0.8565828319964349,-0.3780790626660816,-0.9370745534482209,1.213528384207232,-0.4415773901229434,-0.4144112573990065,-0.9549968310574005,1.5314989609982528,-0.25414456821891046,-0.5130652082543375,-0.794173700813237,-0.37581386589892823,undefined,1498239180919
