UUID,iqrAccX,iqrAccY,iqrAccZ,iqrAccXYZ,meanAccX,meanAccY,meanAccZ,meanAccXYZ, covarianceAccXY, covarianceAccXZ, covarianceAccYZ,pressureDerivative, pressureIQR, iqrGyroX, iqrGyroY, iqrGyroZ, iqrGyroMagnitude, meanGyroX, meanGyroY, meanGyroZ, meanGyroMagnitude, covarianceGyroXY, covarianceGyroXZ, covarianceGyroYZ, class, timestamp 
903d185fccf839df,-0.9224740250996449,-0.933537949179677,-0.7845213849972872,-0.7959741617075844,-1.6965595339572856,-1.7024873204185658,1.8596507830508109,-1.193340348150945,-0.30462475466419453,-0.6762423294373668,0.07174642290612657,-0.4252580978598172,-0.6455165162655971,-0.6502742071929194,-0.9118114015801622,-0.4393288508080207,-1.0274561037291723,-0.7215530609244951,-0.9467821609149184,-0.25352325180760127,-0.7824840922934272,-0.3939650526501387,-0.6379533258547945,-0.5069252291222648,undefined,1495442714893
903d185fccf839df,-0.8760425062854216,-0.726615074657911,-0.3889541735763724,-0.49955942417223415,-1.425429825529226,-1.7455502483460559,1.8505723315746259,-1.1828000474907947,-0.30853471870184007,-0.765659119991487,-0.0903561698016308,-0.9779173589241982,1.264960032308378,-0.6049083173948434,-0.9286534979173788,-0.34638090759560997,-0.960908663570665,-0.5329178211572886,-0.8688221067733365,0.014448515889832297,-0.6300147483511265,-0.3792609930709976,-0.6715847991471356,-0.5061887493431148,undefined,1495442716314
903d185fccf839df,-0.3216367211760892,-0.6379756345736275,0.2579895517233052,0.29392896014262465,-1.0779875737800435,-1.7455376412870445,1.8373531569281134,-1.1538535751394263,-0.3531477340352198,-0.5729215646721746,-0.1487015983543635,-0.5676035739119275,2.5117744540998217,-0.47066242745000136,-0.8865481613652979,-0.03924847273254981,-0.7559181490001305,-0.5054041736356699,-0.9078890130681421,0.1941687922075386,-0.5863565279077956,-0.40905917027260424,-0.5583003615023777,-0.6044350767839165,undefined,1495442717837
903d185fccf839df,-0.11234847160764246,-0.5916014204940455,0.8079553795338618,0.7742561323590859,-0.6829509134298136,-1.8016443154899504,1.893130847989025,-0.7626170599632892,-0.47064943686383215,-0.4056461803681343,-0.06795813737385055,-0.39303374993693646,1.0016711229946524,-0.43085156518149414,-0.9139166617817558,-0.1079491571338116,-0.7935564332080076,-0.4663637042129557,-0.9375680585197543,0.11444349849513932,-0.5873290471068912,-0.42535678391731996,-0.5321077870810139,-0.5660499001501915,undefined,1495442719306
903d185fccf839df,-0.20105346071508953,-0.5182245165008798,1.2099024449331015,1.006648647217077,-0.46312500057277,-1.824407970221564,1.8932465546275772,-0.7469207550078963,-0.5031003420591933,-0.2916573681155672,-0.0191686852852919,-0.04323739580680723,-0.9218610739750446,-0.42437073858265423,-0.939179798925347,-0.01904236248302902,-0.7422977780901269,-0.4551857276994491,-0.9306730351782093,0.04138414758342558,-0.5940869059496393,-0.40388603442586873,-0.5231657045572774,-0.5389686958852045,undefined,1495442720844
903d185fccf839df,-0.3008464181866237,-0.5810351212998682,1.1977803665825548,1.1897443864208306,-0.45321987389061175,-1.8517462527640247,1.8692469441253432,-0.9363483117571031,-0.5429984198141597,-0.5481709502012192,0.03956776681531698,0.15367405230496134,0.13129456327985742,-0.35678486817404853,-0.950758796294216,-0.004898130531918921,-0.7457952031909247,-0.42795742237468154,-0.946236823179158,0.0876483234374137,-0.5737695476459953,-0.42898978058862886,-0.539675837020461,-0.5322883643611767,undefined,1495442722379
903d185fccf839df,-0.22877365766858512,-0.6344535445848991,1.4555367344396426,1.3346904616721182,-0.15070723371302028,-1.8609653805549544,1.8234304715184408,-1.0884437635627175,-0.5620441060067299,-0.9344437618038209,0.043667715247086826,0.2114895266715528,0.2618510472370767,-0.30493817767868164,-0.9602324966503225,0.02743162325553712,-0.6652772945314424,-0.35168978054390687,-0.929003678571023,0.22945260701377396,-0.5062930971683391,-0.4501482226174358,-0.398794533489239,-0.5443622733410228,undefined,1495442723816
903d185fccf839df,-0.29807446060101167,-0.5634246567422304,1.1193049096962044,1.137051432827071,0.11792431447830835,-1.8737435867446597,1.8282877253246868,-0.99302410014851,-0.48279358573013226,-0.8259880232163339,0.03877163630045258,0.14849824984096588,-0.7695451760249554,-0.28734738667612597,-1.0044430713172958,0.10421460478005524,-0.687913631034764,-0.3429123210942684,-0.9562212729118826,0.21260670501653703,-0.5135371421705253,-0.45731287171111057,-0.35677682002520766,-0.539501681682911,undefined,1495442725342
903d185fccf839df,-0.06245206188269484,-0.47830742355864453,1.3107078990174885,1.31701600200617,0.4970756788743792,-1.8679950225156985,1.8243561607663616,-0.8585372477743741,-0.5382338946728116,-0.2582050135848061,-0.050190018305083725,-0.0252183383053561,-0.8174158868092692,-0.27068235589051776,-0.977074600349773,0.17695655080183134,-0.6827132053718165,-0.3198477409908033,-0.9289826878753593,0.23652049009457984,-0.4903771492993768,-0.5016933657115555,-0.29911588788130433,-0.5566969282429878,undefined,1495442726821
903d185fccf839df,-0.08047009673786068,-0.28694035880311825,1.304328299176113,1.3322950013082793,0.22489556119773527,-1.8385115138012174,1.8897305037303564,-0.5096409845016387,-0.6265584163546528,-0.04806237259641057,-0.10450008663102198,-0.010540939815901007,-0.7738970588235294,-0.29660570113820117,-0.9297061353804094,-0.05339281774254606,-0.6937613444698086,-0.302083832796409,-0.9214401246002939,0.3475124829193783,-0.46452820320076993,-0.5172620812327057,-0.3436496816719679,-0.582400723301612,undefined,1495442728306
903d185fccf839df,0.18287277497722962,-0.37499265236331486,1.4006680587852318,1.397226970245637,0.20393331629481096,-1.8197937478306747,1.8531893474159729,-0.7127790976675479,-0.7303255948728531,0.0321003483815708,-0.13393057409700457,-0.03495898407151571,-0.8826941287878788,-0.40955738364023564,-0.9128640095942576,-0.010960065359772689,-0.7537075486816921,-0.34277299596794564,-0.9292065846061178,0.31984147853905937,-0.4926223840303417,-0.5406216935098628,-0.3368575064417924,-0.5846844229478364,undefined,1495442729809
903d185fccf839df,0.06367535528739703,-0.32274822984653434,1.218196712551433,1.182184020072919,0.09731177430835664,-1.7895555639918508,1.8820540948497124,-0.531131305056123,-0.6720789492592784,-0.23423489100049075,-0.07970095575859998,-0.040277168596823176,-0.678155637254902,-0.4623299250079718,-0.91286399486979,-0.055413349626277836,-0.8085932368765476,-0.3808339885321113,-0.9446975237035693,0.18699908945854857,-0.5408225019184932,-0.5414678395477194,-0.2970654594353495,-0.5846293881074387,undefined,1495442731344
903d185fccf839df,-0.19135136762757926,-0.4389773456145307,1.4344825047277117,1.4293152299310596,0.07053811456573587,-1.8028112627633779,1.9228581667687534,-0.29249772793826834,-0.5979153664657383,-0.23499048880852053,-0.08723639617050363,-0.10950999920064966,-0.49537655971479505,-0.5197315912298093,-0.890758718579654,-0.19887654019776904,-0.9583158030986316,-0.4542898035030038,-0.9105111063412453,0.0672453803939991,-0.5922023590860308,-0.5130228180351454,-0.41530371104082275,-0.5330410690849449,undefined,1495442732815
903d185fccf839df,-0.12205056469515271,-0.37029653237834376,1.4561751264565943,1.5575156566632635,0.034198739184809444,-1.748975557290474,1.8576363476918023,-0.6221289900159813,-0.6677898370540598,0.08724335409036009,-0.045936712270291,-0.16106442762128115,-0.7216744652406417,-0.546580787349862,-0.8760218603573298,-0.20493836196673665,-0.9087351390932829,-0.43888175033445265,-0.913106923525165,0.09299158274181805,-0.5803319912102621,-0.5085840619495756,-0.41509017801754644,-0.4593842346955635,undefined,1495442734321
903d185fccf839df,-0.17333305672913554,-0.43780337407427267,1.7011715322200827,1.8512711159983943,-0.049423975349317854,-1.7793348610843416,1.7928142576938033,-1.100951846022011,-0.6179242916058897,-0.38386628653998345,-0.009493312075380365,-0.10815315357622526,-0.4823209113190731,-0.47066247925309956,-0.8770744683714251,-0.16048502117078844,-0.8295144137410213,-0.43959103998756394,-0.9066208807233421,0.10641902928456266,-0.5749797918434488,-0.49706834383590415,-0.4285558302522652,-0.43102507887227337,undefined,1495442735826
903d185fccf839df,-0.29253033839732917,-0.4777203354905423,1.516786026483227,1.5747870961007688,-0.07300907883257136,-1.80376858097891,1.8589354685077997,-0.6974668408023752,-0.6153068515499098,-0.5157482009979539,-0.03706637453610734,0.0028914658081973855,-0.4779690285204991,-0.3947440805009152,-0.8823376556865782,-0.12007280067174685,-0.7831714306565556,-0.41626680814135936,-0.8960696902883365,0.11214724765192831,-0.5595593404510122,-0.48871047736610157,-0.4024871392513254,-0.4191235336006666,undefined,1495442737479
903d185fccf839df,-0.3050045270920904,-0.5352479222184077,1.1467389933864605,1.3349282719887803,-0.03485943061543812,-1.833915923706767,1.8895727081898852,-0.5519115920671225,-0.5235699513183597,-0.7288626724823634,-0.021055004376861204,-0.01480784567479485,-0.6259330436720143,-0.39104074176531056,-0.8981271513719332,-0.08370192658738418,-0.7551281977034262,-0.41698876382024197,-0.9052844900722281,0.12478937034019397,-0.5620749274832488,-0.48364026112832686,-0.37653554156570784,-0.40751388415629314,undefined,1495442738824
903d185fccf839df,-0.21214149808999608,-0.5481622814050705,1.0893185286228892,1.1093601061168488,-0.3889445423684272,-1.8686937947019173,1.8581254916598013,-0.9851282628067535,-0.49131876143477066,-0.5461397201108116,-0.026004794606544403,0.013461091249399482,-0.6607481060606061,-0.487327445284835,-0.892863971419014,-0.15240258272392443,-0.7466546081758645,-0.4532258661248923,-0.9007155728389085,0.04989133228179795,-0.5942067126225404,-0.4834028077114396,-0.43760628032059884,-0.40843296267495843,undefined,1495442740307
903d185fccf839df,-0.0763121258540329,-0.4794814681688835,0.9821324581493289,0.9770263119993771,-0.46723926973764396,-1.8378500096246009,1.9303820449534628,-0.5053482832107624,-0.4294320224660205,-0.4866577098833144,-0.07157996903173006,0.050055234021335875,-0.8000083556149733,-0.46140406118482796,-0.8865481834519993,-0.023083652368264866,-0.7085040839198661,-0.4545937812006858,-0.9237980509912733,0.08235125308821356,-0.5927263876340731,-0.49028093995923816,-0.3981756939082277,-0.43575812791570384,undefined,1495442741855
903d185fccf839df,0.08307954146241756,-0.48006845393901254,1.1409972772881376,1.1393093092781188,-0.3800268432421287,-1.880107067664484,1.9608799087183009,-0.308833368677743,-0.4766041864419046,-0.7811109305710727,-0.006385691443641443,-0.024156751977321516,-0.8043602384135473,-0.4289998893383046,-0.943390363501937,-0.08168128164476626,-0.6807396466002649,-0.4426878482498887,-0.9591249491014994,0.18087050320333414,-0.5843658877503467,-0.4446262305707021,-0.29965788429463247,-0.48980751439876835,undefined,1495442743320
903d185fccf839df,0.41572314709911495,-0.5998196304677449,1.2194724800375385,1.1712435709631774,-0.09343646696135789,-1.8881382853484094,1.942713207536042,-0.3492438395840504,-0.5462923294780703,-0.5475038325738487,0.04363410026409768,0.06295583265756025,-0.7173225824420678,-0.4762174549795702,-0.9160218851721804,0.029452042080382757,-0.7491633470295542,-0.46283927426175336,-0.95412922616002,0.1526297540798348,-0.596832257521745,-0.42167121217035697,-0.28601438934673046,-0.5065717443464128,undefined,1495442744815
903d185fccf839df,0.1509942620858089,-0.5287907572390724,1.273703526085846,1.1069375743106558,0.3034474335835883,-1.8746869290822779,1.902474543885446,-0.48899388262222865,-0.46058195119692075,-0.4630906100535167,0.02450292964910779,0.07435387411689025,-0.6041736296791445,-0.45955243714473654,-0.869706072390315,0.09007042935838822,-0.8446758617606429,-0.4895642983133239,-0.9230284018254241,0.1658108253877402,-0.5910868721237899,-0.4318955429051084,-0.29078506326748715,-0.526366221830788,undefined,1495442746315
903d185fccf839df,-0.045819764282466875,-0.5569674771488989,0.9527839608190665,0.8653464518855011,0.5094185217782237,-1.8338437193405048,1.8335394360326964,-0.8297406632344727,-0.3793977958667451,-0.42126302644773816,-0.012588823559050931,-0.09659754668138346,-0.3909313725490196,-0.46881079045913543,-0.8560218516310213,0.25373961712051407,-0.6939315050624957,-0.4485774882284829,-0.8597982223243842,0.8679799406731895,-0.4173866953375944,-0.3686369327687532,0.17550560976596877,0.1768601770217161,undefined,1495442747803
903d185fccf839df,-0.016713346998297136,-0.40493050495148264,0.038513324283965235,0.011191720661916964,0.44659348004215677,-1.7100819251607031,1.8291082020073866,-0.7467889666036297,-0.39538309550284517,-0.6384238359920217,-0.032505103719252144,-0.049074110221130104,-0.09065145944741532,-0.4586265862723672,-0.8623376469602697,0.3628524654913744,-0.6406143243787451,-0.48461193798538316,-0.8724764435962209,0.8967750335500465,-0.43306872087411874,-0.34342742753145966,0.1936534378836148,0.2109291325731137,undefined,1495442749307
903d185fccf839df,-0.33688283295105276,-0.7090045078023,-0.12354167598095525,-0.13748054603815169,0.11609346924376297,-1.6157174571738424,1.835311920948389,-0.7263138086696912,-0.3375646418549374,-0.9161694972676816,-0.0027412749211196993,-0.12720720317194442,-0.8348234180035651,-0.4993632735116946,-0.8160217531938326,0.5164186546581829,-0.6245866724758953,-0.5137688105819724,-0.7961342403899468,0.9673307145024637,-0.412719268751471,-0.29724821963436726,0.1813973607815587,0.5000543936668385,undefined,1495442750812
903d185fccf839df,-0.32163661765986,-0.7289630761944118,-0.13630189221150416,-0.24167262626307742,-0.24109793517401062,-1.5996247417835936,1.800603739219449,-1.0111426786409434,-0.18106660788422155,-1.0054337108897982,-0.02526432471144265,0.1830369391964154,-0.5737104500891266,-0.5363966608677411,-0.7854954360973222,0.7386855282262532,-0.6017849814839272,-0.5552432606021422,-0.7926218415561861,1.1344654413764574,-0.3963375551714302,-0.3341745633005302,0.11725185396410735,0.5133678188417027,undefined,1495442752350
903d185fccf839df,-0.32995276645997396,-0.3738186515950644,0.11571250541031138,0.012555960033497312,-0.42966561702574585,-1.7198740440804439,1.8515904295288803,-0.9274336087175824,-0.2193697349105205,-0.7478493977520116,-0.058541892053063954,0.17763806869302995,0.46203765597147956,-0.55213584078098,-0.7981270267558191,0.7851595139648193,-0.6137590499736426,-0.5965593859784105,-0.79777149440424,1.1384536382624026,-0.4164240662095503,-0.3298598983945011,0.08137914608670321,0.5430002802221916,undefined,1495442753822
903d185fccf839df,-0.17887710992199857,-0.2605246400456673,0.15845935685112492,0.07586202066820924,-0.7673759094161815,-1.6799275897500232,1.837505193797418,-0.9782921989821998,-0.41035552145621307,-0.7487746781237201,-0.09359232782189184,0.2170669059430074,-0.3909313725490196,-0.6326833773380401,-0.8423376161472599,0.9811584837791227,-0.5446961249438617,-0.6033862989858058,-0.8350644958080428,0.982128621787953,-0.4633554959837159,-0.3157813720521233,0.1350466969507269,0.6379694923917744,undefined,1495442755316
903d185fccf839df,-0.3424269551547352,-0.391429101538706,-0.24667814381117628,-0.3239005729357111,-0.9088865273389287,-1.6146646373366313,1.8444399871023354,-0.9092911023769109,-0.4971968109958097,-0.549699603203366,-0.012313704244690568,0.05538368676337211,-0.865286597593583,-0.711379244527298,-0.8170744127435646,0.8942722492767935,-0.6168268429973613,-0.7236235673790096,-0.8886810574948494,0.5816612487373994,-0.6053864131917597,-0.395160192328856,-0.5200067531111664,0.09297725603413096,undefined,1495442756809
903d185fccf839df,-0.6598242764894203,-0.5857312997408239,-0.31685907894224585,-0.39163379337416326,-1.2366814052076098,-1.5418968749568909,1.8648551613420754,-0.76514413715317,-0.31905581645428355,-0.7296135237432156,0.020402568164710658,-0.03716541715324151,-0.9088054255793226,-0.6706425767141323,-0.8086533572127225,0.8861898108299295,-0.5970473396421481,-0.6871204795352958,-0.8860572534527977,0.5957354293426971,-0.5842794737595705,-0.3978038219548797,-0.5166650396072879,0.04667572002871993,undefined,1495442758314
903d185fccf839df,-0.6944746434502239,-0.561076611363741,-0.11843758948873569,-0.164250939287644,-1.2356219793788992,-1.6901250004198356,1.8963838975894456,-0.8068119388535933,-0.4009331887538988,-0.6787329796298794,0.005477209936080338,-0.1485456683391861,-0.7608414104278075,-0.8067401166006148,-0.9276008346865299,0.3588111756061385,-0.7605744490483995,-0.7444779487493617,-0.9708655973610718,0.252365492868562,-0.7015292362273627,-0.4714759121438285,-0.6219057097112978,-0.36038154767451475,undefined,1495442759844
903d185fccf839df,-0.5919095213606193,-0.5628376563581052,0.05956806226979506,0.02522408841752324,-1.2538482328526284,-1.7610037514329424,1.876715580200728,-1.0418102835617171,-0.4395488191646497,-0.6116538119584229,0.04352114183537568,-0.28496534214193403,0.4837970699643494,-0.836366826485452,-0.9591798518250582,0.2517190428397,-0.8237227577448801,-0.7659022967116788,-0.9945567993687584,0.12289536549475742,-0.7447238838625826,-0.47573042898421447,-0.5821519520681998,-0.35709680341892636,undefined,1495442761303
903d185fccf839df,-0.6126997898446751,-0.5786870905353749,0.599325462958963,0.5796778692667531,-1.2206151470396798,-1.8268979290212215,1.8777149086594789,-1.091327894264558,-0.41215688967190117,-0.5427185328129251,-0.04514900485520297,-0.24336619227847875,0.9842635918003566,-0.8002593029525494,-0.9844430331420521,0.2355542366077758,-0.758384572958874,-0.7591197134739888,-0.9952354899075719,0.28459443937611206,-0.713349175320237,-0.4670167300809867,-0.5713853969837193,-0.3322188924828388,undefined,1495442762810
903d185fccf839df,-0.7055627153305402,-0.5188115022710088,0.3313609221174361,0.23814586950560077,-1.2811361873417495,-1.7741243546147876,1.8768733694560686,-1.0327347643444573,-0.435700178997118,-0.5322962306083637,-0.07543435397218322,-0.3004534298855092,-0.517135973707665,-0.7734101327340458,-0.9939167334981586,0.25576023379841045,-0.6564025710353026,-0.7270053555654874,-0.983207972212427,0.5411787315261832,-0.638003345218789,-0.4477885561248544,-0.6065679501257182,-0.38763754129605016,undefined,1495442764335
903d185fccf839df,-0.8926747003694203,-0.4248890148876098,0.15463154611890967,0.16447255332671107,-1.3822343078999946,-1.7255340947261224,1.9247253246091374,-0.6623779364315603,-0.40316083292912785,-0.6841781228209367,-0.02335190485014919,-0.14943384664161122,-0.3996351381461676,-0.7261925800435547,-1.0697062995358417,0.17493594825629571,-0.7671966414084569,-0.7197351358916415,-1.0124406481163548,0.23692084896268092,-0.7050778066403588,-0.4486928999014128,-0.5728699354978324,-0.4700237936822748,undefined,1495442765656
903d185fccf839df,-0.8164439172094393,-0.45776191323839216,0.19993044080583297,0.2017497271813484,-1.334539529820378,-1.702148532594659,1.9567405750210427,-0.43370932191324696,-0.34539745251513576,-0.7030383316349995,-0.01682880808449038,-0.12152912073370965,-0.39528325534759357,-0.6928625702754365,-1.0454957409574108,0.19312138529847706,-0.8310884732901012,-0.7231612586813339,-0.995214499780795,0.1726631347017848,-0.7111915519360918,-0.4603075756204682,-0.5650322629281337,-0.46599219267101594,undefined,1495442767157
903d185fccf839df,-0.8178299305076551,-0.34153273901441106,0.47108490863652247,0.32905495377151855,-1.2532825257071252,-1.7173281849792759,1.9492456215318685,-0.4746299836628384,-0.3080854149383904,-0.8146151213264928,0.006763384880283272,-0.08388151460743277,-0.8043602384135473,-0.7178600970276869,-1.0349694399494427,0.1567504546846713,-0.8234668082438039,-0.7345225603417317,-1.0073259790412996,0.10817444331493792,-0.7337144202147304,-0.46054368104258947,-0.5876100667042377,-0.44662852561397537,undefined,1495442768700
903d185fccf839df,-0.727738962607402,-0.3051378383588774,0.6510042116242114,0.6416586529003456,-1.0782919596730556,-1.7509717172006243,1.94994252835367,-0.4620814899919332,-0.33971770904854726,-0.7159623453653228,-0.033125430978152216,-0.02744992331287536,-0.7869527072192514,-0.7002692412712586,-1.0549694413135173,0.13048257919562598,-0.7551153006254153,-0.7360931299307916,-1.0012877305573822,0.0810269832123208,-0.7385186691226674,-0.45936542100516975,-0.5665657336949207,-0.4500762751720217,undefined,1495442770144
903d185fccf839df,-0.4214297131530331,-0.2810701649799158,0.5840134576192538,0.5545617480162375,-0.7812718899761582,-1.6901133554310617,1.8594298731302479,-0.8845524278003543,-0.2642161152845715,-0.6953568972659921,-0.0700926029550839,-0.03510042483476261,-0.8174158868092692,-0.7308217696515287,-1.0644431490318578,-0.20493836196673665,-0.8350146229512203,-0.772127580147235,-1.0308212695492216,-0.12443447396014862,-0.8038247896205304,-0.4673144796872777,-0.5743864720833043,-0.4830412112519244,undefined,1495442771646
903d185fccf839df,-0.2883723675135014,-0.3262704075192397,0.427700681726555,0.5220504093691153,-0.34244290824408036,-1.7307166540530163,1.9083547870489626,-0.5110417490852316,-0.474032973551002,-0.6763574494179668,-0.023032139890299466,-0.027871945019417577,-0.8174158868092692,-0.6067600256149694,-1.0497062760850657,-0.0028775279863833022,-0.7762664777952342,-0.6915408730151221,-1.0242442675514762,-0.11841367740193773,-0.7666512211524257,-0.4663696858553341,-0.42690469765268235,-0.5196104892169938,undefined,1495442773151
903d185fccf839df,-0.39648154279596903,-0.4665670797542283,0.6892848603158581,0.6205296278149729,-0.21492083685327545,-1.774366597062728,1.8226678112298742,-1.1198128425091856,-0.4036858370061673,-0.28697423883666434,0.06899866602061118,0.0003959185418460614,-0.8174158868092692,-0.62898005155321,-1.0212851971034476,-0.1524025120621206,-0.8160778958206716,-0.6837450196472327,-1.017268447015673,-0.14351314191775683,-0.7648512285645114,-0.4772878691844774,-0.45130538309711593,-0.516904744160319,undefined,1495442774653
903d185fccf839df,-0.041661724387819614,-0.6450198145510841,0.4915015087423501,0.33263995453844564,-0.4317536122222157,-1.9051696835948402,1.8898146506323017,-0.9336703254307152,-0.3068586784490187,-0.4472303324040759,0.07826680257265053,0.07483331244785803,-0.8826941287878788,-0.6576808846641288,-1.02128518237898,0.6093666261353152,-0.5394437618230933,-0.6953659714613468,-1.0025751449086981,0.5702048076947287,-0.6042065699314618,-0.4736921070215984,-0.5058018920335183,-0.3224574291409395,undefined,1495442776189
903d185fccf839df,-0.1899653543293635,-0.6808277586644811,-0.05080818932987708,-0.12690899071861564,-0.5281717435147094,-1.9276747914146453,1.8680293409315882,-1.1722345647779318,-0.24236173373650802,-0.4479659955927214,0.06386022636732884,0.048150023709481564,-0.8913978943850268,-0.681752541117848,-1.0149693796874977,1.11653923590375,-0.4606870126910929,-0.6951569842756996,-1.0014766460598397,0.9161924820487021,-0.5264646918684326,-0.4695504570849473,-0.5480366518867801,-0.3634134421730067,undefined,1495442777876
903d185fccf839df,-0.2897583808117172,-0.4970919181125251,-0.08972672176457652,-0.08443767120712302,-0.7387199597716085,-1.8025969737991077,1.8874110155041381,-0.8917091000285196,-0.36198928132511715,-0.596271299231855,0.09516420436407837,-0.023534937355013958,-0.9218610739750446,-0.6752717080436208,-0.9686535374566971,1.365073956696144,-0.37189088244841517,-0.6922248308547673,-0.967766011561862,1.0763363138823432,-0.48334101234786686,-0.4700647072907268,-0.5174108240110317,-0.35711158632946505,undefined,1495442779142
903d185fccf839df,-0.3147065511687812,-0.5422921314238566,0.030857194545635895,-0.014035113141999908,-0.6268527198134933,-1.6955870648504068,1.9168359100281125,-0.5196845956630356,-0.40666796160948876,-0.5435863366767477,0.030267575262169766,-0.004797464732100272,-0.8957497771836007,-0.6567550726440831,-0.9591798371005906,1.092291920563158,-0.5082754228230874,-0.6880957507299977,-0.9792687697197221,1.0911650169009663,-0.4874294037770563,-0.45442319454351043,-0.6123885595604416,-0.3708125333905134,undefined,1495442780643
903d185fccf839df,-0.1844212666310908,-0.7236798827553347,0.4672570979043072,0.43725315345613824,-0.744953086293388,-1.596366133458998,1.872308030119418,-0.6943284177151062,-0.35159866807593987,-0.43070868166374965,0.11278014525490328,0.0033280416534189295,-0.9131573083778967,-0.5188058051113127,-0.9518114337572466,1.2438374647873485,-0.3985824976104554,-0.6508263760701396,-0.9402755423736788,1.2830142510721547,-0.42457847111054026,-0.4426968529765607,-0.5023011745394262,-0.37090802292381053,undefined,1495442782145
903d185fccf839df,-0.14699876955762653,-0.6426717545585986,0.8538921579638378,0.7803885814677071,-0.7530479314250696,-1.6066450662211829,1.8644948719824257,-0.7376655396002989,-0.2724148822064561,-0.45874475055391667,0.03529409314111367,0.01973878602125888,-0.8217677696078431,-0.4891791081772501,-0.9697061896441953,1.3165794108091247,-0.3674421474135488,-0.6004668076540753,-0.9353497873085178,1.4614206398243579,-0.36618876562674785,-0.43738915773156445,-0.48623422961716645,-0.39538175880362547,undefined,1495442783739
903d185fccf839df,-0.0014673042341530646,-0.5510973563956775,0.8864308364202121,0.8691618808603022,-0.7617084841543722,-1.7065484670260904,1.883584640989315,-0.7565540168528911,-0.3863361855497081,-0.44897311832428316,0.0029983214329415576,0.030320129356037506,-0.9088054255793226,-0.4864016332647893,-0.9833904030412552,0.5406659417340534,-0.5885817078219177,-0.5810373369335268,-0.9448024782034368,0.8371522533743668,-0.5060290409697926,-0.43927087135853704,-0.3806916334682962,-0.4886732678397901,undefined,1495442785158
903d185fccf839df,-0.4158856599601701,-0.39964731151240546,0.7766924685635928,0.5666038800440787,-0.962444147965231,-1.6758560824431188,1.8525240024258218,-0.9097035468438497,-0.4330818499093994,-0.5217766461930641,-0.10073862390086691,-0.0031131228249323133,-0.8696384803921569,-0.48640164621556387,-0.9076008664525073,1.3185999992222994,-0.3571995179600303,-0.549733595860025,-0.9108259640663421,1.2197112373191346,-0.4015852489994176,-0.4696534211501746,-0.5010677924629438,-0.22477837763439126,undefined,1495442786662
903d185fccf839df,-0.5392409470176013,-0.39847333997214734,0.35688084630463507,0.2995009831316987,-1.1233638796324623,-1.6400836262407843,1.9195156781862854,-0.45676965083863613,-0.43013884467221486,-0.6604976644253704,-0.12455024567510586,0.002654110534657637,-0.8217677696078431,-0.5308416203873978,-0.9760219923356775,1.3852800386809434,-0.3709137403905251,-0.6151782357945103,-0.9383444198068043,0.9586305936868995,-0.48564837959871865,-0.46850660724463716,-0.4432946164311571,-0.20212025153631147,undefined,1495442788176
903d185fccf839df,-0.7582312551681485,-0.4706761262850933,0.0436174107761848,0.1105206450346298,-1.388148580600307,-1.5283243999525444,1.8482531832692297,-0.8231774109428623,-0.3433754929879547,-0.5937329562963306,-0.1052290609127254,-0.03240905574513201,-0.843527183600713,-0.560468330272235,-0.9791798752758342,1.649979664631787,-0.24935624396428963,-0.6205549039966262,-0.9538213651356927,0.8068789153619115,-0.5230920157932876,-0.46020624952693323,-0.4068763944021049,-0.13926812004040695,undefined,1495442789655
903d185fccf839df,-0.8108998295111666,-0.5141154115140301,-0.2135010733378503,-0.15166003763554725,-1.4103656879478537,-1.5346645877240892,1.8826878654379506,-0.6540079978898694,-0.3545599914502004,-0.6112314777455109,-0.033384080675958806,-0.11569294064336827,-0.7869527072192514,-0.7160084211844974,-1.0033904228109145,0.9205402236923642,-0.5026396309628137,-0.7280882888014415,-0.984761263407363,0.5735154687134851,-0.6201513552077184,-0.496717593616834,-0.675899972930794,-0.07110437878784596,undefined,1495442791140
903d185fccf839df,-0.8330760422826187,-0.7365942711699899,-0.3640721331322262,-0.42549301058058425,-1.4552524709440222,-1.5700690243139308,1.865454756531787,-0.8800462016429295,-0.3378563952222165,-0.7165654451096671,0.020988533990307673,0.011847551841292363,-0.7390819964349377,-0.7613742915564116,-0.8791797506597202,2.415789908993769,-0.09188945919152416,-0.8319612305274079,-0.9456281005717165,1.2397138114381032,-0.4877493225626039,-0.5258982630392985,-0.8586867488408387,0.13950001206280074,undefined,1495442792655
903d185fccf839df,-0.7097208069833021,-0.7589008410986026,-0.3232389329205709,-0.3811408546607808,-1.4128548286556906,-1.6527849653780826,1.9098301083633509,-0.7270591413098697,-0.3039145740554291,-0.7357837318603382,0.035064428134136266,-0.012113735489332303,-0.7347301136363636,-0.7632259609242139,-1.002337818477936,0.940746333941885,-0.5576005099160817,-0.8236144104837719,-1.0128604567444872,0.6047743091461508,-0.6457265994412487,-0.5224694782763324,-0.8889901708653859,-0.07821652623321605,undefined,1495442794157
903d185fccf839df,-0.914850947646282,-0.650889964532298,-0.1962751626320334,-0.23666902559989147,-1.5338660525668182,-1.6854502176588775,1.9211119736025666,-0.7047401938804267,-0.3349954611836184,-0.6297389162288067,-0.026696650801762627,0.06397055137513287,-0.8565828319964349,-0.7160084406106592,-1.0054957014180925,1.0296529448719776,-0.5577923482697997,-0.8022217268633485,-1.0212776203392369,0.7914650617234665,-0.6039812599464056,-0.521001134912278,-0.889084281002535,-0.06625528110872167,undefined,1495442795671
903d185fccf839df,-0.9162369609444978,-0.47361125973168494,-0.17011633815398403,-0.19625667404409056,-1.512584943299681,-1.680141883396321,1.9113106777619264,-0.7408690571594689,-0.35896936637170296,-0.5518953987904225,-0.04148570288541532,0.03222999913534726,-0.8957497771836007,-0.7548934390560225,-1.020232563321534,0.888210484037269,-0.5875743087784004,-0.8285794390244672,-1.0161839422534644,1.0831270186582176,-0.557525965982581,-0.5114731260195626,-0.8416240572575214,-0.1039012618107828,undefined,1495442797156
903d185fccf839df,-0.8206019225986768,-0.5957104377969182,-0.3436552788894491,-0.42719973794025384,-1.4521976144364284,-1.65382614018167,1.8965259006913515,-0.8044684155879587,-0.3572210687766534,-0.5731555490415986,-0.03924395257581239,-0.04005865151726261,-0.8087121212121212,-0.8095176433161738,-0.8833903005118426,1.3084970571564252,-0.40633516839554024,-0.858667254408073,-0.9152689391381928,1.7173735883741728,-0.39842386970005095,-0.5271856511636138,-0.8682232300779871,0.06595489273705986,undefined,1495442798681
903d185fccf839df,-0.8081278374201448,-0.7853165744700498,-0.5018819601482555,-0.5548433786156506,-1.4246936615238155,-1.6631640590694206,1.9007283423390844,-0.8143206725804871,-0.31146838367872154,-0.6899168489404927,0.0046000496200387575,0.007994894869317754,-0.8304715352049912,-0.7919268005105199,-1.0318115349225847,0.7689946936005344,-0.6693624919930606,-0.8395924279078152,-0.9847752584360405,1.3086680557199701,-0.507722969787835,-0.49682138495550293,-0.8007744201678934,-0.12760096089718234,undefined,1495442800172
903d185fccf839df,-0.6210158696339696,-0.7859035894681711,-0.4508416034999587,-0.49852826891601626,-1.289364747367148,-1.702828673539538,1.900962399561197,-0.8447938487041703,-0.33486464297843316,-0.7423122513286388,-0.014614800984589891,-0.004754140509127306,-0.8304715352049912,-0.7641517858950341,-1.0370746927888026,0.7811182240795835,-0.6616572688324208,-0.8380978538532772,-1.0152883505346544,1.1185434491619417,-0.555018043916771,-0.49769807351192036,-0.770442456141999,-0.12690849961105277,undefined,1495442801654
903d185fccf839df,-0.6182437740267186,-0.6379756345736275,-0.4061805925560881,-0.49773824882773304,-1.1424644225798222,-1.742558506426879,1.9321282344533233,-0.6515438522854272,-0.274286119098192,-0.8468137784001293,-0.056598408578489995,0.09089577933003572,-0.6346368092691622,-0.8400701781718312,-1.0318115128358833,0.4739857892165234,-0.7062642349476795,-0.865538499859383,-1.0036246668888724,1.2691248480158408,-0.5346932208507145,-0.4913076226869058,-0.7364657725703945,-0.15695906199785242,undefined,1495442803148
903d185fccf839df,-0.5142926386388983,-0.43545528485379476,-0.11141934349345908,-0.2063115600878835,-1.096528499626027,-1.7016943316933113,1.913735365983104,-0.6542771367068936,-0.29504758062444464,-0.860295401129902,-0.0645029914260628,0.03290255829907575,-0.8696384803921569,-0.8215534909691953,-1.0065483241566555,0.54470706203096,-0.7266421249111275,-0.8602314930909487,-1.0007279875162494,1.145521526633896,-0.5513723608862596,-0.48404460444670383,-0.7816059355493384,-0.16337577352073537,undefined,1495442804658
903d185fccf839df,-0.46994017859058446,-0.5305518314614289,-0.318772730171404,-0.41209048101309276,-0.9650052904368277,-1.6168401474098615,1.8658413402597476,-0.8312061019465755,-0.2436806760022043,-0.8592421841532609,-0.020023816055043987,-0.017859681654313075,-0.8696384803921569,-0.8817326774312043,-1.0033904338542652,0.5285423547255612,-0.7468290928240608,-0.8839167025717378,-0.992478746899292,1.113277179863488,-0.5611847678176171,-0.4904804795743158,-0.7979031635759783,-0.205693502301688,undefined,1495442806148
903d185fccf839df,-0.4172716732583858,-0.5593155663693768,-0.48976013593465817,-0.6024010368721103,-1.1121113304932688,-1.6192206288802637,1.8671509918123392,-0.8790788702195775,-0.20360239747321793,-0.8008611936784173,0.036331001613978564,-0.07007877718829633,-0.8304715352049912,-0.8289601684404045,-1.0802326299927452,0.36689369884716716,-0.8930939971502939,-0.8600098402947799,-1.0575141036370999,0.9155303384612218,-0.6188691480450949,-0.45567122212690647,-0.7012329812286033,-0.46321776586673363,undefined,1495442807680
903d185fccf839df,-0.30361851379387467,-0.6526510095266621,-0.5931181415390537,-0.6426712392623949,-1.1878552046128452,-1.7077200744890342,1.8617520068727567,-1.0788422525778605,-0.19493557979021495,-0.7848651157129276,0.05662600072899758,-0.03515103573457577,-0.9697317847593583,-0.8446993289274816,-1.0991800233427242,0.5285422416666751,-0.7334965125883876,-0.8752342373215535,-1.0680722911154303,1.101066204749132,-0.5826273903719807,-0.45127219157766085,-0.6839416201514836,-0.47061825523883277,undefined,1495442809146
903d185fccf839df,-0.8455501964719702,-0.7941217702138782,-0.4476511682368974,-0.5542824896832689,-1.4525061901768404,-1.8473416604281419,1.9147610060942752,-0.9444048053623012,-0.33739782787034645,-0.7305262635410206,0.04929526493680428,0.013348563652599574,-1.0001949643493762,-0.8289601231126936,-1.0749694721265273,0.821530388049182,-0.6862301479500239,-0.8263819091186786,-1.0493418291326129,1.0252750567336901,-0.5779326424690854,-0.4544439019626714,-0.6741067886658377,-0.5040407069405053,undefined,1495442810690
903d185fccf839df,-0.6778424148608154,-0.6109729446600436,-0.266456097763103,-0.3073817380267744,-1.4273062321105083,-1.912637223070361,1.9344082787701522,-0.8780987930026392,-0.3504709646311552,-0.7176623586317968,0.004903997759979379,0.010662001970248762,-0.9349167223707665,-0.8002592964771622,-1.0581273316159079,1.0781476038178832,-0.6454606227772743,-0.8491425085955653,-1.0339768320131184,1.297812139321938,-0.5213712337907823,-0.45414389677692546,-0.6359558216465914,-0.5232919396686174,undefined,1495442812154
903d185fccf839df,-0.7665474039682625,-0.5634246567422304,0.07998389996477445,0.0006368297285631433,-1.5026592483942718,-1.90774116249446,1.9692479506722749,-0.6448869018934188,-0.35849032274963744,-0.7265058372262029,-0.033405468181837,-0.012369564348688382,-0.9001016599821747,-0.7715584568908561,-1.092864220651242,0.971055513448527,-0.596340120687206,-0.8401370620163773,-1.0470258847997205,1.09670844274926,-0.5666558083844682,-0.45203195602931046,-0.592437852732691,-0.5026212772663079,undefined,1495442813652
903d185fccf839df,-0.8469362270228907,-0.6773056979037451,-0.03294388660710862,-0.060100575131748664,-1.4635530267696275,-1.8624770562061783,1.970005322547065,-0.5969654889974763,-0.3389672791184889,-0.6428396978575504,-0.05070254158428673,-0.000275387446498929,-0.8870460115864528,-0.7826684601468955,-1.0454957409574108,1.922761785558938,-0.24880132888899664,-0.7947868521598636,-0.9979992310663651,1.5134519695536692,-0.4396304388191433,-0.46187492918045986,-0.5461901356957559,-0.23903038806129454,undefined,1495442815174
903d185fccf839df,-0.7873376379469085,-0.6990252528342364,-0.10312482173817816,-0.24461095978055267,-1.380506310887555,-1.8086064116281035,1.9161179679211675,-0.8841127536432459,-0.2979673239677875,-0.6653475368299113,-0.049111713821271316,-0.011747508768723082,-0.7782489416221035,-0.7243409236265269,-0.9654956397920729,1.3711357784651117,-0.34124699132569236,-0.7707216669941274,-0.9515474043473331,1.2231604807390086,-0.4928116600519984,-0.47128117213246284,-0.507707966822666,-0.12555695401304806,undefined,1495442816661
903d185fccf839df,-0.722194909414539,-0.6784797278999879,-0.21860515983006987,-0.2664269937791344,-1.204127175195147,-1.744002632369905,1.924351891469778,-0.7127252933834877,-0.28032964989379777,-0.6373872836638238,-0.05723915714147704,0.09198080492446743,-0.5954698640819964,-0.728044275312906,-0.9423377113144388,1.2216108509188175,-0.38179376705599816,-0.7689041117157825,-0.9472233751337908,1.5150688095564837,-0.4309340396477167,-0.4589557234077278,-0.4788511805895605,-0.14910208920620271,undefined,1495442818142
903d185fccf839df,-0.6140858031428909,-0.524094608026109,-0.002319367653791252,-0.05967790903186427,-1.1036050570959484,-1.662528175235793,1.8977461410212229,-0.7418733619735176,-0.29802429741675757,-0.6410731435470028,-0.03086269636223072,-0.00496319928898667,-0.6128773952762924,-0.7252667615481218,-0.9276008604543482,0.9730759322733726,-0.4202902637733469,-0.778422526123806,-0.9600275390870465,1.3500744663437398,-0.47532168234661815,-0.450725020750847,-0.48838536257991744,-0.08904171314587932,undefined,1495442819635
903d185fccf839df,-0.5475571303231249,-0.40493050495148264,0.07806974046171741,0.062458747553407884,-1.130872439090706,-1.6596026519995224,1.8810258369815789,-0.8332210821753487,-0.353432257191569,-0.6284966401136496,-0.03594334287615632,0.019902006885822922,-0.6259330436720143,-0.7150826026890644,-0.9128640095942576,0.6679643684707027,-0.5415478123810799,-0.7876369595287579,-0.9750496919291654,1.3946067731322391,-0.4774371628968901,-0.44139667684674877,-0.4827933166623363,-0.11505886817615725,undefined,1495442821156
903d185fccf839df,-0.5544870932979745,-0.4918088415854173,-0.1599081651695449,-0.18176784205509958,-1.2542699485077462,-1.6799159468610265,1.8874583404437442,-0.8588549006405428,-0.3435653678214994,-0.6527930638313794,-0.011276516676522538,-0.009522024999055093,-0.4300983177361854,-0.7993334650309546,-0.88549556807567,1.165033866584934,-0.39102362448108813,-0.8532335901945506,-0.9525689383316019,1.8098104566574769,-0.38369320707477095,-0.45385065959483223,-0.6884997204030653,-0.08220478572880399,undefined,1495442822642
903d185fccf839df,-0.759617302971774,-0.5710558663318046,-0.30537463019780237,-0.3637789340154552,-1.3673097592205836,-1.7270154909755946,1.8819436410091959,-0.9978139291635756,-0.3376077841494593,-0.7536453249555093,0.03373794191012395,0.009578403076227643,-0.7129706996434938,-0.7632259285472776,-0.9781272341316867,0.4517592036127139,-0.7282943147481802,-0.8499087946310397,-1.0174293743692986,1.119498150302547,-0.5540432961777852,-0.46294373046747556,-0.6891452368945442,-0.39084431363370753,undefined,1495442824169
903d185fccf839df,-0.7873376034414988,-0.542292072967872,-0.13566350019455256,-0.22105206870365998,-1.4223485237833535,-1.7611388431777897,1.8825379744969362,-1.0485388160765399,-0.2748524550258956,-0.7337414243809484,0.05281161899201861,0.04063140791048826,-0.6650999888591801,-0.8169243207873831,-1.0065483167944218,0.35072876542399606,-0.8060609462998495,-0.860022505628468,-1.0131123422541348,0.9514241159811988,-0.5929831060540669,-0.4735754515505606,-0.7383187611505561,-0.3765115065791387,undefined,1495442825640
903d185fccf839df,-0.7582312896735582,-0.6321055138204059,-0.21477684082395576,-0.23341462949563754,-1.4534010421122217,-1.8025457292225382,1.885551729266274,-1.0889012481291656,-0.3008248834014463,-0.6966253730517372,0.058992813618024706,-0.07917667202887274,-0.8913978943850268,-0.8761776563770228,-1.0707589369988724,0.6558406401386029,-0.7276941467763407,-0.9074562537665973,-1.0248879747821877,0.7642252178274119,-0.6537022093586369,-0.4778490476856976,-0.6955221977901278,-0.3590002939365829,undefined,1495442827134
903d185fccf839df,-0.8095138334656556,-0.7489215569025467,-0.4355293440233,-0.524220766238664,-1.4543267540454754,-1.8251649722769556,1.9355811585446772,-0.8009011611332123,-0.31181061582668346,-0.6709007122213372,0.014366409445229841,0.029136157011356984,-0.8609347147950089,-0.8983976855529571,-1.0581273463403753,0.59724298259738,-0.6974607494469696,-0.9422874432060465,-1.0470748621883552,0.8465145091884578,-0.6581146260726795,-0.47796880760926236,-0.6651727485682968,-0.3290104927161467,undefined,1495442828640
903d185fccf839df,-0.7901095955325206,-0.767119051072302,-0.5784437658054478,-0.6446957309870816,-1.509447805490893,-1.7999020449522969,1.9192947642201208,-0.8922769303983903,-0.356781093078496,-0.6930609219053203,0.033449975370776854,-0.047556931328572645,-0.7129706996434938,-0.8771035202001668,-1.0991800307049582,0.692211485958244,-0.714967599983034,-0.9298685406602175,-1.0588504954871578,0.5781965948502369,-0.7279451295889118,-0.4743041192938757,-0.6097663160573785,-0.5168430307143778,undefined,1495442830140
903d185fccf839df,-0.8025837324691671,-0.6825888036588452,-0.46615386297661743,-0.5569074873993819,-1.554694587093202,-1.8373026403940187,1.9438282222066705,-0.7688847343309622,-0.3384092500747159,-0.746171204995636,0.018293762041654577,-0.028594925560710156,-0.6955631684491979,-0.886361844375323,-1.1012852909065518,1.0195500593355464,-0.5807713526148233,-0.9555296289060897,-1.0541486386820207,1.2440407736796102,-0.5711294186463566,-0.47055273243455387,-0.6292455199389505,-0.4336722063014536,undefined,1495442831636
903d185fccf839df,-0.7221948921618341,-0.6591082037339897,-0.2919765302242008,-0.3800661728115293,-1.550775737985927,-1.8003609064440895,1.9173250461396985,-0.889211303658239,-0.30222272771636194,-0.7515491716063694,0.012716943505184422,-0.010409939504464755,-0.6172292780748664,-0.9252468751976226,-1.0970747631411306,0.8094067445112467,-0.592838048022413,-0.962856844131799,-1.0508741309898728,1.3767599774582189,-0.5410254681061926,-0.4674747576534439,-0.6443640215164037,-0.4505862852702905,undefined,1495442833146
903d185fccf839df,-0.4186577210620113,-0.5217465480336234,-0.24923018705728606,-0.3820255879818412,-1.1940677635175314,-1.798991313222236,1.9058932910069901,-0.8793030987761319,-0.14409248718811574,-0.8673929192965976,-0.023290699373121792,0.0001298997617272065,-0.7869527072192514,-0.7539676011344277,-1.0497062760850657,0.969034811976466,-0.5169685783666399,-0.8257106168840184,-0.9978173136838355,1.8057144714342217,-0.38048665607431775,-0.3900757283328543,-0.6671770667145557,-0.46848566908814887,undefined,1495442834714
903d185fccf839df,-0.4089556624799108,-0.3702965031503514,-0.1854285976306427,-0.3038795622755076,-1.0518474340375306,-1.6271237382309798,1.8586882811237613,-0.8575751732338576,-0.25532379826419427,-0.788429820095995,-0.07223840469153982,0.010597003745997959,-0.7738970588235294,-0.7261925929943293,-1.034969432587209,1.049859139915663,-0.4881639632411914,-0.804526919973089,-0.9457400501513324,1.7703904413498868,-0.3600123864563266,-0.383650579702034,-0.7056700074414092,-0.6160478388479294,undefined,1495442836150
903d185fccf839df,-0.38816539399585503,-0.49063469467720516,-0.22498552208229372,-0.4135138376472796,-0.9576613052520124,-1.545402380417844,1.837221168738214,-0.8553563797129282,-0.40138210776346517,-0.7814913900933076,-0.05424323187254079,-0.036233087414204945,-0.7042669340463459,-0.7465609366139929,-1.0539168185749543,1.1832192753623938,-0.4058367332193187,-0.7978139994369768,-0.9349719580469656,1.612895141729138,-0.39246478593281103,-0.38193789835017017,-0.6986895152826171,-0.6198268548763914,undefined,1495442837650
903d185fccf839df,-0.48102838849253965,-0.3967121780658138,-0.373004030356661,-0.5147854015366026,-1.0110132166567747,-1.5520989424357368,1.8554562374778742,-0.7850514115045444,-0.3801026611233208,-0.6213411667045748,-0.037120651692552804,-0.009842168257463911,-0.9175091911764707,-0.7623001165272318,-1.0023377963912345,1.947009044370087,-0.1828690684300735,-0.7984282949349273,-0.9024157970316696,1.897381425320663,-0.31472359932705946,-0.3771023821254786,-0.7154256958748472,-0.42946815876362643,undefined,1495442839139
903d185fccf839df,-0.6889305557519512,-0.6238873330746988,-0.46998167370883265,-0.5578825603074404,-1.2763739159465883,-1.6525427258947465,1.8806787029243772,-0.8728638966794406,-0.27469918752415606,-0.7153593563152636,-0.005315188369128904,0.07482192747644928,-0.9044535427807487,-0.7595226027624474,-1.011811496747341,1.098353714067404,-0.3912156620031672,-0.7932922772969724,-0.9160455847356609,1.467995772745119,-0.43007829100792416,-0.3863398262258693,-0.5689593418471672,-0.309966098632356,undefined,1495442840632
903d185fccf839df,-0.7831795290414418,-0.7500956161267818,-0.43425306826329574,-0.5322159078304921,-1.3870891541394321,-1.8026482176241063,1.925506388284341,-0.8246066493618094,-0.23171939290027013,-0.7359141889744617,0.021858595685426925,0.04515587887558965,-0.9479723707664884,-0.7872976109025459,-1.0033904264920313,0.6356345016243605,-0.5504167582315287,-0.8341650947001369,-0.9534015578288457,1.0770138407701717,-0.5451686953546157,-0.39139984545545575,-0.6075144724980241,-0.18842547491786707,undefined,1495442842139
903d185fccf839df,-0.9217810141373608,-0.5980585854733808,-0.10312533001207701,-0.18539910475927682,-1.5380626161863122,-1.8487275564553334,1.9367672192859346,-0.8227599740344919,-0.32153437203290225,-0.7539542917039663,0.044060148730406146,0.030598477994108118,-0.8174158868092692,-0.8169243207873831,-1.0139167606300516,0.93670505818901,-0.5215333265278117,-0.8542341926545888,-1.0113701356607314,1.0827112657603077,-0.5623659290548073,-0.4621502137735756,-0.6346589440522824,-0.037896038191570204,undefined,1495442843643
903d185fccf839df,-0.8358481206371647,-0.5464012364107064,-0.11014357600735361,-0.1711532601090365,-1.4799278554526085,-1.9399568687874784,1.963854227434663,-0.7137620770330703,-0.3318559134333658,-0.7927114437204832,0.05465221106426126,-0.04700303426995467,-0.7564895276292335,-0.8178501328074288,-0.9570745879423477,3.5331862116619743,0.546335252392694,-0.8322208813510609,-0.9523520372555957,2.3758573213462393,-0.22261494040209473,-0.46870162876196925,-0.622984246940915,0.3449646992233392,undefined,1495442845148
903d185fccf839df,-0.8275320581005751,-0.47067618474107803,0.0761560892325592,-0.021571822643173658,-1.4010262727723342,-1.8801070674669647,1.9497637247636213,-0.7170158113969521,-0.3260622478503431,-0.6970915583603479,-0.0030487013885238997,0.0026934883322066467,-0.7782489416221035,-0.8021109593695772,-0.9897062057327376,2.9128596332257723,0.2657253449137328,-0.7978456624002408,-0.9964249486007616,1.8651986746610194,-0.3366330412270787,-0.48153433897558245,-0.6604418795081487,0.20199660621500756,undefined,1495442846694
903d185fccf839df,-0.8455501964719702,-0.5599025813674983,0.2739396949430166,0.18647242197314143,-1.3364732381989162,-1.9174168220749717,2.0205607345161543,-0.2762218409747604,-0.3229209683545758,-0.5327089018258309,-0.042099412526235044,-0.01026908266922988,-0.8304715352049912,-0.7363767648041611,-0.9949693635989554,1.2923321519979756,-0.1487421643365223,-0.7616908869626201,-0.9883366354047176,1.4316092483364378,-0.41750464193441506,-0.4711974538061944,-0.6981106462014188,0.12255831253427302,undefined,1495442848169
903d185fccf839df,-0.7914956778415558,-0.6667393987095678,1.106544439328706,0.983097151729776,-1.2253979995994628,-1.8987968836967406,1.982541626560158,-0.4903194181966452,-0.3658119836363078,-0.46762851969675834,-0.09352518633988338,-0.14185037358063973,-0.7216744652406417,-0.7160084276598846,-1.0012851810149053,1.3226412608428137,-0.1828265433141655,-0.7467008094111133,-0.9668284386535877,1.4289299167825131,-0.40325740665423093,-0.47528335059564975,-0.7315125985994204,0.057337152894377186,undefined,1495442849646
903d185fccf839df,-0.6237878617249913,-0.7571397814902423,1.50721599137879,1.4879307503704098,-1.1629535290919337,-1.9966948074842221,1.9943257900223,-0.5110176187786233,-0.35334767755329466,-0.4820321797772944,0.019935294023173324,-0.21512493136169936,0.6665761475044564,-0.7335992445639894,-0.9770746077120068,1.3105176173048785,-0.13309611017919803,-0.724871153369033,-0.9438998894963555,1.4612358558403897,-0.3782226010197662,-0.4909292646457315,-0.7661247610858904,-0.0011673165519267877,undefined,1495442851132
903d185fccf839df,-0.26065196352754744,-0.767706109912412,1.626523631928998,1.549295498656948,-1.157635826765838,-2.01268270588559,1.961495282728794,-0.7331119227537091,-0.374420544005786,-0.4989372503031738,0.07303076066498548,-0.2683092889891039,0.8798184046345812,-0.6965659219618157,-1.0623378741057965,-0.10188730710012245,-0.8257410429826347,-0.7233069172828538,-1.0114540977032216,0.5156327178004411,-0.6255140723566831,-0.4798714688671851,-0.6074671899013722,-0.3947341091415601,undefined,1495442853347
903d185fccf839df,-0.5309249362391262,-0.8035140540258089,1.525080039964609,1.4921397499475482,-1.2583739431564938,-2.035262350882535,1.8872427038923771,-1.2661821288939845,-0.3515659482016625,-0.5505121911986065,0.11810082582640857,-0.32783965658514075,0.43157447638146174,-0.6993433903988892,-1.087601062785024,-0.3564839344556488,-1.0000655816355883,-0.7466691463924827,-1.0528822149774322,-0.08947999449083333,-0.7914798634586053,-0.4772100596050278,-0.5862198684468234,-0.566570561224041,undefined,1495442854136
903d185fccf839df,-0.5877514987186769,-0.8363869085346027,1.4217222884971628,1.3696090034671689,-1.2824527590113113,-2.0496058064717504,1.8892518726910812,-1.274400411738901,-0.3656613242193858,-0.5939714777447462,0.15238577165409692,-0.2828610063798063,-0.10805899064171122,-0.7086017437132881,-1.1065484487727697,-0.24130932084526394,-0.9987183439952805,-0.7648256962754488,-1.0554570412821762,-0.09259048091523939,-0.7984585771358323,-0.4778534718394063,-0.6320993915678575,-0.5798717210926098,undefined,1495442855643
903d185fccf839df,-0.5406270120739316,-0.8041010544099341,0.9464035985668426,0.9110632404085668,-1.309524717553586,-2.0052151658170576,1.8673876626013275,-1.3890496921976714,-0.346856609865882,-0.5725247392673579,0.1121178127769473,-0.2926559799948039,0.5447234291443851,-0.6724942396065473,-1.0918115905504453,0.10219407289632346,-0.7411716265308066,-0.7045107419377176,-1.040357923544882,0.4157122058918292,-0.6626012766957727,-0.4984259964939854,-0.5117162552915694,-0.41310313508460633,undefined,1495442857138
903d185fccf839df,-0.46855423430318816,-0.7829684706355756,0.5074519060990109,0.4727667559194152,-1.2361876974972603,-1.9842450247323151,1.8890283430629975,-1.2168961500536355,-0.2873729539120194,-0.641123945149415,0.06254360177501778,-0.21732689989453058,-0.034076983065953644,-0.6826783984656046,-1.0381273155273656,0.5103568328892153,-0.659976378168817,-0.7045550719067427,-1.0261124164898603,0.6944086716665709,-0.5974408074555774,-0.4977428072318415,-0.5442621525734322,-0.3793223415055687,undefined,1495442858679
903d185fccf839df,-0.4491500481281676,-0.6902200278624157,0.33710238407880955,0.2884834184215739,-1.20870431504048,-1.9285226348251852,1.8861013712841985,-1.1725761264640622,-0.2485430979247972,-0.6281887185971938,0.020348092691428267,-0.15912628483480593,-0.6825075200534759,-0.6743458960235751,-1.0402325904534269,0.5770369288773022,-0.6587594255333851,-0.7466564807265945,-1.0025051766286537,0.6330304658963918,-0.6193474586802941,-0.4901843542765513,-0.5153608032119482,-0.4042121912252373,undefined,1495442860154
903d185fccf839df,-0.6140858031428909,-0.6497159345360553,0.2803200571952405,0.19075207972007283,-1.0954896455034746,-1.91556740564763,1.915363219040949,-0.9444606352843247,-0.2969304435208832,-0.6308922077541005,-0.004704129986243351,-0.16656896533235335,-0.7303782308377896,-0.6965658831094921,-1.032864150298914,0.5770369571420237,-0.650699533545063,-0.763736429221024,-0.9907995122277189,0.5826159538359234,-0.631067103356749,-0.4950306640907393,-0.5204924222681044,-0.40563145378998006,undefined,1495442861646
903d185fccf839df,-0.5863654336623466,-0.5193984880411379,0.42387236272044093,0.3835981795076537,-1.2019568918456982,-1.8773096513194398,1.9304057074232652,-0.7946195947021866,-0.37023412516202353,-0.5354432638143731,-0.009746530581298709,-0.10347275683666256,-0.10370710784313725,-0.6808267420485768,-1.0391799456281623,0.678067310536577,-0.6218592462640912,-0.7122495965923076,-0.9918980114313671,0.6454724086188458,-0.5969120656248748,-0.5096788519085448,-0.5407631093289821,-0.3910298606665958,undefined,1495442863141
903d185fccf839df,-0.5101346677550704,-0.6356275599671457,0.5967731655759039,0.5235061857104865,-1.1310472986270597,-1.907245034209441,1.95070516716804,-0.6711783247615595,-0.45468296321246066,-0.5322378698484931,0.11024900799990489,-0.1337401761087152,-0.2342635918003565,-0.7048984114530708,-1.0002325435518746,0.8053656242143401,-0.5762176956134195,-0.7228066131267067,-0.9696481523297006,0.852104145639349,-0.542966551917378,-0.5077178070811376,-0.4248279678538605,-0.3961359845690752,undefined,1495442864642
903d185fccf839df,-0.5323109495373419,-0.5781000463092613,0.2120522650194303,0.22557563024368385,-1.0525571442284285,-1.9582903118178505,1.9436520384686284,-0.7473969109350739,-0.4367628943898049,-0.5819539208026278,0.12581208204881114,-0.15517927394347844,-0.5867660984848485,-0.7613742527040879,-1.032864150298914,0.34264649656546126,-0.7878837708949745,-0.784147505126382,-1.0026730996125632,0.5010349860382013,-0.6529515799928478,-0.49229108171278935,-0.5094786227835273,-0.5041918065319224,undefined,1495442866567
903d185fccf839df,-0.5323109495373419,-0.6238872892327103,-0.12226590849484978,-0.15058486238799948,-1.065403982184089,-1.9421766351456398,1.9948017661175883,-0.40920042273078344,-0.3806667044118336,-0.7160823878752998,0.11922109212475675,-0.0027443476414587224,-0.6128773952762924,-0.7641517923704214,-1.0697063068980754,-0.05339273294838145,-0.8296687748815402,-0.7932036151940857,-1.0076548286753726,0.2979756836494283,-0.7025442147497007,-0.49001502066152397,-0.5204340725062889,-0.5413560550550036,undefined,1495442867655
903d185fccf839df,-0.5531011490105783,-0.6250613192289531,-0.1764967004062079,-0.23823308820021008,-1.0923833664702407,-1.9433249494752538,1.9635438917705605,-0.615619613209267,-0.35969178080806,-0.8076254959823482,0.098083907545892,-0.10626457367053828,-0.7782489416221035,-0.7437834098984341,-1.087601062785024,0.31031660145439754,-0.7752579528402342,-0.7699047161579473,-1.0437653698423521,0.5036219234461727,-0.6609304622821485,-0.4862042845100403,-0.45788866000747386,-0.5546649019009103,undefined,1495442869143
903d185fccf839df,-0.6154718164411066,-0.4137356860813149,-0.11843708121483684,-0.24525380976112326,-1.2085397428175857,-1.9052442176841526,1.8960025923238044,-1.0369827532032871,-0.39325404671268227,-0.6302399083222006,-0.02598850292233351,-0.025670475378910148,-0.865286597593583,-0.6873075621720295,-1.1002326534435212,0.25171908523678227,-0.7796408992123297,-0.7295195352795253,-1.05589783959054,0.516525821914844,-0.646134822400642,-0.4726466474932939,-0.4999534652547948,-0.5478254265969263,undefined,1495442870693
903d185fccf839df,-0.8025837497218721,-0.4929828131256754,0.0633958730020103,-0.014712903519295516,-1.3657977661250669,-1.8749268403289432,1.914858304108582,-0.9268354653717834,-0.3837033564346472,-0.5181282915327114,-0.010109820424613917,0.08165153207185692,-0.7216744652406417,-0.71230508892428,-1.0676010466964818,0.3163785362822513,-0.7407132926353028,-0.7276069871305261,-1.0119368768523773,0.7283622372521763,-0.5847112702766045,-0.46083825941130957,-0.4422871353419374,-0.5132489854955894,undefined,1495442872141
903d185fccf839df,-0.39509539147611433,-0.38555895155749215,-0.04378994333460047,-0.07518025454927638,-1.1030187758136538,-1.8761380447403504,1.9347817150520776,-0.7423202782330132,-0.3030091704581819,-0.3470033949497854,0.021359218740387844,0.08393768046217623,-0.4779690285204991,-0.7261926059451038,-1.0676010246097805,0.08602913947315237,-0.753824132426598,-0.7731535180195724,-1.0051709614625608,0.5145856236985658,-0.6542153012881934,-0.45347630292016233,-0.5812213287632685,-0.4680036602000488,undefined,1495442873643
903d185fccf839df,-0.3479709738421885,-0.42195393989700286,-0.11652342998567863,-0.1266298974879832,-1.0350200352289989,-1.8759610226884529,1.9627102435488242,-0.5506828742009181,-0.2986672511965875,-0.31526376289890157,0.009642059952868307,-0.04302611870931284,-0.49102467691622104,-0.7150825832629025,-1.0412852352786912,0.36891425899562047,-0.6691284454642484,-0.7421157609182578,-0.9719571001269841,0.566339795895289,-0.6233334300100706,-0.45869594428201943,-0.5614251687758528,-0.4820642892704434,undefined,1495442875144
903d185fccf839df,-0.42420180876028407,-0.4090396099383323,-0.17968662739537042,-0.1937062936879764,-0.9767618457467337,-1.8290571322091576,1.9159444029876107,-0.7899924925820644,-0.32483083295132564,-0.459255509760909,-0.04880762191326836,0.035930780657440854,-0.6520443404634582,-0.7021209106390609,-0.9160219219833494,1.4438775831632802,-0.36158180973125614,-0.7137378401669844,-0.9397018028785931,1.1000653156495335,-0.48362742518660584,-0.46062271151281353,-0.5890328037517167,-0.3101045774462887,undefined,1495442876643
903d185fccf839df,-0.6376479602017391,-0.5381830264370069,-0.19755093011813887,-0.3013172164981383,-1.1413329975140096,-1.689987577056023,1.9177800005676267,-0.6320061789882656,-0.32787737526234867,-0.6308460293550667,-0.08861678318768236,-0.07435225291363631,-0.45620961452762926,-0.7502642559234358,-0.8791797727464216,1.0296530579308638,-0.46386770969844454,-0.7713422957901017,-0.9189632552627273,1.0123403710131398,-0.5237321200003111,-0.4609130713534371,-0.5749031913936344,-0.28280834832076734,undefined,1495442878138
903d185fccf839df,-0.7402131167967535,-0.6051027946788298,-0.31877323844530286,-0.33271147828479775,-1.3698194723467638,-1.6937562842721365,1.900005155290517,-0.8196025370239661,-0.3545192592572007,-0.7205069789462908,-0.053355293210262424,-0.06498260697899554,-0.669451871657754,-0.7447092737215779,-0.852863953966397,1.5954230991227492,-0.2963412359690492,-0.7913290653881608,-0.8930330742088151,1.4004735862995097,-0.43960919330512854,-0.4668048709744282,-0.5719118975183846,-0.26869285676901355,undefined,1495442879642
903d185fccf839df,-0.6653683296822834,-0.6814147444346101,-0.3596059303830594,-0.4505656484116768,-1.3528789260815617,-1.6798460689986088,1.8978092583993942,-0.8293691375558365,-0.33130095547033817,-0.6583066355557737,-0.012944426811408656,-0.08125790835585216,-0.691211285650624,-0.7484125800802462,-0.8581271118326149,1.1731162767670764,-0.5125417816550735,-0.814393646283369,-0.9115886170024354,1.4691198535950656,-0.443235767452456,-0.47316029396060394,-0.6663753372128794,-0.2944399785374123,undefined,1495442881189
903d185fccf839df,-0.7457571699896165,-0.7248539127515775,-0.42532066276496205,-0.5370874242906841,-1.3262492560668668,-1.7565246230103542,1.9097406971406308,-0.8759445247080727,-0.3090146800446615,-0.655977039453045,0.02163098170480249,-0.036554227297958174,-0.9218610739750446,-0.7326734131177819,-0.8833902931496088,0.9084164812279036,-0.5792800784979693,-0.8156095714805016,-0.9123862536503569,1.4810536491794195,-0.446516726818579,-0.484241628561406,-0.6582568883307502,-0.21338617583045322,undefined,1495442882656
903d185fccf839df,-0.744371122185991,-0.7219188377609705,-0.41256044653441315,-0.5340903742445211,-1.2718790604132335,-1.7415825556942846,1.8993634769602568,-0.9142382103435454,-0.3175840783686585,-0.6567987900699227,0.03606799550827791,-0.0522616232580014,-0.8913978943850268,-0.7993334650309546,-0.912864031680959,0.9468081698432135,-0.5348674522637359,-0.8664187780671607,-0.9386732723403644,1.195119913546818,-0.5325780739092966,-0.5099132289624242,-0.6912365725630069,-0.22362025371252836,undefined,1495442884155
903d185fccf839df,-0.9148509303935772,-0.6356275745811419,-0.274750111244485,-0.34029553988608574,-1.4172365323692382,-1.7578336563822126,1.9013700217168665,-0.9274720507001284,-0.3115783436974696,-0.6933952129861229,0.06924592506947741,0.0506362002137349,-0.9218610739750446,-0.7928526125305656,-1.016022024512762,0.6598819017591172,-0.6553311437432506,-0.8452730788902723,-0.9842365045918913,0.7112699659031296,-0.6516958392750082,-0.5055269266389188,-0.6746819480733787,-0.2719760694166024,undefined,1495442885626
903d185fccf839df,-0.7845655768450673,-0.3474029182236173,0.04425529451923753,-0.07106777501600761,-1.385885728764238,-1.7639199582514433,1.9277443421279685,-0.7162397308135797,-0.37938472120869465,-0.6202150693673221,0.017787500238031013,0.07332769889535308,-0.7521376448306596,-0.7706326189692614,-1.0160220392372297,0.6356345864185251,-0.6966223444455257,-0.8243110354399116,-0.9819345535076115,0.7087600185684202,-0.6396204997603006,-0.5152446630516061,-0.7180158001266091,-0.2752167718931627,undefined,1495442887843
903d185fccf839df,-0.7956536832307933,-0.36853554583996423,0.09784820268754292,0.057070203163825745,-1.3922422906503022,-1.7780863912569078,1.946718393497327,-0.6077072535877982,-0.3910407741081299,-0.5724740627250661,0.02576761504678744,0.0877544330938718,-0.5954698640819964,-0.7493384503787773,-1.0707589369988724,0.16483293552861764,-0.8320967312453329,-0.8027916928241337,-1.018835733967217,0.4932895716943167,-0.689449550884025,-0.5107777759319229,-0.6929085564359538,-0.3517043689523295,undefined,1495442888645
903d185fccf839df,-0.7318970025020493,-0.3644264116251222,0.14059505412835646,0.07551923362030905,-1.3607989180145403,-1.8179000771964338,1.9163757001833444,-0.8508906320144309,-0.3647367246879883,-0.5719026457840601,0.016378165593045484,0.011427390840696466,-0.13852217023172905,-0.7771134585188758,-1.0676010466964818,-0.06753704969365616,-0.9110778565793433,-0.8076427274207927,-1.0232577182271798,0.22135302295892717,-0.7514756493152056,-0.5076549674463154,-0.6595934151982691,-0.3644330559883402,undefined,1495442890928
903d185fccf839df,-0.754073249778911,-0.34975097821610285,-0.07888066503708467,-0.13360652630781558,-1.3910902971111736,-1.7693750353399198,1.9196655858876484,-0.7795283658545041,-0.345232062322496,-0.570158867640635,0.015568566553089946,0.024386262898229906,-0.3735238413547237,-0.7937784569275477,-1.085495787858963,-0.22110321059574314,-0.9623405586466477,-0.8255142946943227,-1.0363627449502597,-0.018939716386037683,-0.8132363244920956,-0.504100514909319,-0.6578312868633845,-0.40622936468375087,undefined,1495442891655
903d185fccf839df,-0.9716775791366522,-0.5522713863919202,-0.32451520868057515,-0.3677562679194012,-1.4538536211000805,-1.7607056052105907,1.884136904430529,-1.0354441195947264,-0.2855993813882554,-0.6126450246016725,0.0371674681314076,-0.02357524282446844,-0.6563962232620321,-0.810443468286994,-1.0981273932419275,-0.24939173102740642,-0.9841695799776303,-0.8312202763386196,-1.0595851591611143,-0.06799916651269027,-0.8334641722417137,-0.49082391346572357,-0.6516927674679017,-0.4842390782684666,undefined,1495442893144
903d185fccf839df,-0.9508873451580062,-0.5751649713186543,-0.3659857843613844,-0.3797959921180301,-1.4333336556823815,-1.7757874288966056,1.8687236048559035,-1.16945340713116,-0.2614630261853428,-0.6485680400815051,0.054209761836226444,-0.04618092250159213,-0.7695451760249554,-0.7882234488241406,-1.1054958260342065,-0.24737111434951004,-0.9703909184322569,-0.8320942225993198,-1.0619150970484725,-0.09106603753544344,-0.8376360702120611,-0.4909996263318754,-0.6500005510065536,-0.4821383024357478,undefined,1495442897251
903d185fccf839df,-0.9508873451580062,-0.5980586147013731,-0.34301739514639634,-0.3657271649418918,-1.4374685068640989,-1.7627367011235873,1.8702199687880878,-1.1489212057473217,-0.26747340129444847,-0.647347306647848,0.05118594323425749,-0.10762354992273783,-0.7521376448306596,-0.7928526190059528,-1.1054958260342065,-0.2190825373884037,-0.9842919461500977,-0.8345894026407521,-1.0637132776211733,-0.1147180495255427,-0.8427892499119951,-0.49070123809310034,-0.6510955382942697,-0.4808685455320028,undefined,1495442897682
903d185fccf839df,-0.9079208984079081,-0.6538250979788895,-0.44446124124773484,-0.5032347462608078,-1.5073803865997792,-1.7070562376374476,1.8984298962069017,-0.9075247933044477,-0.2450503037855451,-0.7432145781532491,0.06164489612432222,-0.05240325660426909,-0.847879066399287,-0.8002592900017749,-1.1044431996145267,-0.19685590938751188,-1.0061668540212894,-0.8572866729189416,-1.0721304410874646,-0.19810063303072678,-0.869329251423818,-0.4853227724308484,-0.662978529641038,-0.4867405332068747,undefined,1495442899150
903d185fccf839df,-0.9065348851096924,-0.6039288231385717,-0.3787460005919333,-0.43508974923114924,-1.5265014965800803,-1.7217677142208863,1.9097853959430993,-0.8364304627936343,-0.2671275814406514,-0.628366004762652,0.04138072848138001,0.01889691095500913,-0.9088054255793226,-0.7900751246673303,-1.0844431688015168,-0.2352474708115748,-1.0176159528737756,-0.849313497061645,-1.0619360878542434,-0.2539199980427616,-0.8712935944495009,-0.4664505157527155,-0.6741401977895259,-0.49009201897709737,undefined,1495442900650
903d185fccf839df,-0.9065348851096924,-0.5317258030016869,-0.1981888138611916,-0.16475671047606613,-1.5205563635678132,-1.7279518446224582,1.8970282135795826,-0.9042221157822103,-0.285069310866644,-0.5877934905280398,0.019561277322217963,0.0027854069542838414,-0.9740836675579323,-0.8234051344354485,-1.0865484290031104,-0.45549367117230566,-1.0283235773300887,-0.8698702329305427,-1.0589414526828012,-0.3846066017856219,-0.9042687053840626,-0.4580007825305646,-0.686056514349419,-0.46974527022497,undefined,1495442902139
903d185fccf839df,-0.9245530407337923,-0.3967122072938062,-0.13374984896539438,-0.1138865420870354,-1.523384930847547,-1.7564803665954043,1.923752303612719,-0.7549306263082047,-0.32660321466848924,-0.562627273734772,0.008181396551433618,0.059844682216406125,-0.8739903631907309,-0.7465609301386057,-1.1023379210073485,-0.39487545348262937,-1.0232310146997579,-0.852511634216688,-1.0555549965243427,-0.34577172114501703,-0.8869415674127976,-0.45556372429005704,-0.6946164397185608,-0.471143030115942,undefined,1495442903820
903d185fccf839df,-0.8926746831167154,-0.3802757873464073,0.013630775565920164,-0.014235730164943295,-1.5032455382908099,-1.7619983338798366,1.8928836464634422,-0.9590018040644598,-0.35935669892336514,-0.6051656243849267,0.0011442254042326211,-0.014935486481855867,-0.8696384803921569,-0.7086017437132881,-1.1054958260342065,-0.5060089185313861,-0.9967940351263006,-0.8054071994598364,-1.0744533832833685,-0.5183266999006668,-0.9115060644317939,-0.4459790366462276,-0.6232176151407522,-0.5278390484248754,undefined,1495442905138
903d185fccf839df,-0.9065348506042827,-0.423714984891367,-0.0922787650106863,-0.15831661773650763,-1.5246500738498685,-1.801562792639665,1.9531956229975276,-0.619441626826003,-0.34895769581317454,-0.6633495493368395,-0.014863419342326906,-0.007112574585449841,-0.847879066399287,-0.7123050694981181,-1.0991800233427242,-0.13421706088757848,-0.8640322671790789,-0.8056098534858763,-1.054155635242098,0.16528728043692278,-0.7426477688875026,-0.44742585636730364,-0.7097093510667452,-0.4227585531214816,undefined,1495442906658
903d185fccf839df,-0.7651613389119322,-0.575751927860791,-0.24795391129728175,-0.3073810949165497,-1.4423439227451567,-1.807642106616374,1.9787441893111315,-0.4641145816971763,-0.312826612133877,-0.7374467618364652,-0.013265605634634301,0.010706193813075339,-0.8391753008021391,-0.7623001294780064,-1.0623378741057965,1.3287030826117814,-0.5025967620316174,-0.8316889150400032,-1.040252971889448,0.8385073144735199,-0.59672081627688,-0.4539741076561054,-0.7909928283220834,-0.4409841695341645,undefined,1495442908138
903d185fccf839df,-0.645964126254558,-0.7453994961418107,-0.4693437899657799,-0.5262575131670462,-1.3848674428769399,-1.840272419469443,1.9578898122286785,-0.6525132451467833,-0.2532665156548012,-0.7556594441754793,-0.009004472520770211,0.05857484660361663,-0.7695451760249554,-0.797481789187765,-1.0623378741057965,1.8823495085304531,-0.3242991225375221,-0.8659691387726226,-1.025510691555801,1.4534750317965681,-0.46576034995241994,-0.4617594311948087,-0.7505123682638738,-0.3032467184800768,undefined,1495442909692
903d185fccf839df,-0.6847725848681234,-0.7964698594343561,-0.47444787645799946,-0.6262869115386857,-1.1886574855789593,-1.8137144331617419,1.9153763612493757,-0.886177537861374,-0.20236571354650812,-0.7517757329888288,-0.004610672939171007,-0.02954557652263142,-0.8087121212121212,-0.8400701587456694,-1.0844431651203998,1.2680847235984976,-0.5280340739470842,-0.9130925726816329,-1.0324375344277015,1.7461532852422614,-0.4202570224677856,-0.46530626090639016,-0.7203667414102044,-0.330969828751238,undefined,1495442911145
903d185fccf839df,-0.7194228828181075,-0.5352479222184077,-0.43170102501718594,-0.5841305558177948,-1.2480676721832866,-1.8683234475789552,1.9226898577757976,-0.8857902690197746,-0.1651046918701912,-0.7405030832602986,0.031093117416658884,-0.056197093732361605,-0.7608414104278075,-0.8659934975179655,-1.0612852366427659,1.0559210747435168,-0.5204365540752276,-0.9502922843409332,-1.038909584091019,2.121721364332653,-0.35122782766921806,-0.4643680719856578,-0.6477388216782859,-0.38957207493785684,undefined,1495442912649
903d185fccf839df,-0.8095138162129508,-0.5616636263618624,-0.5274029008832521,-0.6118624009885043,-1.457535893970115,-1.94605714758655,1.939212938602169,-0.8764682237760212,-0.16420149143276422,-0.7415128429587269,0.054788641874976805,0.05889902253908581,-0.7347301136363636,-0.9030268524970756,-1.0949694845339526,1.001364678822808,-0.5616099436715246,-0.9776126034094954,-1.0618031492366873,2.036398583984347,-0.3909501082396477,-0.4625588607864247,-0.5852480957580237,-0.38568871213885386,undefined,1495442914143
903d185fccf839df,-0.9009907974114196,-0.8592805226893292,-0.41575088179747455,-0.4399831106513032,-1.5192397914261284,-2.051606622519549,1.9698002104471624,-0.7855393825208705,-0.28035049495268305,-0.6786479055527298,0.0935670138089462,-0.04620586479167619,-0.6128773952762924,-0.9169143630425122,-1.1033905621514961,0.6740260771807842,-0.6535676520855463,-0.9786005424017019,-1.0690168607489425,1.314457870063478,-0.5633263847958607,-0.4582776444401636,-0.6267086439804421,-0.416695566574989,undefined,1495442915640
903d185fccf839df,-0.8815866112363991,-0.8487142527231443,-0.35322607640473436,-0.3928752699800027,-1.4071359763450626,-2.0177907274051843,1.963856845191626,-0.7820971153909282,-0.26614455053995273,-0.5785519615959526,0.03073735213588043,0.03017433617289764,-0.6128773952762924,-0.8650676693094517,-1.0981274079663952,0.5608720519835741,-0.5860978829550078,-0.909216811167679,-1.0736837334262912,1.1804759897599677,-0.5727763340828724,-0.44912756404255716,-0.6151321911505775,-0.507659513574765,undefined,1495442917139
903d185fccf839df,-0.6917026168537924,-0.7090045078023,-0.3162211951991931,-0.40132810484459064,-1.3111601390235668,-1.9111395213204967,1.9495612105177678,-0.760390885574396,-0.29837465134580776,-0.6082987555550533,-0.0024089614193818797,0.025226117813711275,-0.7216744652406417,-0.8502543176047267,-1.0812852674557756,0.5447071185604031,-0.6315688577261549,-0.8599655083602383,-1.0877473232822954,0.8935875512905099,-0.6314214707503538,-0.4465623519189986,-0.5917820313638036,-0.5499608292860029,undefined,1495442918651
903d185fccf839df,-0.7720914054030109,-0.6033417789124579,-0.47636203596105653,-0.5392052209762624,-1.4126799679190238,-1.8020612506644962,1.9384266174150815,-0.7324565426677603,-0.32565791422438556,-0.6236047102946434,-0.009035051116788552,-0.05192268560762196,-0.9262129567736186,-0.8715485120967598,-1.0654957717704208,1.262023014888416,-0.42255003099561483,-0.8823714630188745,-1.0708710156496133,1.1492941416756943,-0.5720337882397639,-0.45716115924410367,-0.627002594333377,-0.452010192810206,undefined,1495442920147
903d185fccf839df,-0.7859515556378733,-0.8246465793441827,-0.7047701606248313,-0.7401654008766978,-1.3658491903691545,-1.7393977279388877,1.893004616375248,-0.9707320582409412,-0.3070381758929896,-0.6963878132243263,0.02109598506509261,-0.01588444123329051,-0.9653799019607844,-0.8845101652944397,-1.017074647251325,0.7770771603121199,-0.5208432726979668,-0.8874378184480146,-1.0303244970596972,1.0649722542098947,-0.5906522062858441,-0.47045262954988676,-0.6495518550641753,-0.3314992191938823,undefined,1495442921685
903d185fccf839df,-0.9384131909686547,-0.8827611810701694,-0.7315663605720346,-0.8054788773424694,-1.4362959303498768,-1.7267033751665064,1.910929382971504,-0.864799165066049,-0.2978961330289233,-0.7248358033643615,0.06667635800933813,-0.03516451478872859,-0.9131573083778967,-0.8872876855346113,-1.0223378198420106,0.7205000629193503,-0.5514930507131867,-0.9120413047011223,-1.0403439299965334,1.1957204533500172,-0.5722521776773656,-0.46284649774354963,-0.6370617166759864,-0.3361113121616732,undefined,1495442923136
903d185fccf839df,-0.8691124225416379,-0.8839351526104274,-0.747516503791746,-0.8310493820872284,-1.4217622400604233,-1.6925404214665563,1.9029005778079267,-0.8698259390232531,-0.2678455805348512,-0.6900301578039808,0.06459593599122238,-0.007043513465783086,-0.7129706996434938,-0.9187660388857017,-1.027600992432696,0.2941518941489987,-0.8255635470793374,-0.932857690878763,-1.0399381158037238,1.0568726751630266,-0.6146667343176363,-0.46696013992989555,-0.7191831346488061,-0.31734821567979227,undefined,1495442924653
903d185fccf839df,-0.9273250673302238,-0.8334518627719881,-0.7105121308601036,-0.7959666177135065,-1.5005815364702089,-1.6481101839725791,1.916717571491053,-0.700942008877631,-0.27621284025733406,-0.648949965703817,0.02418147193950754,-0.04991988451191822,-0.865286597593583,-0.9345052123235533,-1.0233904536239242,0.49823318935128,-0.7158071786645273,-0.9757000548175632,-1.0345575681233348,1.1619054743926946,-0.6027840197072395,-0.4766777563785272,-0.7214075516769834,-0.194790217894535,undefined,1495442926142
903d185fccf839df,-0.9924677613571836,-0.7418774061530824,-0.6499004684226227,-0.7490141928273276,-1.5513105920633625,-1.5686807969445729,1.8833242925414582,-0.7913790348227169,-0.2781193624566861,-0.6200315738082215,0.017560609869770167,0.018415209548835597,-0.9262129567736186,-0.9789452318230981,-0.9991799208133116,0.920540237824725,-0.53179824482425,-1.024014081955213,-0.9884695746278626,1.4882755255863505,-0.5281159446957506,-0.46977643890361703,-0.6973108346059439,-0.21216382061959677,undefined,1495442927638
903d185fccf839df,-0.774863483757557,-0.6720225044646679,-0.6046020820095983,-0.6714452046227497,-1.3528377818570336,-1.6111288517622215,1.8989269253952046,-0.7245796466347293,-0.36775541892147273,-0.63700521535181,0.019829885853866847,0.0031803467282444393,-0.8870460115864528,-0.9159885413093856,-1.0454957483196445,0.5891605724152374,-0.5918560531617113,-0.9690884615076325,-1.0245871118716712,1.4161953981847313,-0.5404032617036306,-0.4757126104580586,-0.6379828568294138,-0.3064510288731929,undefined,1495442929135
903d185fccf839df,-0.7901096645433401,-0.669674502928167,-0.5293170603863092,-0.6179547314260682,-1.3833040171731568,-1.728072965251605,1.8988006990190363,-0.8843026632553321,-0.3910644157053901,-0.7520708339175516,0.03800640090249258,0.03574481731697964,-0.8739903631907309,-0.8919168524787299,-1.078127355066684,0.5447071185604031,-0.6157879513043302,-0.9155117574819865,-1.0061365214981175,1.3044026820368722,-0.54100482521621,-0.4853957363300508,-0.7030940656838489,-0.33694542382979364,undefined,1495442930638
903d185fccf839df,-0.6903165345447572,-0.6943291328492653,-0.3002705437055828,-0.36922514004128404,-1.19033405688493,-1.8763849438029765,1.9330355182195638,-0.8293072517939344,-0.3582167192012777,-0.7217158628712376,0.021151230448630345,0.00739793864406552,-0.9958430815508021,-0.863216003179343,-1.0560220640520803,0.5527895287425456,-0.591678711390187,-0.8855949314004969,-0.9952494833458136,1.296164517236772,-0.5316989568979696,-0.48959535482943617,-0.6957143888548838,-0.3386016591963003,undefined,1495442932177
903d185fccf839df,-0.6792285316752604,-0.664978382943196,-0.01890790289045425,-0.1253672355310653,-1.1455707048378962,-1.9108390497227892,1.9626024231780972,-0.6468338407020737,-0.36378241854791676,-0.7994789999010145,0.02555541509952365,0.031011994347660696,-0.9740836675579323,-0.8159984828657882,-1.0602325918175015,0.742726705052603,-0.554462759543846,-0.8407386915107029,-1.0113701358687115,1.217755633145441,-0.5327654790134857,-0.4832399456677975,-0.7491406201913002,-0.32625910654703266,undefined,1495442933643
903d185fccf839df,-0.7429851778985948,-0.726614986973934,0.07041411899728692,-0.0069861625318850965,-1.1031936327993432,-1.9239107404689169,1.9664656091800414,-0.6213628168442147,-0.37382708821359484,-0.8570525019378354,0.014460514248186552,-0.016060890803319912,-0.9001016599821747,-0.7632259479734393,-1.1297063846126374,0.4800478371032633,-0.653888795866564,-0.8172688027129049,-1.0592003348259307,1.0207325192176433,-0.5784745576942109,-0.470977659941584,-0.7239038568302877,-0.5057410264414103,undefined,1495442935132
903d185fccf839df,-0.8067418241219291,-0.7142876720133848,-0.11779970574568295,-0.19297677184400264,-1.184152354361174,-1.8709089015260916,1.9665497545107036,-0.5835618700939217,-0.3667812425158001,-0.82399529829968,-0.0001568616248596755,-0.027784411278414245,-0.852230949197861,-0.7363767518533866,-1.1097063464373937,0.6942321309008619,-0.630616198095788,-0.7851987760191786,-1.0710249449750668,1.1838636491178443,-0.5305202484685899,-0.46671836211047174,-0.7033830367939085,-0.5344055894567525,undefined,1495442936639
903d185fccf839df,-0.8344620900862441,-0.6855238786494522,-0.2300896085745133,-0.25620345090593627,-1.277505339654047,-1.8620531339554647,1.9231711070957969,-0.8797254455799367,-0.36626704796076,-0.8999931054785809,0.03489788587007744,0.11925200310085211,-0.6346368092691622,-0.7493384309526155,-1.1118116066389876,0.39518216274938733,-0.7563989421477771,-0.7894291827777065,-1.0713747858186367,0.7157355095360811,-0.640077883453329,-0.4471042294010395,-0.6792202204061679,-0.539424233089099,undefined,1495442938143
903d185fccf839df,-0.8926747176221251,-0.6955031628455081,-0.2773021544905948,-0.3077370893050647,-1.3059967207146737,-1.8511546246531232,1.9150897163381646,-0.9331455535215973,-0.32822694214812864,-0.8008520702939613,0.010736122292729095,0.07360560188292282,-0.16028158422459893,-0.7493384309526155,-1.0970747484166632,0.4941918994660442,-0.6579576997669662,-0.7665102585406485,-1.0761186233666926,0.6200803667872316,-0.6465893979303278,-0.42608234976087395,-0.693762510159773,-0.5261560229219961,undefined,1495442939639
903d185fccf839df,-0.8164439172094393,-0.6596951895041188,-0.08398475152930422,-0.1425914663076858,-1.2846127559995486,-1.8633901187026092,1.9439965526738232,-0.7436924158291033,-0.3718465295458818,-0.8972718301559707,0.03488443060213799,0.08640621536543239,-0.321301247771836,-0.6141666901354041,-1.0791799925297145,0.6033047478369045,-0.5506245824835763,-0.6978168191308411,-1.0536938445742299,0.7285778158519067,-0.5858295260218683,-0.42024199854446986,-0.6880285411145571,-0.5270895202023068,undefined,1495442941134
903d185fccf839df,-0.5808213804694835,-0.7272020312000477,-0.12481795174095955,-0.1885853866775491,-1.1494484142438215,-1.9338472756581822,1.9143849363425602,-0.9817379374631744,-0.3735026103226316,-0.937756857421009,0.010209498532922578,0.06982503474420834,-0.9262129567736186,-0.6623100483705536,-1.0812852711368925,1.0114675360945178,-0.478206889763598,-0.7358461452547166,-1.0566115146547508,1.0016076499868178,-0.5485422480303298,-0.4287422050005625,-0.6102927033984071,-0.5055997958760988,undefined,1495442942645
903d185fccf839df,-0.5309249017337164,-0.7630099753134446,-0.1656501354048172,-0.22470471114995463,-1.0986062115480895,-1.9475129217076557,1.9560805126832992,-0.7097474191458897,-0.3395667450284891,-1.0274889592267857,0.011463138427739513,-0.1471066913673633,-0.8739903631907309,-0.6187958603172163,-1.0623378851491472,0.11835897805477302,-0.592226759829816,-0.7134211923187149,-1.0531970711487952,0.6173548455780624,-0.6348164065143187,-0.4349139188711927,-0.5137631306014506,-0.4497404247444763,undefined,1495442944200
903d185fccf839df,-0.37984934871197024,-0.7471605265221787,-0.20329290035341116,-0.29739849891082626,-1.1410038570732643,-1.966512525550622,1.8961709049830868,-1.1081616865364785,-0.33329513150005674,-1.0357582092164794,0.02558329336283969,-0.06114721840961937,-0.4823209113190731,-0.5743558084407351,-1.0560220861387817,-0.17260860817928061,-0.6992603831550409,-0.7098874097633401,-1.0403859111431784,0.34768187183693977,-0.6859078361510851,-0.4459365029577087,-0.5261444064920777,-0.446226155578755,undefined,1495442945642
903d185fccf839df,-0.5129066425933874,-0.708417522032171,-0.20775859482867914,-0.34185043273771976,-1.1433284233356278,-1.9262166870200625,1.8961761619712096,-1.0625028961488139,-0.3115210756436608,-1.0379394470291632,0.03674703664639569,0.06423994019919439,-0.4692652629233512,-0.5215833059253225,-1.0539168112127206,-0.010959952300886545,-0.7295917465514493,-0.6101562122888383,-1.0220262794333628,0.37790901935948773,-0.6161183879658104,-0.44763709090306175,-0.6145551461105663,-0.47431908653224814,undefined,1495442947147
903d185fccf839df,-0.21629957249005308,-0.6573471587396256,-0.2109490300917405,-0.31776825851416174,-1.0561365680701469,-1.866376202668652,1.907329173649598,-0.8994674335439675,-0.27098357646150495,-0.966156770931087,0.0749069827482061,-0.03280872601200233,-0.2908380681818182,-0.6428675426724847,-1.047601015883472,0.2032244262908767,-0.6643439643644584,-0.6634606005557829,-1.0281274989337854,0.6132434576014221,-0.5914285294083367,-0.45111159675527535,-0.5898400913422331,-0.4733715594686717,undefined,1495442948641
903d185fccf839df,-0.4089556279745011,-0.5428790879659934,-0.3442931626325018,-0.4251506774477499,-0.9115813818474983,-1.7917310740677992,1.8982747493252863,-0.858984349898905,-0.27279355289156837,-1.0104545208963647,0.05794645916243935,0.085410799032026,-0.41704266934046347,-0.6974917339818614,-1.0444431108566141,0.24767778121918568,-0.8435293158959237,-0.7198934613605061,-1.0566115156579488,0.24018531968000212,-0.7051384568814508,-0.4355498245162939,-0.5545527003640025,-0.4723191462654679,undefined,1495442950134
903d185fccf839df,-0.4131136678691483,-0.5622506413599838,-0.38959205731942514,-0.45467912887895634,-1.0704131168278717,-1.7483536515622915,1.9202388914228972,-0.6929718537988416,-0.20888161689137685,-0.812128839583605,-0.06247097265594652,-0.030265072447706022,-0.6389886920677362,-0.56880081976349,-1.0212852044656813,0.4234706125192468,-0.6496064628610543,-0.6228600982690664,-1.0277706617564697,0.33406964401615147,-0.6280446252971088,-0.4375171400758111,-0.6008860486341595,-0.40898612521735345,undefined,1495442951641
903d185fccf839df,-0.6182438430375381,-0.578687002851398,-0.16501225166176448,-0.2173546107240383,-1.2466173930359397,-1.7282639630713312,1.8956791301641025,-0.8523701691548031,-0.28396483363294145,-0.781929540006253,-0.12142221908977398,-0.11139062923394887,-0.7651932932263815,-0.5428774809911938,-1.0181272994388233,0.41942939329581475,-0.6340793293037141,-0.6039309274248221,-1.0378390720452386,0.33226802712400605,-0.6192921830166023,-0.4228964924355307,-0.6189191628458723,-0.41794715207818306,undefined,1495442953137
903d185fccf839df,-0.6459640917491483,-0.3785147423520432,0.26883560845079707,0.2285421735647294,-1.2999178742130555,-1.7279495161696943,1.90661385191842,-0.7583067783907464,-0.4179727666834259,-0.7270150054294748,-0.11931709540394908,0.059148007162912464,-0.8261196524064172,-0.5956500029327682,-0.994969378323423,0.6982733642566546,-0.6390087956642383,-0.6403833507169803,-1.0252727993192343,0.5753478936837022,-0.5867474426330793,-0.44167080480613397,-0.6248164131366171,-0.4172389575618863,undefined,1495442954632
903d185fccf839df,-0.737441090200322,-0.405517432265627,-0.050170305586824344,-0.057311942533279994,-1.3394972341404894,-1.769461217079989,1.8936673090402163,-0.931930961479275,-0.3962074769361833,-0.6934361326137655,-0.0383831756335168,0.002328404732624783,-0.9392686051693405,-0.7011950791928533,-0.9549693056540526,1.48226927177859,-0.35226499421799023,-0.7213563686647007,-0.9997764203683986,1.2103797846693727,-0.4638396492316163,-0.45253290619287484,-0.7837224563554885,-0.35208371109544506,undefined,1495442956177
903d185fccf839df,-0.7180368867725966,-0.5012010523273671,-0.17777246789231338,-0.25665876671272564,-1.3350949545516977,-1.764180831114857,1.8942037878992783,-0.9355324712588374,-0.3576032104622251,-0.7014073995498254,0.011727960876647613,-0.019509844291432345,-0.9131573083778967,-0.6521258830361091,-0.9886535756319408,1.2397963444904418,-0.3908372107938653,-0.6924591464986611,-0.9942139560945809,1.1494019429772084,-0.4670118068984833,-0.461946045627036,-0.820620048161793,-0.34856005472640506,undefined,1495442957649
903d185fccf839df,-0.7901096300379303,-0.5939495097145234,-0.20584494359952096,-0.28148181837901565,-1.3477977896080018,-1.755113103046768,1.8971070909231438,-0.9269494440998791,-0.2837971300377113,-0.6654276494383011,0.008538022911320844,0.07193714471242285,-0.9001016599821747,-0.713230907419713,-1.0212851897412139,0.7548504051199812,-0.5144142096369657,-0.7554782693036852,-1.036740572119777,0.8963284882576557,-0.5634389948963661,-0.4611707989342952,-0.7366972797729833,-0.3617193018300489,undefined,1495442959134
903d185fccf839df,-0.8011977536763611,-0.47772042317451935,-0.22179508681923238,-0.21257098594923798,-1.4215153805807834,-1.6744538775450188,1.862414699537725,-1.0373689383379598,-0.22526984576942463,-0.7626019291457463,-0.017193421844740427,-0.06962470529185531,-0.8696384803921569,-0.7373026027257559,-1.0265483623318992,0.7467680514672819,-0.5566741562518017,-0.8033299922449688,-1.017688256194341,1.1021133115728892,-0.5428093723752276,-0.4689103420618938,-0.6922960192416062,-0.37872316018990954,undefined,1495442960640
903d185fccf839df,-0.8483222403211065,-0.5968845262491457,-0.19436100312897636,-0.28227852154658395,-1.4869529859517319,-1.662712182012199,1.8691890784976861,-0.9905188949426966,-0.23873336971047318,-0.7167402752432404,-0.035134057367703364,-0.02587527138901998,-0.7651932932263815,-0.78914929969651,-1.0339167803997107,1.3044558238006325,-0.4066962769118797,-0.8464763388921333,-1.0132802655622486,1.4508419034813578,-0.48047596957515276,-0.4768900826440399,-0.6738714886750988,-0.3299332456776363,undefined,1495442962140
903d185fccf839df,-0.9397992042668705,-0.582209151296111,-0.2396598978158997,-0.31326788922703264,-1.5130169448318846,-1.6948370498267868,1.9085940986403938,-0.7827971503370609,-0.2674791758365609,-0.7209231511621532,-0.04131738815782337,-0.03195871030551591,-0.7956564728163993,-0.808591805394579,-1.020232559640417,2.1450286873917297,-0.1632921239428493,-0.8666087662722859,-0.9762601383390098,2.0209231411009148,-0.34259259607298065,-0.4798474337837449,-0.6856237568738792,-0.06072926183927546,undefined,1495442963657
903d185fccf839df,-0.8164439172094393,-0.6045157212247236,-0.09164088126763356,-0.23646067751107794,-1.47399300855949,-1.7278586744407993,1.9109714472566601,-0.8031389119432784,-0.3251161752075056,-0.6726665945140894,-0.06574002603604165,0.027297778267125827,-0.8739903631907309,-0.7798909334313366,-1.0286535930845577,1.1892810406019183,-0.43315617070627416,-0.8469323105434623,-0.9898059642696616,1.6112474968522814,-0.4359585901744556,-0.48399214317505507,-0.6589585066438443,-0.040957671625171305,undefined,1495442965141
903d185fccf839df,-0.7887235822343048,-0.5716428228739413,-0.1414059787037237,-0.25272546093757875,-1.3419966613875842,-1.7285923859809007,1.9033765685685202,-0.8183852659333725,-0.3797588626450362,-0.8299645648844265,-0.05594477863541025,0.060213327555845075,-0.7564895276292335,-0.7706326254446486,-1.0212851971034476,1.6398766095070267,-0.371139563496499,-0.8307453064265351,-0.9696201643704976,1.8783643306552043,-0.36086028498400646,-0.4722409978579179,-0.7019016319895003,-0.13721364233279923,undefined,1495442966663
903d185fccf839df,-0.6986326488394614,-0.4747852897279277,-0.07696650553402762,-0.1890372070217675,-1.2171591592744317,-1.7372059127091124,1.874077902515757,-0.9976668014469419,-0.42447700554855705,-0.8136039211618721,-0.05094410360840132,0.1272999055617213,-0.8130640040106952,-0.7724842883370636,-1.0349694178627413,1.5186401175982311,-0.40759046515012703,-0.8117401431261551,-0.9650512467762714,1.926607658528707,-0.337780521347691,-0.47344818486463536,-0.7749706615819628,-0.15484711267007653,undefined,1495442968203
903d185fccf839df,-0.6903166035555767,-0.4219539106690105,-0.09865861898901133,-0.20164379583557668,-1.1755535142636986,-1.8050985781832687,1.8942853269957174,-0.9389355326937335,-0.38776067872079856,-0.768829625549711,-0.05777684989486001,0.03495309167243741,-0.7129706996434938,-0.7771134714696504,-0.9960220231486874,2.5249028704235155,-0.03756345647737218,-0.8138743449682629,-0.9540382665664888,2.433062534036191,-0.20196717115173268,-0.48002757394547757,-0.8526505808504788,-0.09868150429824474,undefined,1495442969656
903d185fccf839df,-0.6875444734429159,-0.4354552556258024,-0.163736484175659,-0.2085441846790466,-1.125678169046092,-1.8091235031965551,1.8799765522084757,-1.0349539838201907,-0.3343609123243288,-0.870083824760971,0.0398804076675622,0.06180830647526496,-0.6607481060606061,-0.7530417955897692,-0.9781272304505698,2.573397388045813,-0.06417357189141916,-0.7712219696609113,-0.9495882948611561,2.4815368413242362,-0.17500270282841043,-0.4975570935998281,-0.908001755621055,-0.12321564126803829,undefined,1495442971141
903d185fccf839df,-0.6376479602017391,-0.4730242739615559,-0.036134321870169975,0.0564831511669197,-1.1772712219981667,-1.8667395663514355,1.8995054884423372,-1.0038094925465395,-0.3413300277628543,-0.6639696646125995,0.0798210442415749,-0.02952307562173193,-0.7913045900178254,-0.6836042299118121,-1.0486536312598014,1.4196304656757388,-0.4279921738602466,-0.7213690368386985,-1.0124896251563171,1.3943450084851632,-0.43296287667887845,-0.47056146001921767,-0.8167627730347301,-0.3746064890492254,undefined,1495442972643
903d185fccf839df,-0.6958606222430299,-0.45600086824402797,-0.03102972710405157,-0.006845758748372572,-1.285425325599466,-1.8509053986911606,1.9304609390573717,-0.7983164660792139,-0.29686394819370643,-0.7437020225203692,0.09806140830291486,-0.04527705378147532,-0.8870460115864528,-0.6271283692346331,-1.0854957952211968,1.3064763556843642,-0.48720758032883443,-0.7068349313648439,-1.0297157735285793,1.5463584611904768,-0.39927289868338567,-0.4728042539731798,-0.8163883751979905,-0.4125256566782069,undefined,1495442974147
903d185fccf839df,-0.6820004892608724,-0.40786553610010107,0.038513324283965235,-0.02598647293183386,-1.2954230210123083,-1.8821521415325206,1.9599200215501347,-0.6352994511232012,-0.334252712203674,-0.6993105522936649,0.06180722397044876,-0.03623748273452519,-0.9218610739750446,-0.6400900483338621,-1.0907589604496484,1.0397559717320164,-0.5852133612221826,-0.7294055423929922,-1.0415403841609634,1.651237276046456,-0.390832485844417,-0.48175822745473246,-0.7973697762338521,-0.3901085019407128,undefined,1495442975630
903d185fccf839df,-0.6875445424537354,-0.5534454017741668,0.04425529451923753,0.03889852473796338,-1.3172081304345908,-1.9141745208843814,1.9432628369837053,-0.8059873264524805,-0.3337097970471901,-0.5679383137939266,0.1180254282325279,-0.09411933783689018,-0.6085255124777184,-0.6780492153330179,-1.0612852440049996,0.8902310159210007,-0.6736326202568916,-0.7308621184920225,-1.0319757439861645,1.783925681305232,-0.356400498006899,-0.4884088016619072,-0.7558589282265264,-0.45605679626719065,undefined,1495442977144
903d185fccf839df,-0.6639822818786579,-0.586905271281082,0.2924418814088378,0.24579710448686243,-1.26221050675948,-1.9390507955607699,1.9622368862580204,-0.6939485757360977,-0.3485789254251831,-0.5450092205739661,0.11943205692890313,-0.22392768037725366,-0.10370710784313725,-0.610463364350574,-1.0886537002480547,0.7952625690895797,-0.7351214946204783,-0.7198237979889915,-1.049292850942643,1.2050519212391138,-0.4996055777542083,-0.4707960815585244,-0.6588652863612018,-0.56412057908408,undefined,1495442978663
903d185fccf839df,-0.5101345987442509,-0.6438458283968298,1.033173068934575,1.0129328806980549,-1.2400551133260944,-1.96406915435224,1.96826177594469,-0.6623680024062926,-0.3892287617084162,-0.32301557666766517,0.1492751856089485,-0.2303754595976194,0.2618510472370767,-0.6724942460819346,-1.0644431416696238,0.6962528323729229,-0.7368520718847903,-0.7471821141493415,-1.0448918568522767,1.0715781913988935,-0.5401261241487689,-0.4741642132646026,-0.616185318903048,-0.6117827662060542,undefined,1495442980226
903d185fccf839df,-0.43944790328254274,-0.6990252674482326,1.4281023966124373,1.4649115547273217,-1.2439636786868393,-2.0150235913135814,1.8830797234381431,-1.2764206436285235,-0.37299162991621587,-0.23247130182211628,0.1238751286520016,-0.3022278149136987,-0.16898534982174687,-0.7095275816348828,-1.057074701515111,0.6497787901049137,-0.7037595371288394,-0.793178284432586,-1.0522035243101602,1.0102615801240018,-0.5758104743242972,-0.481334901682861,-0.5605063829995425,-0.6001909011875936,undefined,1495442981636
903d185fccf839df,-0.5960675957606762,-0.7201578073806025,1.515510004860172,1.5715224399554124,-1.2918641700410514,-1.983113014371411,1.9025613273997466,-1.121257974983706,-0.40093897129602946,-0.1713326639736097,0.10294737731867748,-0.2104277548398137,0.11388703208556152,-0.7697067939984411,-1.0118114893851071,0.4052851896094262,-0.7748800193090712,-0.7954518126523028,-1.026007464008623,0.5589639396783923,-0.6650968192590233,-0.4702661755881479,-0.598859815269758,-0.6420976982058266,undefined,1495442983145
903d185fccf839df,-0.6224018829321853,-0.7571398253322308,1.6029176131079066,1.6142757686216802,-1.2688653550879798,-1.9822535245645443,1.9563277194464905,-0.7539942741078438,-0.3796925583286307,-0.465236940542136,0.09444702542595565,-0.29643400817646826,-0.3822276069518717,-0.7104534195564777,-1.008653591720483,-0.035207352435643186,-0.8814896681250455,-0.7717349385251033,-0.9829211031561121,0.20225894880158224,-0.724940962078822,-0.473689428107785,-0.5676439387689709,-0.6152360169814464,undefined,1495442984637
903d185fccf839df,-0.590523577073223,-0.720157851222591,1.451708669570478,1.4429264474325096,-1.2105454527658335,-1.9512956067102836,1.9526223164147563,-0.7512235521643309,-0.3653436839456547,-0.5283900549412921,0.12730001977867172,-0.2795787864582942,0.44027824197860965,-0.7937784763537095,-0.9749693327859456,0.13856503177485074,-0.8921183381259494,-0.7823869504493398,-0.9777154758883325,0.31585328033380805,-0.7014713172070175,-0.4582583555856625,-0.5566325473305214,-0.5776524311872767,undefined,1495442986226
903d185fccf839df,-0.5822074627785188,-0.7923607544475064,1.1212185609253627,1.0646594147238886,-1.089853086433151,-1.9276678033739838,1.9431760560882096,-0.7740448217641592,-0.30886883281481436,-0.6886656249749785,0.07533331394609613,-0.272710231521694,0.379351882798574,-0.7363767712795484,-0.966548291979571,0.34062571029923566,-0.7981728028087415,-0.7516785063749563,-0.9676050840553099,0.6199109840892572,-0.614963658613051,-0.44504812519184495,-0.4525456243799514,-0.543964758482911,undefined,1495442987673
903d185fccf839df,-0.4616242023175191,-0.716048717007749,0.6969414983280863,0.68457787263441,-1.0257423344137568,-1.8624374587267678,1.983546201008053,-0.41909215129684196,-0.2786752970490996,-0.9102056762719191,0.014743665933100034,-0.2203062942767419,-0.3778757241532977,-0.6697167323171502,-0.9570745548122955,0.6901908975450691,-0.700428771607672,-0.6853282559873672,-0.9595727451811186,0.9059833119100753,-0.521019303921938,-0.4470882922538092,-0.3710232833769688,-0.5410951789242472,undefined,1495442989150
903d185fccf839df,-0.4103415722618973,-0.7348331969476334,0.6006017387189674,0.6102802420985519,-0.9974258118212056,-1.8291992149819225,1.9671861742815586,-0.480904152334838,-0.2718726075122895,-0.9113866323548231,0.058741235270660455,-0.02597016448614495,-0.5998217468805704,-0.6336092217350222,-0.9433903414152356,0.7750564588400589,-0.6919999600008953,-0.6647271902878612,-0.9563192281907513,0.890107514251085,-0.5147824068170378,-0.44424648161534885,-0.36851981979163256,-0.5310873805065048,undefined,1495442991148
903d185fccf839df,-0.3909373515814671,-0.6385626787997412,0.5214878898156653,0.47140078314928135,-1.0049446567264226,-1.816600360460704,1.919889115515732,-0.7595393265231781,-0.2782170304769563,-0.881018018012912,-0.003405823937546661,0.010814822642118242,-0.7651932932263815,-0.626202524837651,-0.9633903795904792,0.7205000063899073,-0.7138355214505788,-0.645525705500942,-0.9516873396473076,0.8977143470823643,-0.5047852548860637,-0.4596814024314386,-0.3968866231838938,-0.5275018890221022,undefined,1495442993077
903d185fccf839df,-0.41449961215654463,-0.6168430946412575,0.34348274633103343,0.26353359183042774,-0.9544624561637496,-1.825498054144263,1.967535943903593,-0.44398791948026434,-0.2771980545924245,-0.9902862042655477,-0.008339808477617148,0.028212793184775965,-0.8043602384135473,-0.6289800191762737,-0.9381271982734853,0.7407062014335927,-0.6154421365619047,-0.6513963439521477,-0.941499982937461,0.9984971723802245,-0.48344840582061716,-0.45101128201869173,-0.37033467494862277,-0.4747495471356557,undefined,1495442994119
903d185fccf839df,-0.18442130113650052,-0.5188115022710088,0.18015197858000748,0.0870238581552362,-0.7931107293359743,-1.8438268376143723,1.9088071205773625,-0.7973560029446248,-0.36714669275277706,-1.0133739998145819,-0.011300158638285894,-0.638153136281846,-0.7347301136363636,-0.6132408522138093,-0.9602324524769198,0.902354715988379,-0.5962058094381867,-0.6352156729062413,-0.9524989697640557,1.1698510761739729,-0.4413114741183587,-0.44671593514484587,-0.331244756367492,-0.5083060060737765,undefined,1495442995877
903d185fccf839df,-0.31332053787056546,-0.32568336329312597,0.03596128103785545,-0.0022181230031549865,-0.9618681581674825,-1.7774831161380937,1.8478639870219151,-1.13389956249688,-0.4274485056485664,-0.9183535748873456,-0.021546954209307138,0.12772330322268308,-0.8826941287878788,-0.6326833449611037,-0.9244429480652564,0.9245814146510747,-0.4716655519433095,-0.6489328286457123,-0.9287168094107181,1.157640107952319,-0.44872288893768203,-0.45146983584122347,-0.2624379931666296,-0.4955852736233917,undefined,1495442997207
903d185fccf839df,-0.24679186505079964,-0.3867329815537349,0.0563776270067337,0.04002744876516302,-0.9782532738358374,-1.7913187982319865,1.857362843417735,-1.0854019270619786,-0.377571858511799,-0.915595269118435,-0.0296386431853527,0.09338095131502762,-0.9044535427807487,-0.6345350531812297,-0.9507587889319823,0.9953027157302329,-0.4981012574577841,-0.6156785407424006,-0.9439348728900961,1.1565468188775871,-0.4391719163547797,-0.45354672618949465,-0.3125698145076781,-0.46880652552118884,undefined,1495442998635
903d185fccf839df,-0.42420180876028407,-0.40845250725623394,0.3154107788977247,0.2768496269841948,-1.0865308066978319,-1.832737329301751,1.8757820057325034,-1.0283013864095167,-0.4062736282892827,-0.8155602203519979,-0.03495845931222374,-0.007478889123631986,-0.6128773952762924,-0.6076858052580787,-0.979179882638068,1.0336942347572136,-0.4776902115100702,-0.5574281253957092,-0.9583273124046415,1.0880237349722859,-0.43551790128737333,-0.45066649145714216,-0.3558248620893398,-0.39129509950602404,undefined,1495443000134
903d185fccf839df,-0.4560800973665415,-0.5464012364107064,0.5521129170428816,0.45266583152532713,-1.1426187106300751,-1.8209327457484081,1.922484732058111,-0.7303680071426945,-0.382875247009424,-0.862563544984534,-0.021260859049583296,0.11958580943129009,-0.6433405748663101,-0.6447192444172234,-0.9823377950271598,0.17291523265187395,-0.7319005679373298,-0.5830258840608541,-0.9540032828424266,0.5629521432281805,-0.5586772617778273,-0.4621756493826133,-0.41435635940852933,-0.436455611698983,undefined,1495443001611
903d185fccf839df,-0.4616242023175191,-0.6567601729694965,0.6012391141881213,0.4861642433938953,-1.067749120540712,-1.8705338956270556,1.9430919013298509,-0.6797415315412049,-0.2771555001528715,-0.785291775819645,0.002865968888859071,-0.03389205710986514,-0.6433405748663101,-0.5910208262755687,-0.9739166879606812,0.2678838773363457,-0.7379915895463734,-0.5968633650325756,-0.9500850693142571,0.6031882727923085,-0.5545229096615608,-0.4409431279485653,-0.49047517236205995,-0.4315407375207248,undefined,1495443003107
903d185fccf839df,-0.39925346587617133,-0.6103859296619223,0.6924752955789194,0.5308038388579519,-1.058810850268401,-1.8596493617862966,1.9319336342346223,-0.7235675144400399,-0.30913604529369965,-0.6711005220704933,-0.06520136934246652,0.0024621219701494493,-0.6085255124777184,-0.5206574550529531,-0.9581272290864952,0.34062576682867873,-0.7281706253976333,-0.5737544528284692,-0.9414580016256554,0.6199725781941378,-0.5362097672763555,-0.42104424594782164,-0.5122233539865136,-0.4489676816998098,undefined,1495443004625
903d185fccf839df,-0.525380779530034,-0.4947437996640549,0.7371357982488912,0.6159151338967989,-1.0460771571547298,-1.8122283808158466,1.9203519703530296,-0.7418979534800625,-0.31189508936976407,-0.7375547267752096,-0.04562002808705003,-0.04344022648745058,-0.5432472704991087,-0.5095474388461393,-0.992864096035128,0.2072656031172264,-0.756239693925961,-0.537295696088797,-0.9766379671173142,0.3284184119256763,-0.5909278981889223,-0.42084797227707027,-0.5324903608076424,-0.4560224275012384,undefined,1495443006121
903d185fccf839df,-0.5891374947641878,-0.4295851348725809,0.6031532736911783,0.45997156545935297,-1.1222221697718462,-1.7839770387868625,1.9791465392896122,-0.3173387412806813,-0.3118269870998465,-0.8541101888117715,-0.07294467775881736,0.07049899550429257,-0.6085255124777184,-0.4567749751830503,-0.9886535756319408,0.09209098950684153,-0.7722627436286763,-0.5505378828241967,-0.9967677921746751,0.21289927464535313,-0.6225304849603515,-0.3996205335421153,-0.5078857593012448,-0.4600227476745993,undefined,1495443007612
903d185fccf839df,-0.8303040156861871,-0.41490970146356154,0.3741072652843508,0.3562080354117429,-1.2264574256122214,-1.8220344777789677,1.9635991202621017,-0.4968688704916775,-0.3769208250166587,-0.8791812536574625,0.004478501904103541,-0.04040732102487623,-0.5954698640819964,-0.45584908545835734,-0.9823377803026923,0.36891434378978505,-0.5643018152413327,-0.6040132588596012,-0.9899179145649736,0.7042944693755349,-0.5277995206809324,-0.4240057171793209,-0.598936672178135,-0.4287888513700957,undefined,1495443009134
903d185fccf839df,-0.5655752341891103,-0.45541382401791425,-0.12609371922706503,-0.18507788559870172,-1.1397798572752047,-1.890756350586267,1.9723379650282105,-0.5209252034495685,-0.41393416851887,-0.7309526633790423,0.0019260453471627525,0.05159233949866766,-0.7390819964349377,-0.572504190876031,-1.0054957235047939,0.985199688870194,-0.38571683442929405,-0.633714763538333,-1.0124126615090225,1.125657526636725,-0.4461741129725752,-0.40730312238988337,-0.7302679062384924,-0.5352743897328034,undefined,1495443010665
903d185fccf839df,-0.5198367608425807,-0.7477475853622886,-0.06994825953875101,-0.10931437872498803,-1.0400085937714787,-1.9452745232782096,1.9680671600131625,-0.6007003733343724,-0.3838891803413829,-0.5934771372214832,0.04175053096430873,0.07304169306783485,-0.9044535427807487,-0.62898005155321,-1.019179936901854,0.6315933530627323,-0.4838448777972969,-0.6734413206218526,-1.0211516778046275,0.9274949330365893,-0.5059748465254531,-0.4166514945414877,-0.7461948881977706,-0.5594327007093189,undefined,1495443012117
903d185fccf839df,-0.3756912743119133,-0.8211245185834467,0.16164979211418629,0.09197541464416531,-0.8609037493621362,-2.027864687674326,1.97546480396529,-0.6085138886482868,-0.2878905844130065,-0.5544992507835582,0.06721506898704854,0.06485376244467235,-0.7347301136363636,-0.6761975653913774,-1.0181272883954726,0.42145006650315425,-0.61878784958895,-0.711375653205137,-1.0354391661164013,0.9258164989962057,-0.5266051458790205,-0.44438126874679207,-0.7817706510270437,-0.5552615813601453,undefined,1495443013637
903d185fccf839df,-0.5655751996837005,-0.673196563688903,0.43918462219709964,0.42299535731186894,-1.0221114777197087,-1.9886938728117627,1.944593512298701,-0.8032322785150767,-0.3428705405115885,-0.49147752873838874,0.006659458959727557,-0.036385438833386095,-0.673803754456328,-0.6845300419318578,-1.0265483549696655,0.417408861412083,-0.6266980549267285,-0.7209003990896214,-1.0264622576270492,0.8801601075344637,-0.5379818230677109,-0.45345559240578,-0.7807330501284081,-0.5667732865809207,undefined,1495443015126
903d185fccf839df,-0.5253808140354437,-0.5358349518305252,0.47491322764263655,0.4486922977386451,-1.1470004141395698,-1.9237803045242134,1.9506657342576295,-0.7011098280887985,-0.40730577144986646,-0.6094119201652743,0.02996867498880971,-0.031079651480907928,-0.6999150512477719,-0.6937884146724186,-1.0433904733935835,0.38912045403930584,-0.692938140671464,-0.7300894998118506,-1.0329063202303717,0.9957716372644896,-0.5197349721857973,-0.4627355168326182,-0.7973472623745413,-0.5753942411762845,undefined,1495443016619
903d185fccf839df,-0.7014046754358929,-0.21297639596984255,0.2177942352547026,0.22354638748216177,-1.267394499997371,-1.785267436812509,1.889814662155041,-0.9370711533003786,-0.38407241229389605,-0.6868063913824549,0.01853128931883703,-0.09078142120585452,-0.8130640040106952,-0.653051701531542,-1.0412852205542236,-0.053392761213102984,-0.9023307928543979,-0.712895558480718,-1.0281694801293668,0.1547547479115166,-0.7208734300983186,-0.44963546438859975,-0.7307135218171537,-0.5465936325084049,undefined,1495443018131
903d185fccf839df,-0.5101345987442509,-0.2728519257782241,0.22991656774219876,0.1657871259158945,-1.0809559552660346,-1.7371290482765571,1.8894464865275653,-0.8294039623124037,-0.4159471242005249,-0.6314958175713502,-0.08151005164740444,-0.005093233384792561,-0.9653799019607844,-0.5345449720737769,-1.0233904573050412,0.15472982387441417,-0.7864640871208844,-0.6220621469670751,-0.9816756724716701,0.40288529715986204,-0.6185442347275066,-0.4286453307730878,-0.6197566148967809,-0.35375883923337403,undefined,1495443019604
903d185fccf839df,-0.6459641435072628,-0.6426716961026139,-0.4138367222944175,-0.511404511427538,-1.0548817115230609,-1.5868511926208273,1.8403611561688509,-0.9671035604082363,-0.45785873149823725,-0.5102691049857737,-0.05776168964139857,-0.07027744186344212,-0.9523242535650625,-0.6252766998668308,-1.0033904485787326,0.6497788466343568,-0.7160670568608658,-0.6699328684680942,-0.9389391518816083,0.9855470800964551,-0.4975163897045648,-0.45452574447805943,-0.7472791088258209,-0.2716066196201618,undefined,1495443021110
903d185fccf839df,-0.6376480637179683,-0.701373312826722,-0.3991623465608115,-0.4870646030946046,-1.2009900373123394,-1.526079011270309,1.8218788838085636,-1.0257078153452084,-0.4596855698766253,-0.5916101840110438,-0.008201793522232147,-0.08172771202946802,-0.8304715352049912,-0.6512000580652888,-1.0497062908095334,0.4275119165368434,-0.7245996128128299,-0.7139594928136631,-0.9596287212035144,1.1407788104174943,-0.4919071884867262,-0.4425804762188998,-0.7100754676094677,-0.2636209923662904,undefined,1495443022677
903d185fccf839df,-0.7942677044379873,-0.6931551028530225,-0.2907007627380953,-0.3696176118844047,-1.4356993586113043,-1.5272972032983452,1.8205587224698137,-1.0857280962352303,-0.3072028217074248,-0.7563622204522851,0.02488264704233227,0.008178356973568775,-0.5911179812834225,-0.6734200645773676,-1.0233904499428075,0.5507690533882569,-0.6340080310753422,-0.7300451692337921,-0.9637008650358674,1.103114213098199,-0.5099779133751153,-0.4357748501538742,-0.6338529454234257,-0.23846537642491536,undefined,1495443024121
903d185fccf839df,-0.8122858773147921,-0.413148714925182,0.1380430108822467,0.12510296946115804,-1.39644913852846,-1.6501995106064382,1.8941143955319502,-0.732132356598867,-0.442192008784731,-0.8212180701106625,-0.05756281125914498,0.014656479657526937,-0.7260263480392157,-0.6604583984289131,-1.0118115114718087,0.863963281755563,-0.5485360710055553,-0.7135668493312117,-0.9702778672782952,0.9685779933358079,-0.5305648361905242,-0.44048671673999945,-0.5992443736173254,-0.20582309613797667,undefined,1495443025613
903d185fccf839df,-0.8400061432791072,-0.3656003831653803,0.5431807656814973,0.5191297407260098,-1.401190845357323,-1.751295481629946,1.8872085295413723,-0.9153571619478008,-0.3940191030330395,-0.8788756401685645,-0.12050578650278382,0.015475591975771297,-0.7260263480392157,-0.676197578342152,-1.0676010246097805,0.5002537777644549,-0.6456170357304496,-0.7517101696870301,-1.0297227716056878,0.4821564996888066,-0.662820571943851,-0.4679275533186646,-0.6736736909927713,-0.30751598048140055,undefined,1495443027118
903d185fccf839df,-0.8206019571040866,-0.37792778580990644,0.5489224817798202,0.5260339389585451,-1.3747771730419311,-1.7722073912653598,1.9022983543860343,-0.8376882592439918,-0.4309440668793008,-0.8897483197150244,-0.11585696138924843,0.00143299364594423,-0.8826941287878788,-0.6567550467425339,-1.1033905584703791,0.32648153487756865,-0.772612217379663,-0.7029021729591535,-1.0867047987247043,0.12897775222685462,-0.7378405055398418,-0.4617413585563731,-0.5276717930080164,-0.5085384444537498,undefined,1495443028621
903d185fccf839df,-0.8164439172094393,-0.4783073504886637,0.6439864739028336,0.5751554712785228,-1.4297439397599616,-1.743452932235233,1.9082338265648529,-0.7643483379527675,-0.39672165169738577,-0.7821661056513037,-0.17599732221544778,-0.049004222687950204,-0.8000083556149733,-0.5373224469862378,-1.0128641268481378,0.9670141670338481,-0.3060524921421116,-0.5938298832892018,-1.0082425612967296,0.6273792380734687,-0.568228947318654,-0.4415428317477015,-0.2745952055948168,-0.1520624137920554,undefined,1495443030128
903d185fccf839df,-0.7693193960592842,-0.49767896233863884,0.4844835168840229,0.4192722627238538,-1.4149839662042005,-1.7537784492000894,1.8892413639524448,-0.914075600933675,-0.3564664541202247,-0.772385008341079,-0.17478990974013936,-0.013383689014529009,-0.6128773952762924,-0.5095474517969137,-0.9865483007058795,1.126642319293232,-0.1878488692289881,-0.5566048405085184,-0.9897779775094028,0.7609299532616799,-0.5182381874534695,-0.43920601980658613,-0.2738395532864213,-0.17314006012191918,undefined,1495443032503
903d185fccf839df,-0.7166508389689711,-0.5287907864670647,0.4589630844229251,0.36826533491293656,-1.3824914496177716,-1.7482581522582954,1.8540308881906653,-1.1411312190748841,-0.3676148158598261,-0.7632885664843201,-0.14186772421482716,-0.024845213483388702,-0.5998217468805704,-0.529915782465803,-0.9707587976582908,1.1306835243843032,-0.20079405199056752,-0.5360797697677211,-0.9851320953136203,0.75298435584219,-0.5082339867635628,-0.4413579142155612,-0.30100379630718416,-0.18401063499236978,undefined,1495443032840
903d185fccf839df,-0.754073249778911,-0.5393570272052574,0.3217906328760497,0.13771250226294046,-1.3379440966884104,-1.7612949034063592,1.9336430002008613,-0.62861604775609,-0.33927744860789205,-0.7391606601959465,-0.19221911798754382,-0.06721231669596996,-0.49102467691622104,-0.4817724566075899,-0.9676009036747834,1.1104774706642255,-0.18332445658176813,-0.4927117717860677,-0.9804512289839327,0.7634552988533634,-0.48676781906071637,-0.4423195573108945,-0.32303712358975545,-0.1847893671636574,undefined,1495443034335
903d185fccf839df,-0.6293318804124446,-0.4436734363715095,0.5182979628265028,0.5473945002457741,-1.1408392826577989,-1.744703731840986,1.8745933314243703,-0.9269933827275253,-0.4238585415885744,-0.9623054619679492,-0.16666575299089403,-0.09548535607013378,-0.499728442513369,-0.455849124310681,-0.9528640564958096,1.0437972616172524,-0.17907481548610876,-0.4471525750927165,-0.9719710936508644,0.8606040926144523,-0.4425582868902039,-0.4539821253797628,-0.3844707506024973,-0.19826757404390585,undefined,1495443035844
903d185fccf839df,-0.6404200213035803,-0.37029656160633606,0.5425426278014951,0.46459929886124407,-1.075339964252919,-1.7871331543721627,1.8481006630485122,-1.1571004322596157,-0.4132153844570883,-1.079605962407103,-0.12928575392073338,0.062001484657326765,-0.5911179812834225,-0.46510742582198167,-0.9254956002527546,1.1731162202376335,-0.2086109397970839,-0.4359179329481198,-0.9585022325542173,1.1441356723863725,-0.37620218735146044,-0.45456806580612974,-0.5043929703439625,-0.2296264355258457,undefined,1495443037380
903d185fccf839df,-0.6667542739696797,-0.30455076490477134,0.7352216387458341,0.7039645187818285,-1.1022370610402619,-1.7762043637717004,1.8884445183138936,-0.8853022989493635,-0.4735247389881875,-1.0522314629169243,-0.0636409267620582,0.008263738100353689,-0.669451871657754,-0.46881079045913543,-0.9044429319767141,1.1064361807789895,-0.3152578664265023,-0.45023671815976973,-0.9567600266948612,1.3361850808557398,-0.34067258415513374,-0.4519533847751918,-0.5369536254529041,-0.24889543630127084,undefined,1495443038831
903d185fccf839df,-0.5267668618390692,-0.4788943947147774,0.7505341523594422,0.7046593881732995,-1.0626062723375598,-1.8721433980370226,1.9541896677563495,-0.5926010386973838,-0.43996388683864635,-0.7854050120988209,-0.03162985670152916,-0.009092502571234425,-0.6650999888591801,-0.44010994439744217,-0.8644429145240972,0.7467679384083957,-0.4678547436530588,-0.45166796457141356,-0.9466916157209814,1.0158204225918597,-0.40943052256497686,-0.4419497220126796,-0.5664104872968376,-0.24622891428167995,undefined,1495443040342
903d185fccf839df,-0.47548433529967665,-0.5035490830918604,0.6841812820975374,0.6231767575646294,-0.9821824054133105,-1.887746972380604,1.9352471834562508,-0.7346724029509244,-0.4176876475467575,-0.37021932361798443,-0.05880216690822776,-0.05045882704590704,-0.5519510360962567,-0.4493682329579683,-0.9791798679136005,0.5851193673241663,-0.5916806642223479,-0.48767708320139413,-1.0070321123788901,0.7558946597025585,-0.49350264685018796,-0.42134106729238535,-0.494757786034293,-0.40409120127080517,undefined,1495443041833
903d185fccf839df,-0.4436059949353046,-0.579274076305504,0.4442887086893192,0.377639613165826,-1.0365731721609426,-1.8385697440803792,1.909275228736457,-0.8676434163608914,-0.42493202211068953,-0.3976288713223385,-0.057018332459987636,-0.10067736526711209,-0.4649133801247772,-0.47529160410720084,-0.9886535535452393,0.9205402943541681,-0.3922901381192936,-0.5086391268842949,-1.00134370470184,1.3194931640264684,-0.3768799481356946,-0.43405443978147124,-0.46985906119326293,-0.38072064465856437,undefined,1495443043334
903d185fccf839df,-0.5045906145622074,-0.15955794345681928,-0.06739672456654007,-0.1816710487813357,-1.059777702407136,-1.5676396278744875,1.8340732966110342,-0.8634641020159817,-0.18084653628783168,-0.6482328883267681,-0.14399094781549143,-0.11439277764444217,-0.8826941287878788,-0.5243607678870087,-0.9497061514689517,0.6235109711453114,-0.49712996963022343,-0.5443885939044159,-0.9372529175608421,1.4689042777820331,-0.3520296513131333,-0.4380399491228989,-0.47835433173151604,-0.4137708340559846,undefined,1495443044821
903d185fccf839df,-0.562803173087269,-0.46187107668122657,-0.2900623707211437,-0.391764731573282,-1.0535959991791966,-1.341847837284995,1.7726620548964924,-0.8808895626967387,-0.08600504760229409,-0.7137565289020698,-0.03447569787916467,-0.06081457805251983,-0.7956564728163993,-0.6604583854781386,-0.9644430244157436,0.9831790156628546,-0.3817897486275094,-0.6152668982351335,-0.9598106359495905,1.0169753039809848,-0.48488408759156687,-0.4161702085803538,-0.3177123316923604,-0.3252657672912732,undefined,1495443046322
903d185fccf839df,-0.6695264040823403,-0.6209521411721225,-0.0520844650898814,-0.15010227274657892,-1.2018746107185494,-1.4429275023161239,1.8269202081444376,-0.7733325957776662,-0.25443037780780353,-0.6938431159081199,-0.04168964027094064,-0.04432089179432056,-0.7303782308377896,-0.6854559057550018,-0.9749693475104132,1.0640034566609378,-0.4427292114345591,-0.6764937972153958,-1.0050240280610099,0.7563104215394421,-0.57356199134102,-0.4070944457174649,-0.40192296006784345,-0.27074972295374794,undefined,1495443047841
903d185fccf839df,-0.7485291620806382,-0.6497159345360553,-0.06675884082348735,-0.1722864649963363,-1.233636842309115,-1.5152224312230906,1.8500625037650449,-0.7974310567165016,-0.3002986275451824,-0.6500943955597744,-0.017402586423999996,0.0030598913146094005,-0.9131573083778967,-0.6854559057550018,-1.0444431182188478,0.5851192966623624,-0.6351234829497912,-0.7046753959707568,-1.0350823278074293,0.32800266141059514,-0.6888800125836648,-0.430703177876824,-0.5090814585828576,-0.3632229423253603,undefined,1495443049328
903d185fccf839df,-0.7208088271055038,-0.5552064613825272,-0.07632862179097488,-0.08980386193318804,-1.181910071696603,-1.4554727855326803,1.8250740903030451,-0.8289370872465643,-0.30353585391062,-0.5360414425024024,-0.06354467712410179,0.055004166405873536,-0.8609347147950089,-0.7178600840769124,-1.1423379679089007,-0.14634070442551372,-0.9019493904711956,-0.7634007825140391,-1.0977527627931245,-0.1515973229634346,-0.8276922358615046,-0.45837898145367045,-0.6217417890638249,-0.481018387643162,undefined,1495443050887
903d185fccf839df,-0.5170646997407394,-0.488873649682841,-0.11652342998567863,-0.22957296333663274,-1.112533042739499,-1.455961923901056,1.8281877786515242,-0.7850834055909726,-0.34293971901728426,-0.5438506299456717,-0.052027988202349315,0.021484218269519656,-0.8043602384135473,-0.7400800841136039,-1.1654958963865347,-0.3807312215315193,-0.9239713622342854,-0.764002412036048,-1.1123201228670887,-0.3185626668971325,-0.8641306010508752,-0.4546191030036002,-0.640512788809076,-0.5115863945410963,undefined,1495443052334
903d185fccf839df,-0.48241436728534565,-0.4918087831294326,-0.01125126487822606,-0.1098400756928249,-1.0893387976682083,-1.4910542418694213,1.856947339708088,-0.647720540157168,-0.3449782310964348,-0.6324225624590106,-0.08661281412342635,-0.0022510037772293283,-0.8130640040106952,-0.7308217437499795,-1.168653794051159,-0.41508153546742865,-0.943836367570462,-0.7635907717434474,-1.122073677590083,-0.3572281636954664,-0.8719958857710839,-0.4609780245876111,-0.6341070971920096,-0.5116397117979969,undefined,1495443053838
903d185fccf839df,-0.5212227396353868,-0.47067618474107803,-0.03102972710405157,-0.09083472533374895,-1.2397054016873235,-1.5661931699654776,1.8793716858890974,-0.6794579673905015,-0.3737787890735518,-0.6540575732527588,-0.0730444902947962,-0.027917931924201323,-0.843527183600713,-0.7354509204071791,-1.1602327237958492,-0.24535046940689212,-0.859758331955611,-0.778618846320302,-1.121625882012063,-0.18445760436112668,-0.8390235158209722,-0.47747070332613956,-0.6692261218937579,-0.4861603780735409,undefined,1495443055333
903d185fccf839df,-0.596067630266086,-0.5845572697445812,-0.20329290035341116,-0.25348797502765874,-1.2191957242932683,-1.547407856429552,1.8881157965472644,-0.5985886051157663,-0.2734887809164533,-0.7663386818978143,-0.07721782683560283,-0.01483240185822153,-0.852230949197861,-0.7187859284738944,-1.0002325398707577,1.0640034001314946,-0.3640341103851738,-0.7691194319945972,-0.9875389982062608,0.4965540419269947,-0.6533265527875756,-0.47241814879773164,-0.5828083579334336,0.07819222390005562,undefined,1495443056835
903d185fccf839df,-0.5170646824880346,-0.5434661614200994,-0.25497215729255834,-0.36021205467106093,-1.2340688413826781,-1.4719009105186114,1.8513511116523185,-0.6937860357027459,-0.25949127797260174,-0.6350481491972507,-0.04126394261666129,0.007440513120496233,-0.7869527072192514,-0.7002692347958712,-0.9928641033973618,1.3751769411591006,-0.303677172724755,-0.762108864129931,-0.9959491645986419,0.4627698508408172,-0.6561027158925996,-0.4776112075698877,-0.5831336983521385,0.10975805784594982,undefined,1495443058328
903d185fccf839df,-0.39509539147611433,-0.4518917048011936,0.059567553995896215,-0.015426258626092317,-0.9578155895392851,-1.383403796437295,1.7866947102715085,-0.8400411975476954,-0.31443294249273696,-0.23642647332945443,-0.05592551294506421,-0.005606315392006051,-0.843527183600713,-0.6141666836600169,-0.9854956779673165,1.3347647771895021,-0.19279953564964383,-0.6627639769727364,-0.9899389042574391,0.5267965856737081,-0.5858249643869275,-0.4879660632389817,-0.683252711649489,0.08587324983259498,undefined,1495443059845
