UUID,iqrAccX,iqrAccY,iqrAccZ,iqrAccXYZ,meanAccX,meanAccY,meanAccZ,meanAccXYZ, covarianceAccXY, covarianceAccXZ, covarianceAccYZ,pressureDerivative, pressureIQR, iqrGyroX, iqrGyroY, iqrGyroZ, iqrGyroMagnitude, meanGyroX, meanGyroY, meanGyroZ, meanGyroMagnitude, covarianceGyroXY, covarianceGyroXZ, covarianceGyroYZ, class, timestamp 
903d185fccf839df,-0.6494291681264498,-0.6344535445848991,-0.670955460545402,-0.6232796364835491,-1.296956888698836,-1.3850148958395532,1.7752833099275989,-0.9468120768300383,0.0658654144844549,-0.6446117773355097,-0.09465001370665627,-0.5898091372472969,-0.39528325534759357,-0.22809395395567705,-0.7370743483893956,-0.2736389898385554,-0.4902324209772952,-0.3699099914274684,-0.6384599994987226,0.18887930747271034,-0.3788620045585494,-0.39257367240803664,-1.0498182053705845,-0.6456214691041229,undefined,1498057232621
903d185fccf839df,-0.6348759336053076,-0.3749926231353225,-0.3698141033674985,-0.45772788363303035,-0.9330088635413187,-1.3856310842305293,1.7770900334658017,-0.8768944377943503,-0.37288181510633434,-0.6048905204964571,0.04773602396418679,-1.1076862780569705,2.139688474821747,-0.5613941681938297,-0.7960217444675242,-0.27565964891353406,-0.7564068578148971,-0.5778791573048706,-0.817179924374876,-0.11229272122556752,-0.6269191718896583,-0.39324945216021956,-0.7612842992933241,-0.48761297753629895,undefined,1498057234036
903d185fccf839df,-0.45885210671026816,-0.4002343265105268,-0.07505285430486942,-0.1960920656799317,-0.7506332124870785,-1.450908727817371,1.7725721495339746,-0.9766391735379346,-0.5719496798631394,-0.31364713376101,0.044437861079504946,-0.6471470327874783,3.3930307208110517,-0.6317575264656707,-0.873916570706801,-0.2291855925131641,-0.7920360811458108,-0.5660458709441156,-0.8947120202131676,-0.0834250369697238,-0.6524006196662414,-0.414376920702126,-0.7011097299497019,-0.5053522391600394,undefined,1498057235552
903d185fccf839df,-0.32995276645997396,-0.3808627731165364,0.1329389243900271,0.20490102039449606,-0.618089303548096,-1.5380256795897327,1.790786670843158,-0.981659207300694,-0.6375676895356354,-0.3664356969476537,-0.0000019995114759690505,-0.5166431266163656,1.0277824197860963,-0.5826883497350883,-0.8949692389828414,-0.04935155612203175,-0.7358669437086925,-0.5431856971309396,-0.8859914372892539,0.06101328290868539,-0.61080494281567,-0.40669027904902494,-0.660604554054757,-0.4344802453961542,undefined,1498057237084
903d185fccf839df,-0.2412477773525269,-0.45952289977677163,0.1903601515644466,0.06139763283428153,-0.43148618743208356,-1.6581561918652472,1.8373289786337226,-0.893702018659279,-0.6210527513374103,-0.38304109361625177,0.006250164585974381,-0.19484128529544462,-1.02630626114082,-0.6076858700119515,-0.9286534831929112,0.1911007544882199,-0.7821361404822095,-0.5844039402917702,-0.9027816311813773,0.27836976167481176,-0.5940665075082396,-0.4187665182373575,-0.7060898562617172,-0.4694940457422274,undefined,1498057238572
903d185fccf839df,-0.18164927454006902,-0.43134617986694507,0.19546423805666616,0.12225660055680461,-0.17542376701132356,-1.645827528729067,1.8476693794705616,-0.7136510109889115,-0.28270052947677143,-0.5308763791137413,-0.05818220562336208,0.01967769217285638,-0.9523242535650625,-0.5826883367843138,-0.909706089842932,0.15877105723020693,-0.714615003903968,-0.6120244315650721,-0.8934878658147282,0.24816171860795683,-0.6152896254809826,-0.43473822694276243,-0.6202370621196119,-0.43214004045837057,undefined,1498057240048
903d185fccf839df,-0.2564939236329002,-0.34035873824616064,0.5884794062314712,0.4906941133118751,0.0802169488832169,-1.6282557490353966,1.7726304962074069,-1.0937615742727533,-0.2657430760785623,-0.2576376824428451,-0.002281976214774161,-0.11611620284966187,-0.8174158868092692,-0.46973661542995565,-0.9676009294426017,0.14664738542755015,-0.6978023796876208,-0.5105200087480306,-0.9175848818622981,0.3121884548005407,-0.56639558486189,-0.42620106526527596,-0.5907722382169779,-0.4213109747946715,undefined,1498057241543
903d185fccf839df,-0.08185611003607643,-0.3321405282724612,0.8162493930152438,0.9284504239896704,0.3186394109161375,-1.6343606845393057,1.7775929431997202,-0.955556914988194,-0.22798203546531226,-0.10841810072963462,-0.031458012548145065,-0.03172277180291003,-0.6346368092691622,-0.3225290204843355,-0.9591798518250582,0.2678839338657888,-0.6227987032136203,-0.43463867693558356,-0.890850066633892,0.42488967614686185,-0.4968497213295695,-0.4492270892926959,-0.6098926692593543,-0.4278837301154202,undefined,1498057243062
903d185fccf839df,-0.1317525887718435,-0.3503380516702089,0.9712858931479382,1.1263238661736847,0.3302313984503074,-1.6663947119532716,1.8076279610311958,-0.8064512560714171,-0.35345631396667826,0.18137636681879976,-0.03824408507441707,-0.0362685398473647,-0.8391753008021391,-0.29845733812906716,-0.9412850885758758,0.12037956646794787,-0.6804065261992512,-0.4440937606555465,-0.9061450947087093,0.28189970887863547,-0.5306758936296716,-0.47202980160251634,-0.6022965504685767,-0.46297013313531504,undefined,1498057244529
903d185fccf839df,0.0706056288109342,-0.4295851348725809,1.0197749689609734,1.082674871735023,0.4907705592510956,-1.631668083854869,1.74447054552962,-1.0812890035048903,-0.3038887073268135,0.603186342000705,-0.09051472101690937,0.15627242839708988,-0.7913045900178254,-0.2512397854385761,-0.9233903253266933,0.04157581280956492,-0.6621038259987069,-0.3929235762183727,-0.8973291129551595,0.06204070401574247,-0.5450951125533275,-0.5003653526416539,-0.5512673479410866,-0.4356536736107394,undefined,1498057246039
903d185fccf839df,0.2549455354952682,-0.4882866346847196,1.3700435398319144,1.2439817886332152,0.6098892047124899,-1.5866042941181422,1.8202378880185315,-0.4753569745966282,-0.1944597632824009,0.585361233106847,-0.07307298752393583,0.008415531542476465,-0.5084322081105169,-0.3410456753100351,-0.969706167557494,0.10219408702868422,-0.7420323665020552,-0.3991045312739271,-0.9316904523939336,0.08972710976282885,-0.558619885186516,-0.5194441082710313,-0.53695148037329,-0.434225381749736,undefined,1498057247534
903d185fccf839df,0.7705429655072643,-0.44660851136211643,1.528908358970723,1.5291184573315295,0.3879032880234268,-1.606733578198487,1.7662663760154709,-0.9057010808225696,-0.13003814671074118,0.6891413764355319,-0.09119300121075448,-0.0026761120401511303,-0.45185773172905525,-0.33826817449602525,-0.9528640564958096,0.19312147009264166,-0.684706719738907,-0.4576969268028007,-0.9432561820026102,0.058899420888916074,-0.5930206635454229,-0.48996728152037056,-0.5185064584677407,-0.42264227903014717,undefined,1498057249040
903d185fccf839df,0.5335344844799123,-0.3961252799796618,1.2360610152742015,1.2541508748858279,0.3956689907618544,-1.6266299400513649,1.8755663702286585,-0.26248816540776093,-0.18915456845140932,0.2701251324127047,-0.01726073654133548,-0.009252449730608648,-0.45620961452762926,-0.42066737394550047,-1.0044430786795295,0.11027651134318747,-0.7277515591101412,-0.4900772689769324,-0.9697461088319815,-0.00246338154899839,-0.6324702794362858,-0.5039080863696309,-0.46966121706407304,-0.4245729864539647,undefined,1498057250576
903d185fccf839df,-0.0014673387395627991,-0.21825956018092738,1.4287405344924393,1.504144030866266,0.1377757179846943,-1.61438047032828,1.7839149980589775,-0.8471906983647121,-0.4272753956116981,0.2093585626119576,-0.18809795176658395,-0.12724612113351882,-0.9044535427807487,-0.3753015229997481,-1.0086536064449505,-0.010959938168525777,-0.6709611715925267,-0.4538908293247613,-0.9650022711677015,0.07369733082648032,-0.6045531538266969,-0.4842883951749254,-0.4710985570648559,-0.41891581535737893,undefined,1498057252026
903d185fccf839df,-0.2786701364043522,-0.3250962898390199,1.6201437779506729,1.568056010152147,0.11194832947825493,-1.5825560754324248,1.791452011643221,-0.7870145039748261,-0.3459302215946082,0.005975877017328461,-0.15311719061963508,-0.06981602583938268,-0.7782489416221035,-0.3780790367645325,-1.016022024512762,-0.22110321059574314,-0.655383615850991,-0.4471145795899519,-0.9672972255083925,0.06168654483230618,-0.605282756898311,-0.4960700563965277,-0.4500773347144786,-0.41514630860420654,undefined,1498057253520
903d185fccf839df,-0.4574661279174621,-0.38144984657064246,1.5544285372948714,1.5103951423823845,0.07536210457028121,-1.6056807626301437,1.7740479482278115,-0.9469645037688057,-0.3821988826287999,-0.1385994457733819,-0.20051011640108948,-0.04517963869507464,-0.6868594028520499,-0.41418656029743506,-1.0002325509141086,-0.29990689359232225,-0.5902359034312312,-0.4509903396809826,-0.9547099621784805,0.02599294944557278,-0.607609218781562,-0.4827469340301124,-0.506021163339036,-0.37873602027511916,undefined,1498057255029
903d185fccf839df,-0.2828282453098189,-0.5076581880787101,1.4140661587588335,1.5039521494825545,-0.20847170685668867,-1.624391542279713,1.8566212309845735,-0.5625005196415159,-0.4487686822361835,-0.2984660316008336,-0.12825937440719884,-0.06323098345711696,-0.9044535427807487,-0.3651173835668526,-0.9602324598391536,-0.2938450718233546,-0.6185247306133781,-0.3461674561265742,-0.9180606673569809,0.11113095336226704,-0.528223369873158,-0.49013505938683216,-0.5108367939348507,-0.41671249692589407,undefined,1498057256522
903d185fccf839df,-0.1968953518096228,-0.45423976479367917,1.6054696563540163,1.6557201579570842,-0.2553333394671447,-1.6461303322619523,1.8092189847940492,-0.8759737803818777,-0.5632006904648407,-0.22738543554647553,-0.17304849089258428,0.06634175714057623,-0.9740836675579323,-0.37715321179371225,-0.9328640183205661,-0.031165949491521197,-0.5858322793725903,-0.31447107303230076,-0.9116865722751872,0.22221533831367246,-0.48640991071404943,-0.5110781750294733,-0.48039917842090546,-0.41967080904733695,undefined,1498057258044
903d185fccf839df,-0.07215401694856617,-0.36090432163639385,1.4459666993352056,1.4797742042022666,-0.19163402069468694,-1.6473648286877143,1.7554552366923126,-1.211231275019863,-0.5791954451782593,-0.25726212098389306,-0.14838172347346756,0.08699050160548764,-0.8261196524064172,-0.4234449006610594,-0.9454956016168292,0.1466474136922717,-0.5485952119988531,-0.3566231464480015,-0.9339504239342384,0.27972852949771393,-0.5020594843611249,-0.5084392067386223,-0.4931879912689721,-0.43171223464911024,undefined,1498057259534
903d185fccf839df,-0.033345713609344574,-0.36794844315786585,1.3528168667152494,1.3891396245487215,-0.006203473901023651,-1.6993930437610394,1.8049902592532237,-0.9154564946753444,-0.4547232913466114,-0.42656628069180746,-0.15311351668371845,0.10299209115296151,-0.3125974821746881,-0.37252404808728734,-0.914969277158085,0.3992233113110155,-0.5697901915668404,-0.3030907733270774,-0.9227065481641903,0.5233473379324327,-0.42660185480409946,-0.5014617492868468,-0.45847478694136096,-0.431276548733083,undefined,1498057261055
903d185fccf839df,-0.0042392273143553654,-0.28928837495361526,1.4568127560626976,1.437826353827217,0.07033240066497704,-1.7040631686315901,1.799367738400427,-0.9229070176691512,-0.5154215865492172,-0.13460096945633554,-0.08706837418192054,0.12268607643007175,-0.7042669340463459,-0.29845733812906716,-0.919179804923506,0.6598817887002311,-0.49178879276682413,-0.2757071252812843,-0.9174239569738483,0.7301176652968162,-0.35826608858449926,-0.5173809367546814,-0.5165627794163654,-0.5056968764101191,undefined,1498057262544
903d185fccf839df,0.006848672038912246,-0.18362561683578085,1.6833069753603647,1.6581480038162595,-0.004773760330238198,-1.7192591252327223,1.765832448492512,-1.1173298431248984,-0.6351222886554821,0.18532733935187748,-0.08787250184074125,-0.006423444398840432,-0.8174158868092692,-0.3188256687979563,-0.9412850885758758,0.613407859491108,-0.491022545275069,-0.31529435633600494,-0.9452222858161371,0.777806650682418,-0.3793176111712853,-0.5529831043466328,-0.5273089028460061,-0.43660458490140763,undefined,1498057264028
903d185fccf839df,0.013778945562449414,-0.13783838852632796,1.4714868776593542,1.4831438702325654,0.17227394445535396,-1.7181341021427876,1.769119701774548,-1.0456880321143565,-0.7113159036945556,0.533133552220652,0.002807717506238807,-0.008231980777495089,-0.8391753008021391,-0.25957231378215473,-0.9044429614256493,0.5689543491068305,-0.5250761638894635,-0.3652739485356023,-0.939449916824527,0.647859166653347,-0.4248913157924392,-0.5398136492648588,-0.5785691796993654,-0.4264429277835545,undefined,1498057265520
903d185fccf839df,0.19950493455581864,-0.2605245815896826,1.309432131531383,1.452942322477053,0.2136018705587234,-1.724907530174298,1.8382941165048805,-0.6935387022124883,-0.5569809352063696,0.7245177595749653,0.00005234362159995577,-0.05615244783686663,-0.7086188168449198,-0.24290730889809564,-0.8833902784251412,0.5325835598166324,-0.5208204539334307,-0.34264000721803334,-0.9103431834123894,0.5096889157849788,-0.4291728781748231,-0.5223439520335746,-0.5451616929229348,-0.4305826735032563,undefined,1498057267013
903d185fccf839df,0.4586894903329838,-0.5217465772616158,1.746469918633107,1.6567139171081726,0.46804943894706963,-1.7798193453573117,1.7446756445355005,-1.346189294443351,-0.48504335123657805,1.0588344614721439,-0.0795707340117993,-0.07081143963042305,-0.5780623328877006,-0.3623398957036173,-0.8802324028472184,0.2699044940142421,-0.6176882263102083,-0.3921256293567875,-0.9112667622890672,0.1870606824729819,-0.5150365745263044,-0.4896598239803956,-0.5923737189373646,-0.4062874411122382,undefined,1498057268525
903d185fccf839df,0.267419517157571,-0.5082452615328161,1.8121849051519592,1.7899720621870583,0.5605384220437616,-1.7538250372951631,1.8112518129199902,-0.8787351586804278,-0.45365973462310344,1.1860944332693095,-0.08311106127235372,0.07445843593744243,-0.3343568961675579,-0.34474903994718886,-0.8791797727464216,0.14462682527909684,-0.6614970366281704,-0.436057258727769,-0.9098534067611291,-0.09964297611851194,-0.6011550654430564,-0.466182330931346,-0.5618026247420916,-0.398218281439725,undefined,1498057270029
903d185fccf839df,0.1939606743304972,-0.37029656160633606,1.502749788629623,1.6643858335554849,0.6617908297000116,-1.8161368455521394,1.7791261034299597,-1.168767410579047,-0.35422217670138595,1.1094352408140913,-0.010473645299079312,0.039976571812264355,-0.2734305369875223,-0.3947440805009152,-0.9223377173125978,-0.10592861111771906,-0.7169648499055564,-0.5027621546201552,-0.8824538959675332,-0.22138308494180298,-0.6513607627768163,-0.45294170625776725,-0.547642476079318,-0.397982091369874,undefined,1498057271564
903d185fccf839df,-0.034731657896740854,-0.3016157483701491,0.870480184926602,0.8838906878226234,0.6058469238178616,-1.7813962409719384,1.8052900416590132,-1.0076628268323542,-0.27973956578362835,0.4829806119712579,0.09279161884141365,0.10766522028838371,-0.8739903631907309,-0.4327032928277819,-0.9507587889319823,-0.18473225171721586,-0.7499773686841186,-0.5566998359980159,-0.941772858830802,-0.2579543906958395,-0.7022067540204417,-0.43383927620478874,-0.5395628819750463,-0.43863864755519877,undefined,1498057273033
903d185fccf839df,0.1024839346698965,-0.2270647266967635,0.5208500060726126,0.579142203584645,0.451170611829391,-1.815808419487241,1.8569184019185305,-0.7431359744418066,-0.24025490669703709,-0.06189015109496254,0.042329168077541224,-0.013348738199521861,-0.9610280191622104,-0.5354708229461463,-0.9497061588311855,-0.33021601656952115,-0.8112648543087913,-0.5938298837376718,-0.9565431268055646,-0.31131000321139823,-0.7311634811509046,-0.437637016232381,-0.5654573587277008,-0.47921711721491755,undefined,1498057274529
903d185fccf839df,-0.17194725046337822,-0.2916364349461008,0.388143757274904,0.33405177856143603,0.19461447183719252,-1.787326481385804,1.8439140117443011,-0.8759600830464842,-0.24206992341870362,-0.2552903177691648,0.012873856038520183,0.024112379211507804,-0.9958430815508021,-0.63916420393688,-0.9939167482226262,-0.4312464406258782,-0.9789354990378989,-0.6618836962125558,-0.9804792172612228,-0.36942373446788485,-0.7848824448741494,-0.4741322184809919,-0.6050667867687697,-0.5126687825327733,undefined,1498057276046
903d185fccf839df,-0.23431771086144812,-0.36912256083808564,0.9240733472318567,1.0169490341233687,0.17256193994738273,-1.7245348514160614,1.8845734455203633,-0.5098320493195057,-0.22868906377551046,-0.22651186368098325,0.07129436278851868,-0.021364404836304328,-0.9523242535650625,-0.6937883952462568,-1.019179936901854,-0.36254575622461643,-0.9866635588862247,-0.6732766613566641,-0.9913732511600347,-0.223816032658473,-0.7761102957248202,-0.4686341392792339,-0.5176724783797763,-0.45640452359913614,undefined,1498057277604
903d185fccf839df,-0.16640292122723732,-0.3679485016138505,1.3470746423430275,1.3215071755710373,0.2938714562404932,-1.6720664095674493,1.8892781702019568,-0.3526801240785066,-0.23648472260592773,-0.10746948995380913,0.11701331434648592,-0.005361338253176596,-0.9958430815508021,-0.570652482655905,-1.0307588753728527,-0.2736389898385554,-0.8532154291458975,-0.625982237475601,-0.9946617516358985,-0.1077733468463584,-0.7340017172143204,-0.46713444514712194,-0.4892748345312983,-0.4702696054947821,undefined,1498057279060
903d185fccf839df,-0.13868265526292228,-0.3450547997751471,1.3649391992027455,1.3704131235942674,0.3003411647170025,-1.6480472941109567,1.7856664445469614,-0.9739657717755867,-0.2715981250895417,0.1690040176544369,0.1656283978916222,0.003208000262520771,-0.9392686051693405,-0.5104733156200577,-1.020232559640417,-0.10996980207642952,-0.8425093049858581,-0.5477133861736104,-0.9866853870346237,0.02797934605413402,-0.6636185141014687,-0.4523796945104622,-0.5210021267334324,-0.49250577790218564,undefined,1498057280524
903d185fccf839df,-0.0028533520377785515,-0.2699168215596248,1.1237708583084218,1.0932406020792635,0.056703854427615316,-1.4917646608216368,1.7602467464594893,-0.9002798739196746,-0.2770249121006522,0.7277917579633755,0.19834688066656564,-0.09035619632917538,-0.8348234180035651,-0.469736576577632,-1.0044430565928282,0.1830183443060774,-0.7745444445504089,-0.5273846367034222,-0.9497632152798825,0.41976199297858513,-0.573576637350461,-0.41068314110132575,-0.49197862450236957,-0.3602809860046278,undefined,1498057282018
903d185fccf839df,-0.10264637852013218,-0.1360772850759791,0.7824346929358145,0.7223810820226148,-0.23918479395244605,-1.3991378043462852,1.698299034789821,-1.1446836185987825,-0.4306635306420392,0.047043772232749415,0.1223977096525019,-0.09343257076872526,-0.2560230057932264,-0.3808565505293169,-0.9212850798495673,0.09007042935838822,-0.7585410975555247,-0.40741335037225573,-0.9207544381681628,0.6656135750337292,-0.4677688166677651,-0.39157184108370224,-0.5006526271682098,-0.38941093352656725,undefined,1498057283527
903d185fccf839df,0.08585156805884907,-0.2634596565802895,0.8181635525183009,0.5511682538773159,-0.3323526382190225,-1.3724819907606727,1.7531988632254607,-0.7295914020561677,-0.42125549621075825,-0.31015191397900155,0.07647791322055925,-0.053214064266297746,-0.2560230057932264,-0.42066742574859867,-0.9118113942179283,0.29819301444590535,-0.785800444658404,-0.4173434072653995,-0.9173609847828672,0.7591129363355357,-0.44509107982847035,-0.4007209095013947,-0.5425651933801671,-0.390238533158972,undefined,1498057285021
903d185fccf839df,0.7816308648605319,-0.14723062849627014,0.4462028681923762,0.4412420359985509,0.21978357256434428,-1.57740146797235,1.7596287321703146,-0.9040833613944408,-0.7225492958862869,-1.0409230853097826,0.03569462633428192,-0.15377742296578348,-0.6607481060606061,-0.4984374485408744,-0.9160218925344142,0.6295726798553929,-0.7406318971781952,-0.470932776154117,-0.9448164710850258,0.6701253165743208,-0.49312393976568253,-0.3999825857332113,-0.5237808845253987,-0.3076568648485513,undefined,1498057286526
903d185fccf839df,0.6222391975440815,-0.35796924664578694,0.1367672433961412,0.015507877338642843,0.3632176201083985,-1.6675104167503598,1.8180761701922612,-0.7199332991639648,-0.6070878910966625,-1.1403193385080297,0.10750366426654906,0.06661546813203334,-0.6955631684491979,-0.591946651246389,-0.8791797727464216,0.5346040917003643,-0.7277478561429691,-0.5323180016164536,-0.9372599164331683,0.590746331833417,-0.5360007463653326,-0.41921505095477657,-0.5329014553988708,-0.43498414697429555,undefined,1498057288020
903d185fccf839df,0.28543782805601475,-0.2746130000005806,-0.05974059482821074,-0.101738508810877,0.6069269228291152,-1.7927210011440184,1.8351409894846218,-0.7257853965577707,-0.4054579220872125,-1.0306245243546015,-0.002832630985619749,0.01750941815194506,-0.6302849264705882,-0.6234249981220921,-0.8897060884788572,0.8255716214049748,-0.638417685973466,-0.5482706872990073,-0.9588800624825292,0.7209863821391892,-0.5109602679712923,-0.4280951570019711,-0.5738140956960354,-0.46451477382538825,undefined,1498057289545
903d185fccf839df,-0.020871386892944394,-0.19419187218796966,0.10167652169365701,0.01419185318483262,0.3924701455826097,-1.8174784854774222,1.8393591963353533,-0.8515793588982843,-0.420421269942562,-0.6004975480261407,0.023746043515983903,0.0963441811575947,-0.5258397393048129,-0.6400900418584748,-0.8981271292852319,0.6760467503881237,-0.6388053422510661,-0.6078446884445501,-0.9615038660963866,0.6040659831326868,-0.5546265632364455,-0.45076032285896134,-0.5584675088157893,-0.43989226076702026,undefined,1498057291036
903d185fccf839df,-0.05413570605012245,-0.383797906563128,0.41557834923905884,0.5364471088907287,0.4537214714486907,-1.8947556540456243,1.8714717541892611,-0.7368155810415185,-0.24446258103389912,-0.07442328407766993,-0.021967031427225697,0.011665096647359145,-0.8783422459893049,-0.6456450564372691,-0.9360219380718917,0.37093490393823836,-0.6642173290889429,-0.6362986064965419,-1.0016305751344938,0.32501535462045905,-0.6283329585915362,-0.48806871261358664,-0.6304841022910034,-0.48642416187709514,undefined,1498057292544
903d185fccf839df,-0.052749830773545635,-0.44191243521913387,0.8296474929888454,0.8702784625593832,0.6155771976454064,-1.8733126773031619,1.8429699138721352,-0.8548381576604878,-0.32754154076904324,0.19830348593527555,-0.021801235494992834,0.019305478438517425,-0.8696384803921569,-0.5586166155767217,-0.9233903400511609,0.22140997639194418,-0.6779827940827546,-0.621067875994571,-0.9785900768564252,0.2904920404818394,-0.6234180134970252,-0.47338240153148325,-0.6297218549807837,-0.5363740705124374,undefined,1498057294012
903d185fccf839df,0.12604588469628641,-0.5411180575856254,1.0178608094579165,1.0690704575422698,0.2946428736458067,-1.9056332003875416,1.8123826441221849,-1.1892454920964028,-0.39082428047162365,0.3377003797161439,-0.07455786056979112,-0.17048150818738808,-0.8174158868092692,-0.5725041584990946,-1.0076009653008031,0.13654441509695436,-0.7573355169462238,-0.6283760911158149,-0.9981461627062026,0.1748497196227898,-0.6677318920810145,-0.48354685313925644,-0.6269489862977587,-0.4736449928362211,undefined,1498057295527
903d185fccf839df,0.3533526176902255,-0.6321055138204059,0.9074850661321432,0.999387746740259,-0.07429479265682142,-1.9395213026701368,1.8707091143273693,-0.9513591147304625,-0.35696512395401636,0.062201744674016735,-0.053909354271364895,-0.3100479269776744,0.2749066956327986,-0.5836142006074576,-1.0202325670026506,-0.09784610200905121,-0.8479837896071546,-0.6189970022604374,-0.9994615630409107,-0.11173075022045054,-0.7254419436013202,-0.47535540961862244,-0.6168051689381657,-0.48962163910516604,undefined,1498057297025
903d185fccf839df,0.06367535528739703,-0.4037564603412437,0.7983853444294248,0.7708610140956095,-0.579260799562485,-1.8861211637028181,1.824653316511253,-1.3558664019129645,-0.32946171416048353,-0.3512374221278965,0.015259258432558232,-0.31363477813939955,1.467322582442068,-0.6345350531812297,-1.0570747162395786,-0.2291856631749679,-0.8878201389273744,-0.64370181586707,-0.9998253978549064,-0.1671805522456038,-0.7490345889761946,-0.46578107975163435,-0.6171747398043812,-0.5034982207533442,undefined,1498057298527
903d185fccf839df,-0.10264630950931272,-0.32098724330815487,0.5253162088217794,0.6305988795986017,-0.5867076421297922,-1.8245127866233228,1.8272489304348283,-1.25307938384995,-0.21424869332963306,-0.48358141502526153,0.02389418841448413,-0.21385494546870285,-0.15157781862745098,-0.6549033968008934,-1.0854958025834305,-0.19685593765223341,-0.8513116469697788,-0.6763671383363112,-0.9959981427274412,-0.10658767093570724,-0.7575758431099734,-0.4399469828602784,-0.5758683698982218,-0.4839457835912327,undefined,1498057300024
903d185fccf839df,-0.4255878220584998,-0.35679512896556714,0.3951617491332312,0.40665167656943785,-0.6907680345728079,-1.6805355236295085,1.8151255291347677,-1.168639946083164,-0.226658818457109,-0.5395336564406928,0.04769356818142237,-0.06880620100776902,-0.49537655971479505,-0.7169342461553176,-1.091811597912679,-0.16452618386477738,-0.8634582455021016,-0.7255424462847031,-1.026567209569985,-0.1689359758611437,-0.7957735583327284,-0.46451520500215154,-0.6312492786068279,-0.486549798618006,undefined,1498057301541
903d185fccf839df,-0.7055627153305402,-0.4248889564316251,0.29818435991800896,0.3419590099207191,-0.6781371987776122,-1.6180723145406832,1.8096686864239415,-1.1095857129253133,-0.3169975401944986,-0.5722661180996351,0.018366775648658754,0.03427779076325184,-0.6476924576648841,-0.7261925800435547,-1.073916823620146,-0.32819544228870706,-0.8741975262779091,-0.7579354535489097,-1.0459203886016835,-0.33995111253576743,-0.8517704554052482,-0.45651209966937073,-0.5956366513081257,-0.47408327606710055,undefined,1498057303031
903d185fccf839df,-0.5711192873819733,-0.423127911437261,0.11635089742726296,0.058630444724810445,-0.8389849286770827,-1.5942511850302,1.8481401252895333,-0.8722155229260893,-0.2635034793050499,-0.5638682423329022,-0.005730581041864187,-0.0811871561233195,-0.8565828319964349,-0.7456351116431728,-1.0581273316159079,-0.5423797926157488,-0.9186144464008346,-0.7913227322008701,-1.0516297863015205,-0.4430591014670772,-0.8892312947181649,-0.4396368210838704,-0.5900365461547118,-0.4564948401179034,undefined,1498057304515
903d185fccf839df,-0.6043836755499709,-0.4876996781425829,0.12719695415475482,0.028687269990018797,-0.8985288342361846,-1.6201430087431015,1.8554115334377972,-0.8982139597682961,-0.26913843807087107,-0.674558448739293,0.027669204863991676,-0.06531778197557724,-0.8696384803921569,-0.7835943045438776,-1.1202326805754141,-0.5241943414412067,-0.9317225475987194,-0.8069587695091709,-1.0954298220102618,-0.4463851647411134,-0.9135562707207018,-0.4473135837887318,-0.5635699742068166,-0.45084813429786913,undefined,1498057306025
903d185fccf839df,-0.5655752341891103,-0.46363194630763666,0.11954082441642548,0.06290604085574057,-0.6902331846124447,-1.6894798018491661,1.8646553067540566,-0.9129984931116306,-0.1954320982869445,-0.7922126901974389,0.012244169821826472,0.05267608599905585,-0.8957497771836007,-0.7419317470060189,-1.1423379752711345,-0.16048493637662384,-0.8262563173823839,-0.8157742275953271,-1.107338394085664,-0.10233769896939657,-0.8430394838428868,-0.4574669259237691,-0.5827237233735961,-0.44316301596398766,undefined,1498057307521
903d185fccf839df,-0.3008464181866237,-0.6784797278999879,-0.17522042464620358,-0.23196741137526022,-0.3330829219985687,-1.6279319854052132,1.8366820605994492,-0.9269384556698288,-0.13584446006284975,-0.9229621990653776,0.02082460402152149,-0.013628078785254594,-1.0088987299465242,-0.7095275881102702,-0.908653500234421,1.029653114460307,-0.49740139832731295,-0.7934885987724383,-1.0022043127271734,0.530892575635696,-0.6763806444546043,-0.45025000635073437,-0.4673451363044473,-0.07491893568879729,undefined,1498057309022
903d185fccf839df,-0.2648100034221947,-0.6238872746187142,-0.14523378943593895,-0.08728008510376932,-0.3580874508689215,-1.6542058030215703,1.8638795173510854,-0.7921348606263883,-0.10209113596298557,-0.8565935837632449,0.006446733941418532,-0.01761495982599371,-0.9523242535650625,-0.6984175719034562,-0.9339166557835966,1.1549307549307306,-0.4162863319021764,-0.7764213156006234,-0.9911843353884268,0.6598853518737812,-0.6354687018407761,-0.459169494996629,-0.4987977216988603,-0.10394570636946691,undefined,1498057310546
903d185fccf839df,-0.31332060688138497,-0.6238872161627295,0.15271738661585263,0.09180053160151529,-0.4005056619746592,-1.7085096862581621,1.8858173483200378,-0.7394643568100432,-0.18183752617869775,-0.7804453917250116,0.014091569029075213,-0.004483421179023117,-0.9653799019607844,-0.6632358992429229,-0.9318114139875875,1.1609924919055337,-0.42712157095337927,-0.7697717254480552,-0.98227039853952,0.7184148425573977,-0.6141731926135494,-0.4845846306369471,-0.5064655951673144,-0.10599833246842444,undefined,1498057312015
903d185fccf839df,-0.561417194294463,-0.41667077568591804,0.38686798978879855,0.3778840264261275,-0.6742492079217548,-1.7403084593771994,1.8949822170571704,-0.7736612444812342,-0.2790552596306462,-0.4557281475288933,0.04293343248140897,0.02458321755790951,-0.9175091911764707,-0.6317575329410581,-0.9254956149772221,1.0377355811718925,-0.48739407462110124,-0.750665233836307,-0.973454417055121,0.7501356395440196,-0.5947523408959393,-0.4946027313346659,-0.5418009221070088,-0.13004153211154504,undefined,1498057313561
903d185fccf839df,-0.6681403562787149,-0.33918470824991787,0.5655110170164832,0.5877588845449288,-0.7481725082981243,-1.7668617863701783,1.89715181172357,-0.7912037295317664,-0.31044642866905725,-0.5697723566934538,0.00651397678117636,0.050822681124762896,-0.8609347147950089,-0.6049083368210052,-0.9286535052796125,0.35072879368871757,-0.5821855754316244,-0.7299248429606484,-0.9648763274035626,0.40206917953774657,-0.6614556207185435,-0.48119558456730405,-0.5184456271458953,-0.09062899349632053,undefined,1498057315018
903d185fccf839df,-0.6237878617249913,-0.3391846497939332,0.5584927710212065,0.5067708638663113,-0.855956332127425,-1.728168464948828,1.8783565932748696,-0.8930943321706369,-0.2576191780571457,-0.5482324330595656,-0.00630795929066609,0.00560836980530347,-0.5867660984848485,-0.582688343259701,-1.1276011096865763,-0.368607521464141,-0.8212211092856582,-0.7219326678792165,-1.0797219814942487,-0.29372497685587495,-0.8310939546886793,-0.4575837858358025,-0.6030970541521279,-0.47878647737373287,undefined,1498057316524
903d185fccf839df,-0.6154718509465164,-0.3356626474891819,0.5495603655228729,0.5814876826611389,-0.7824033155401006,-1.7514585278832093,1.8984246470751924,-0.7746202958059691,-0.26463211252765173,-0.6265915521211721,-0.02669659441328488,0.024875521248794857,-0.6433405748663101,-0.5354708099953718,-1.0939168581142726,-0.45347311102385235,-0.8000488755429241,-0.6782100246972824,-1.0754819146535177,-0.3520080928296825,-0.8221555438090093,-0.4604712783234794,-0.5889430690484191,-0.4892633391637478,undefined,1498057318036
903d185fccf839df,-0.6542801542857379,-0.32392234752675414,0.5074519060990109,0.540021962301042,-0.6799269220574302,-1.7535175769029585,1.912470439421026,-0.6706166294231904,-0.3531131214917581,-0.5385990031881751,-0.005922033009839184,-0.032484930071471525,-0.7042669340463459,-0.5623199802138754,-1.0907589604496484,-0.3039480986833935,-0.8285086215201578,-0.6467922910915942,-1.0735437982792435,-0.1977156705348762,-0.7804953858577377,-0.45579846236900917,-0.5707156926239769,-0.5114690186967995,undefined,1498057319536
903d185fccf839df,-0.5932955001534254,-0.2663948484828658,0.43280476821877456,0.4644650579363226,-0.7057131645268692,-1.7454863587062073,1.881722740660815,-0.8556191864590341,-0.3667849815514942,-0.5966891931424378,-0.02229858588509573,0.06955086999900105,-0.9653799019607844,-0.5530616592764129,-1.0833905239762525,-0.11805218399385047,-0.795566176794648,-0.6445947604217457,-1.0630975595669598,-0.007005922161376543,-0.7376685103518685,-0.4404350819523743,-0.5661044139748171,-0.5095868174061197,undefined,1498057321028
903d185fccf839df,-0.6321039415142858,-0.28811437418536484,0.5316960628001044,0.5342887911974771,-0.8039518565031682,-1.7006112371862088,1.8482084928469353,-1.0247319130221977,-0.3000571488345251,-0.5971307340562592,-0.04268947227763189,0.0035810561187131474,-1.0045468471479502,-0.5910208521771179,-1.071811570780786,-0.07764004828897349,-0.8565468571606667,-0.636868569871704,-1.0597950641174718,0.12756109210907815,-0.7067053569663985,-0.4485338772382808,-0.6211574918538969,-0.4975620385680884,undefined,1498057322521
903d185fccf839df,-0.6279459016196386,-0.3661874566194864,0.5470083222767631,0.5116118062186985,-0.9480544676229697,-1.6797552277934125,1.826296951532445,-1.1813724670191772,-0.23569557270886868,-0.6986491334302151,-0.03716365521386201,-0.06990347533098429,-0.9218610739750446,-0.604908330345618,-1.0391799493092793,0.14260623686592197,-0.8265238779126428,-0.6551897760411323,-1.053092119468893,0.34517192380219014,-0.6702270826352325,-0.46056824915925554,-0.5920718469833763,-0.43636062195584024,undefined,1498057324026
903d185fccf839df,-0.6279459016196386,-0.4530657347974364,0.5163838033234458,0.5624261069217811,-0.938427050905846,-1.6752830895171518,1.8275750412533862,-1.1813644807520531,-0.22444407620699697,-0.7818361479225266,0.006311610355617523,-0.0008303023213271659,-0.9566761363636364,-0.5854658116967745,-0.9991798950454933,0.1850390175134169,-0.845817186909092,-0.6554494267872721,-1.0252937889138272,0.45308422954361544,-0.6408980669083236,-0.4679321030187743,-0.5781336756391576,-0.4409203182396059,undefined,1498057325552
903d185fccf839df,-0.5835934760767345,-0.4325202683191725,0.32880837059742746,0.256312611338891,-1.0030623702073511,-1.6262176646305244,1.8698123497749837,-0.8337344890039706,-0.28803726291844883,-0.8490076339510052,0.019784485051718877,-0.0474422809525071,-0.8870460115864528,-0.6373125280936904,-0.9876009565744946,0.12240015488112273,-0.8169272565330616,-0.6729030183385611,-1.0145956646307253,0.3889651048727102,-0.6604723843506316,-0.45477271220224763,-0.5449797455658375,-0.4096827012800443,undefined,1498057327025
903d185fccf839df,-0.6501221834019101,-0.2875273299592511,0.07041411899728692,-0.11591362946797015,-0.8492603445937045,-1.5137713121945016,1.847001413580883,-0.7119660894518178,-0.2822889847923002,-0.7665843214392477,-0.04489854334078116,-0.0674190066627544,-0.7738970588235294,-0.6141666966107914,-0.9939167519037431,0.09007042935838822,-0.8151829082108163,-0.692668134470515,-1.0143577735931024,0.13909453087160265,-0.7184261027143372,-0.47727172198547363,-0.503299699400343,-0.3967994947850914,undefined,1498057328524
903d185fccf839df,-0.611313811051869,-0.434281254857552,-0.24093566530200514,-0.19414949490531966,-0.9084853869288906,-1.4314536697214681,1.8134924285164964,-0.7946090363733478,-0.27146065574351064,-0.6946769080772078,-0.022526474072452413,-0.07078088395912772,-0.7608414104278075,-0.659532554031931,-1.0233904573050412,0.08602919600259544,-0.8427089044090331,-0.7059546507153965,-1.0245101457592007,0.11442622052622467,-0.7308871232773398,-0.48831802263090157,-0.5097007560879221,-0.4262759102298834,undefined,1498057330023
903d185fccf839df,-0.6847725848681234,-0.41021358147859044,-0.3366370328941725,-0.33606041524024743,-0.8581060408699599,-1.4813343273096005,1.8156146825304627,-0.8796367670395869,-0.24589165342232142,-0.6992868750752221,-0.05351336620183606,-0.057375172685183544,-0.8174158868092692,-0.6882333936182371,-0.9697061896441953,0.6356344450949175,-0.543142131562833,-0.7017305776590693,-0.9686895887196456,0.7325660192939968,-0.5749296253556883,-0.4891969232776871,-0.5320130089895829,-0.15180968324269503,undefined,1498057331660
903d185fccf839df,0.14129209998747916,-0.6890459978661728,-0.4648775872166131,-0.5415312278407657,-0.3651537284733234,-1.464023422968271,1.7791997630674652,-0.9593610935041593,-0.26915296027827357,-0.8378826446721177,0.011164817535884044,0.052997624850576325,-0.7782489416221035,-0.7197117340185529,-1.0076009689819199,0.21534809809353347,-0.606845805627717,-0.7573781545163725,-1.003071917538915,0.5960280021486185,-0.6389351918774548,-0.46334707658414714,-0.5046944219133926,-0.14708880272078903,undefined,1498057333022
903d185fccf839df,0.3616684904470617,-0.8792389741694717,-0.5184704953849185,-0.5850739088982418,-0.28815499839081304,-1.5436414777255487,1.8113465026050304,-0.9276989644347885,-0.12825469406972012,-0.9224342136194869,0.07956837254473147,0.06589511126079381,-0.5650066844919787,-0.769706768096892,-1.0233904573050412,0.10017337142426247,-0.7422241436005456,-0.8324298708731811,-0.9838656716273826,0.44573917471402263,-0.6973404331570491,-0.44348450648255683,-0.4335522828703892,-0.17441240115242448,undefined,1498057334518
903d185fccf839df,0.3907748387204119,-0.8152543393742405,-0.46551547095966583,-0.5496508953668787,-0.33018236004692203,-1.6130085474327565,1.8276539217395125,-0.9547680732158268,-0.03508546635935507,-0.9630695076825415,0.07062115010791417,-0.058158172713657814,-0.5301916221033868,-0.878955189567969,-1.0370746927888026,-0.12007280067174685,-0.8919043628266026,-0.89004699267156,-0.9906875622137916,0.34988384941459805,-0.746624987599249,-0.439096665589219,-0.446873152701383,-0.20943113689839823,undefined,1498057336031
903d185fccf839df,-0.6847724468464844,-0.6614562344984829,-0.27347383548448073,-0.3733076127049,-0.9374293381750838,-1.5939064582511335,1.8650497636558203,-0.8331663519114371,-0.21188338681167923,-0.7175389167135274,0.05600385136475301,-0.010568021421590577,-0.5998217468805704,-0.8696968492043448,-1.068653662072811,-0.07764006242133425,-0.9129045414200427,-0.8919025453960391,-1.0038555604121564,0.33322273097053506,-0.7549666217153234,-0.4311795327414165,-0.4565159695952462,-0.1933525396242822,undefined,1498057337527
903d185fccf839df,-0.6986326833448712,-0.592775421262296,-0.17649619213230905,-0.2647427583345797,-1.2292757079971255,-1.5769030129556143,1.8728339986685612,-0.805390266724869,-0.3589535960519824,-0.6677784044096924,0.03226400634530436,-0.047426547239743856,-0.7042669340463459,-0.913211037257682,-1.132864274915028,-0.5585447543036414,-1.1288011091789036,-0.919685169037461,-1.0814921739242347,-0.4270447193472355,-0.9544340376853452,-0.4518652849916844,-0.6201363189126269,-0.5384881769188204,undefined,1498057339049
903d185fccf839df,-0.7526872192279904,-0.6144949761927873,-0.2192430435731226,-0.2943786736573114,-1.3884880119734548,-1.5130772013222105,1.8407503660339486,-0.9292751823148295,-0.356242922563815,-0.6324953896803132,0.049878528599258745,0.0354729698545369,-0.843527183600713,-0.8604384829391712,-1.1318116411331143,-0.4494319059327811,-1.064816627552979,-0.9008636595645322,-1.0903851206341302,-0.3412445851303605,-0.9314499613198162,-0.4526882076752207,-0.6075439142418264,-0.5528173185957961,undefined,1498057340521
903d185fccf839df,-0.9203949835864402,-0.6368015461214,-0.2996326599625301,-0.35018159134660665,-1.5270363495332229,-1.497375798091568,1.8320404307743083,-0.9886397932631392,-0.3227837278765059,-0.6640689590891806,0.07233397691335088,0.04249033964284076,-0.9610280191622104,-0.8317376498282526,-1.1791801097835948,-0.4979265083492436,-1.0644584162134823,-0.895771972349609,-1.1369419007703099,-0.23739746677893625,-0.9233758153637303,-0.4628213039206863,-0.6379886063615816,-0.5519418232796293,undefined,1498057342024
903d185fccf839df,-0.9910817653116728,-0.6197781111758798,-0.30665039768390784,-0.4385342886918553,-1.5525243064464573,-1.496600159866815,1.8251819012460764,-1.0344834611810474,-0.3454794367136624,-0.5752072552542055,0.058423271917980586,0.04288097177353425,-0.8174158868092692,-0.7974817924254587,-1.1760222268434382,-0.4756997531571049,-1.04521182870339,-0.9036058233684897,-1.1584221102228796,-0.25433575571979133,-0.9367462830591362,-0.4623334111245715,-0.6157840607713404,-0.5322292016456742,undefined,1498057343529
903d185fccf839df,-0.9439572614142226,-0.6215391561702439,-0.3015463111916883,-0.3842584266375454,-1.4985449689927317,-1.4742441220232434,1.8241957212808828,-0.9862894606662769,-0.34552872904686804,-0.562046244867928,0.04768317247700486,-0.06506341770973527,-0.7869527072192514,-0.8354409885638572,-1.1707590616149863,-0.2999069218570438,-0.9589229052433634,-0.9421544516878012,-1.1532794541857023,0.010348126772025427,-0.8902589629568326,-0.46367197702601387,-0.6478004706751814,-0.506528504884839,undefined,1498057345017
903d185fccf839df,-0.8954467442185566,-0.6456067710932208,-0.37938439260888485,-0.47468271210612645,-1.4572993244806323,-1.491354713146386,1.8527869853909908,-0.8275078056370475,-0.34609584068463073,-0.5543111245513215,0.01946911824948109,-0.008039907553018418,-0.3735238413547237,-0.834515153879956,-1.128653747149607,-0.0008569537055692197,-0.9013008451101,-0.9589114203259804,-1.1134606037985026,0.3391049399850261,-0.8146790928894041,-0.4659633350719525,-0.6561177174505899,-0.45944960548036945,undefined,1498057346517
903d185fccf839df,-0.8815865767309894,-0.6702615179262884,-0.3864021303302626,-0.4859124797403776,-1.4415210654596828,-1.5250727806747817,1.8520032966261724,-0.8932297565495407,-0.28266684495623123,-0.5686869080884632,0.027927382641960676,-0.07827755835070736,-0.6259330436720143,-0.839144317586381,-1.1276011096865763,-0.05945446992318446,-0.9487492623026389,-0.9635724670552508,-1.1062049107419936,0.42395037458253737,-0.7943693052200975,-0.4645982939902494,-0.6626384131983043,-0.4673410198607622,undefined,1498057348022
903d185fccf839df,-0.844164234931869,-0.6191912130897277,-0.35832965462305505,-0.4196806503768642,-1.4858524185871937,-1.5804830518335884,1.851561492786845,-0.9969809404483757,-0.28819714536158114,-0.5433025625774678,0.02670288558704808,0.003429619573772696,-0.8696384803921569,-0.8428476725104538,-1.124443212021952,0.09613227939207737,-0.8756483532213359,-0.9622995459352983,-1.117399808224199,0.36211021726638126,-0.809162358785494,-0.45519861732526296,-0.6595650460812233,-0.4480925590264067,undefined,1498057349516
903d185fccf839df,-0.930097128432065,-0.5405310864294924,-0.17841085990926495,-0.14124858878256055,-1.5534705894216962,-1.626280554956046,1.8474747771568174,-1.0899701220199656,-0.3299319667153721,-0.4699410630378143,-0.003918116540236582,0.02085003900224042,-0.9218610739750446,-0.8252568264671063,-1.1223379518203584,0.15877111375965,-0.8722441340801389,-0.9302738502681004,-1.1056661560842753,0.37595342028800993,-0.7866775781267691,-0.46116826083920653,-0.7021572005689841,-0.4593650211331446,undefined,1498057351068
903d185fccf839df,-0.9106929422570446,-0.5147023680561668,-0.08589891103236127,-0.05038594573266758,-1.5452728900903516,-1.667522063495517,1.8680030491820823,-1.0195854945391827,-0.3274535962079928,-0.5513391064082446,0.006583077705999563,-0.05664229719563383,-0.9218610739750446,-0.7900751440934921,-1.1254958531660995,0.02339033337030128,-0.9181756133440393,-0.9075069184510329,-1.115090860402447,0.22430952713668914,-0.8156676812542836,-0.46044308247824883,-0.6782454159864941,-0.47048157861851625,undefined,1498057352531
903d185fccf839df,-0.813671873360303,-0.5593155663693768,-0.038047973099328176,-0.12883065904729754,-1.4896581250650556,-1.7118847532628334,1.8928178987580466,-0.9153466906558716,-0.2964832742371122,-0.6384406521373434,-0.0013892785074378316,-0.02755245650912772,-0.865286597593583,-0.7872976465171759,-1.1444432281104944,-0.05743399456889576,-0.9212792758170358,-0.8914402404799061,-1.127699113363654,0.09111297297625057,-0.8429869010535299,-0.4591618409091113,-0.6750072570188613,-0.4771886240280933,undefined,1498057354022
903d185fccf839df,-0.7734774704593412,-0.5305518314614289,0.03468500527785114,0.05579296275937236,-1.3172698432884757,-1.7758922468608522,1.9117025378571628,-0.8379849675985754,-0.3345867859462683,-0.5750268358601611,-0.011590499262378937,0.03511794651950954,-0.9262129567736186,-0.7391542720935582,-1.1402327187506578,-0.2271650606294323,-0.9305552755757791,-0.8286681023897138,-1.1156925860460853,-0.08204254679420629,-0.8534006485832724,-0.4314841396476399,-0.5744838565583691,-0.475490180228189,undefined,1498057355530
903d185fccf839df,-0.6390340425107743,-0.5193985172691302,0.483207495260968,0.4456246997778383,-1.1447067053744273,-1.8866172918043616,1.8896279424427962,-1.06133111798711,-0.39612333367362657,-0.4996701755843808,-0.05489813920755725,-0.0210613538266912,-0.8739903631907309,-0.7206375848909222,-1.078127355066684,-0.11805219812621123,-0.8826584836843853,-0.7544016707000917,-1.065756347302488,-0.08612313343739211,-0.8070128598792036,-0.4411740654098051,-0.5637706588853479,-0.4669100749233201,undefined,1498057357024
903d185fccf839df,-0.33272486206722496,-0.6708485183104137,0.9942542823629262,0.9387431502359763,-1.0351640341113093,-1.9827915796637805,1.8902512084824845,-1.1295334492978404,-0.3966774271479985,-0.49930298140264895,-0.07099057699341664,-0.07203725028099899,-0.7782489416221035,-0.691936738829229,-1.0170746619757927,-0.09178428024008359,-0.8907889256801151,-0.7199251256193498,-1.0302195445784599,-0.011856431359585161,-0.7688305741537413,-0.43038667240259143,-0.5727192664755749,-0.4826066235394753,undefined,1498057358516
903d185fccf839df,-0.5863654681677563,-0.7976439040445951,1.3005002343069483,1.2422846126616074,-1.0775925342929655,-2.021992675407227,1.8847785764756584,-1.211545263515279,-0.38943006078820847,-0.4992123070668611,-0.039467718710928835,-0.2241182449261523,-0.24731924019607843,-0.5910208780786669,-1.0107588519220767,-0.08370187005794111,-0.8257920863860899,-0.6475965752818962,-1.0052339328827922,-0.05164601629097528,-0.7376369190110008,-0.4377895881693121,-0.5831585597527126,-0.4681920896713803,undefined,1498057360021
903d185fccf839df,-0.7873375689360891,-0.876890987246967,1.4772291020315758,1.4738764715204276,-1.1206278911520353,-2.0422058135867003,1.8784512651520393,-1.2928908656928715,-0.3676122858147901,-0.4524646640606723,0.01564563684407279,-0.2374392330977525,0.6491686163101604,-0.557690803556676,-1.020232559640417,-0.14432011601233888,-0.8261216816920903,-0.5741787587039079,-1.0066472892120653,-0.03095050589387464,-0.6982648615089825,-0.4536687652795954,-0.6230506894112838,-0.47930638799096803,undefined,1498057361520
903d185fccf839df,-0.7235809572181644,-0.8498882681053909,1.4887135507760192,1.4273012467276105,-1.1684872385417873,-2.0437500994622213,1.8670273821456127,-1.3785426104803868,-0.35815719654803047,-0.36713627083404116,0.00554597911170969,-0.3564408653910721,0.2966661096256685,-0.5910208651278924,-1.0560220714143143,-0.41710215214532503,-0.8661651197672661,-0.5785548226908624,-1.0497686336112433,-0.2492542670128035,-0.7551483053918899,-0.45075452938103977,-0.6696338474761213,-0.48989932893398136,undefined,1498057363061
903d185fccf839df,-0.7152648429234602,-0.8099712190051441,1.2813596558241753,1.2465988269627801,-1.2047340332389163,-2.0299051011711824,1.8636691236462979,-1.40728202110418,-0.3500698759322827,-0.43157399811276775,-0.0031543422892318248,-0.29728394935271335,0.4533338903743316,-0.5984275166975526,-1.0760220985462072,-0.5140913569782501,-0.8618822069272353,-0.5643057002250838,-1.0658822890969333,-0.3008852547422875,-0.7607884701698169,-0.44929190457322654,-0.6619236446448199,-0.5080011062697116,undefined,1498057364626
903d185fccf839df,-0.7152648429234602,-0.6990252528342364,1.1320651259267533,1.1411909284363297,-1.1629226749775938,-1.9923833867053864,1.879466376621659,-1.241406472897331,-0.31913819647727665,-0.5171498169354151,-0.04292449448850357,-0.23012720030764752,0.07472008689839574,-0.6123149948660527,-1.091811597912679,-0.4534730544944092,-0.8508599992006228,-0.562880787028414,-1.088258090390654,-0.25344264420111806,-0.7557920280470333,-0.4514680243494937,-0.6581064367012966,-0.49277998103106474,undefined,1498057366038
903d185fccf839df,-0.7485292310914577,-0.6139079904226582,0.7167197064169624,0.589394244263686,-1.0740233960482595,-1.9702882236632753,1.8535312255325729,-1.379217170480088,-0.2713952501721794,-0.5088326964101915,-0.007020280492583563,-0.20201595792125887,-0.45620961452762926,-0.5419516106926626,-1.0697063068980754,-0.07157828304944894,-0.6637532585125655,-0.5728741721181185,-1.0730470238873133,0.37914089533174844,-0.6072923103009312,-0.45314408917344784,-0.7450918354170686,-0.39978251567672357,undefined,1498057367544
903d185fccf839df,-0.6321040105251053,-0.626822349609321,0.5789088628531354,0.572152262668188,-0.9878909710606479,-1.964050520351063,1.8851520127575832,-1.1432818918869718,-0.2621133773945897,-0.48511281176964766,-0.010266170061311633,-0.18375478484245486,-0.42574643493761144,-0.6021308424823827,-1.0381273228895993,-0.008939363887711695,-0.7060284325397015,-0.625241283463986,-1.0539877114262683,0.5406859875722628,-0.5942804102466358,-0.45739984825625263,-0.704648811658447,-0.46332792123042527,undefined,1498057369047
903d185fccf839df,-0.5295388194246813,-0.7483345711324176,0.5170221953403973,0.5045506057196495,-0.8932522725056716,-1.9691864926737705,1.8982379305055124,-1.0448262694130703,-0.25427799733935214,-0.5750626019936306,-0.023005135253980877,-0.16711099481366912,-0.6520443404634582,-0.598427503746778,-1.0318115091547664,0.001163634707605631,-0.7247748579605926,-0.619224986582897,-1.04182025695082,0.5129995823098197,-0.5937837759065642,-0.457100955187053,-0.7083131507588732,-0.47482175311557134,undefined,1498057370517
903d185fccf839df,-0.4144996466619543,-0.5235076222559799,0.07105200274033965,0.05912395002958463,-0.6658663711150385,-1.8803120406803195,1.9314628967958254,-0.7013904800349574,-0.17141552061904836,-0.5791358338276067,-0.004240807718243546,-0.14009671487136632,-0.13852217023172905,-0.6299059024255793,-1.0591799764411722,0.057740732100375246,-0.745822311397823,-0.6470456087168832,-1.0469839033227544,0.5306308006361045,-0.6049490979006766,-0.46390827029579484,-0.6781218348427072,-0.4681542959777889,undefined,1498057372023
903d185fccf839df,-0.564189289901714,-0.3556211866533014,0.017459094572034258,-0.13200687265073258,-0.649892682920116,-1.6691408844252964,1.8458074838559093,-0.961359149958862,-0.09723153728072884,-0.5890674536354729,-0.043122223522259126,-0.1749281417248505,-0.24731924019607843,-0.707675899316306,-1.0728642045626997,0.05369949874458247,-0.7453129495782387,-0.7078165363337231,-1.0526093394205291,0.5155095278271173,-0.6402361086715772,-0.4587018181107094,-0.6193440390149106,-0.45082530312866925,undefined,1498057373520
903d185fccf839df,-0.48795848948902815,-0.7360073146278532,-0.3251530924236279,-0.3923443581122709,-0.6875691866688536,-1.4850401479403783,1.8001330007331302,-1.0113166060195273,-0.3363963793136662,-0.5157999023302501,0.02743358534792969,-0.11601069539332956,-0.29518995098039214,-0.7530417761636075,-1.0854957915400798,0.007225484741294791,-0.8453719743517508,-0.768885112641137,-1.0571852538378663,0.42801555845887546,-0.6937337520549287,-0.4544250465400958,-0.5721599607199087,-0.45930278380665956,undefined,1498057375021
903d185fccf839df,-0.48795848948902815,-0.7688801545226509,-0.2702839084953182,-0.38465868180026697,-0.7065771515470972,-1.4091325703162125,1.75820600168759,-1.1491796266839809,-0.28326988127177377,-0.5344081990694008,0.07446352964985634,-0.06749385183597822,-0.5867660984848485,-0.8159984569642391,-1.1370748174049166,-0.2695978130122057,-1.024030206725838,-0.839440437486561,-1.1230882153751816,-0.1216781448075308,-0.8666964576894872,-0.46490120210662733,-0.67847588102201,-0.5222718779839144,undefined,1498057376546
903d185fccf839df,-0.45469403231021116,-0.7160486877797566,-0.3232394411944697,-0.41727280192004584,-0.8329163657519505,-1.4463072280338987,1.784414651289374,-1.0777866230916135,-0.3440195771733139,-0.4606620067349689,0.06508084423586429,0.0008115386153507492,-0.8609347147950089,-0.8678451668857678,-1.1444432317916111,-0.344360262652992,-1.0684659458801407,-0.8803575874388371,-1.1377185468449087,-0.154476834038915,-0.8983447044423678,-0.46783900923222865,-0.6509617760852262,-0.5187016045913913,undefined,1498057378027
903d185fccf839df,-0.36321708561715205,-0.680240772894352,-0.27028441676921705,-0.35264338124539846,-0.847912916735262,-1.4678457016195179,1.7952678664204287,-1.034752116303506,-0.36257775811753357,-0.41036631743394064,0.03505374494180712,0.04219221086117915,-0.9653799019607844,-0.8854360226421963,-1.1191800357501496,-0.41306100358369685,-1.0991578273668332,-0.9111483601409102,-1.13152636917623,-0.15396868369678574,-0.9129807192482186,-0.46378662910587437,-0.6287977371037982,-0.5218178283811093,undefined,1498057379527
903d185fccf839df,-0.6639823163840677,-0.5557934179246639,-0.11269511097956454,-0.07176434516827365,-1.2301808479681542,-1.5125717536561756,1.8222628267340815,-0.9859111769310848,-0.40431614659333703,-0.45637912083109244,-0.007446417993303244,0.04694518776564814,-0.8826941287878788,-0.8696968427289574,-1.0876010554227904,-0.2554535245316525,-1.0137815440024673,-0.8977288532968696,-1.1197577332204884,0.09068181677300072,-0.8516685705763373,-0.4587842758175728,-0.5829892882629485,-0.5086511016281389,undefined,1498057381032
903d185fccf839df,-0.6321039587669908,-0.5017880380974962,-0.004871410899901033,-0.008992605328727936,-1.3150995675270032,-1.5777438661038512,1.832947728158332,-1.0456978842919251,-0.4186932923752775,-0.3904340079592326,-0.026200582279705148,0.02986516143458796,-0.8261196524064172,-0.8437734974812741,-1.0949694955773033,0.027431538461372515,-0.9314451154313618,-0.8837837120943859,-1.110682869715301,0.1463933935284992,-0.825535862038752,-0.45629954742390744,-0.5857338599093975,-0.5306186319591774,undefined,1498057382518
903d185fccf839df,-0.6501221316437955,-0.542879146421978,-0.09100299752458084,-0.04422182391711687,-1.3128161405078702,-1.6197633399305014,1.862220095128937,-0.9436899290806062,-0.41176552565738817,-0.41055430849346664,-0.008372023088391821,-0.007672585477105002,-0.8174158868092692,-0.8169243207873831,-1.0918115905504453,-0.06753699316421309,-0.9446840448677382,-0.874144971523952,-1.0986203677455584,0.07275802572156845,-0.8348714327499289,-0.45202772366248745,-0.5838332001364771,-0.5334923299457066,undefined,1498057384023
903d185fccf839df,-0.6362619814089331,-0.575165029774639,-0.11588554624262591,-0.018585505108579096,-1.3303429667570288,-1.6478446473067636,1.845986296873654,-1.0974389350707956,-0.3950738407707791,-0.39576542744168985,-0.0050370893753983485,-0.015990062057151547,-0.8391753008021391,-0.8206276465722132,-1.1054958260342065,-0.004898215326083529,-0.9022930193805846,-0.8744616185804782,-1.099166119152983,0.05306341390153183,-0.8389647979936692,-0.4533619053951111,-0.5823961962001587,-0.5136703521647574,undefined,1498057385519
903d185fccf839df,-0.6570521981348743,-0.6937420593951592,-0.19563677061508183,-0.16441166614740801,-1.3641417700701777,-1.6871365837919605,1.8497442938796174,-1.163548010881548,-0.35810980907285855,-0.5975807656287557,0.009610523531597612,-0.08685036198765388,-0.8348234180035651,-0.8567351571543412,-1.0991800233427242,0.07188490752204227,-0.8249320215130136,-0.8841383557056433,-1.085487353583226,0.08507678109584904,-0.8316369902588658,-0.4501411008453852,-0.5852037293785168,-0.47014269780879425,undefined,1498057387030
903d185fccf839df,-0.09433026422542794,-0.7618359160892095,-0.24540186805117198,-0.38174760839937494,-1.0228212027464705,-1.654757830178802,1.8180840643165,-1.25014018065932,-0.2021448412240487,-0.7965901836969492,0.02261034078970858,-0.004518880419317729,-0.9566761363636364,-0.7724842624355146,-1.0791799998919482,1.0134882658313005,-0.5774100380461898,-0.8214358791155724,-1.0535888930961905,0.8018128232829578,-0.6423911789520176,-0.44782642049233823,-0.3653165475872211,-0.36777854415928485,undefined,1498057388525
903d185fccf839df,-0.06938205936295413,-0.7031344162770709,-0.3934203763255392,-0.5807572504945758,-0.30144411798826026,-1.5979872822621206,1.7938477756926252,-1.1394154953598634,0.03199451548276827,-0.9748950642534452,0.02674885845824138,0.04415897745866307,-0.7695451760249554,-0.7354509268825663,-0.8676008085076045,1.3529503131582088,-0.29381246719252213,-0.8037796320987102,-0.9577675693451576,0.9457882904404804,-0.5855715541675022,-0.4418977979693336,-0.3343987528401177,-0.174008855777521,undefined,1498057390050
903d185fccf839df,-0.39093748960310604,-0.8029270244136913,-0.46551547095966583,-0.6082933764151637,0.19878019033868954,-1.499958923031889,1.7577747181096395,-1.0891395598255513,-0.1531204987908593,-0.787707610310493,0.05979785380067852,0.03091209909408498,-0.669451871657754,-0.7660034423120619,-0.9086534891910704,1.4782279818933541,-0.266535579930814,-0.7938305767122708,-0.9590479856010141,0.8952967888856295,-0.5926131345864917,-0.4542763744666904,-0.3510466525346808,-0.1441408098810136,undefined,1498057391520
903d185fccf839df,-0.11096252732024617,-0.7295500327365486,-0.45403153048912126,-0.5498888788029693,-0.0017188940280933012,-1.464053702700732,1.7746422900957257,-0.9364481343519481,-0.1938379129868693,-0.7574477478301287,0.02991476063919936,0.022829213339625856,-0.8783422459893049,-0.7493384309526155,-0.8886534657402942,1.4741867485375613,-0.3014078076559871,-0.7878016147798635,-0.9530167345029771,0.9327304097520898,-0.5790685630047356,-0.45386405550586084,-0.361469846204054,-0.17890926847105182,undefined,1498057393024
903d185fccf839df,-0.16501697693984105,-0.5880793012773249,-0.3781076085749817,-0.4199995386859207,-0.49604950428364986,-1.532738308068336,1.834657095172093,-0.7927546399593751,-0.13830590370853854,-0.810209113659174,0.004878156036489056,-0.07165545554866894,-0.7826008244206774,-0.7335992704655385,-0.9633904016771806,1.4600426013806158,-0.2651601121416277,-0.7890555378383806,-0.9733424702710021,0.8862117069069836,-0.5941817029499167,-0.45772966575131896,-0.3575416861408445,-0.16342217279300955,undefined,1498057394523
903d185fccf839df,-0.5988396223571077,-0.3849719365593708,-0.11716182200263021,-0.3264574507155643,-0.8902797086282227,-1.5944305366814715,1.8495418047742864,-0.8895839278588655,-0.17106428536534218,-0.9141931480082801,-0.0328645115621293,-0.03905697605092341,-0.8565828319964349,-0.791000962588925,-1.0191799258585033,0.1325032100058831,-0.7040078190190446,-0.8356660030769821,-1.0112162074302316,0.2266500898079268,-0.7603004026675348,-0.4592767991055825,-0.517306270044533,-0.20426487369244054,undefined,1498057396018
903d185fccf839df,-0.8510943186756526,-0.4982659481087679,0.02192478904730224,-0.11067235785860433,-0.9710327166233816,-1.6411970004046927,1.8599926636417297,-0.9350131630303579,-0.2380321040510139,-0.8974823146017402,-0.02015276282616301,-0.032285108636055604,-0.9305648395721926,-0.8474768232661041,-1.1549695512051639,-0.3241542089329143,-1.0217484597323843,-0.8753608946448349,-1.1307357300671157,-0.3937686738509919,-0.9375237747431359,-0.4786996247237682,-0.651092313963472,-0.4944012717639989,undefined,1498057397522
903d185fccf839df,-0.7859516246486927,-0.5246816230242303,-0.09802124351985744,-0.2591476301264394,-1.0525571493377592,-1.586285186475656,1.8551801149230833,-0.8917136490882651,-0.24018222384638674,-0.935751268552189,-0.03417799293880353,-0.06484354465737852,-0.7651932932263815,-0.8456251797998509,-1.1497064007011797,-0.3382984126193029,-0.9723807005857394,-0.8540125416246166,-1.136256213255459,-0.2524879380390716,-0.9012190791074303,-0.4753644266569825,-0.6387919900411457,-0.47593004368546726,undefined,1498057399032
903d185fccf839df,-0.6321039415142858,-0.6696744444721824,-0.5305928278724147,-0.5892257091629476,-0.8899299886472787,-1.5656038726685138,1.8550196995306052,-0.8640271764429492,-0.26850751660783867,-0.7926497581782128,0.027103593951722727,-0.02352666689194532,-0.5780623328877006,-0.8826585283035737,-1.091811601593796,0.7993037459159295,-0.5672943980426155,-0.850941064195768,-1.0927010656704848,0.4971853725495849,-0.7208581130721153,-0.4722250478753634,-0.6181945476762118,-0.21522438842925068,undefined,1498057400554
903d185fccf839df,-0.24956385714182142,-0.7571397376482538,-0.6211906172462612,-0.6348919244693523,-0.46283698904456455,-1.5912837366305403,1.823017586089518,-1.0269415341759136,-0.33710242396794354,-0.7436274105522176,0.06337371769461646,-0.011911151221401206,-0.6999150512477719,-0.9104335364436722,-1.0339167877619444,1.2478786133489768,-0.4477582118901059,-0.8549308185353517,-1.0603478119932177,0.8920477069478162,-0.6285398999650234,-0.4655217939987591,-0.5971579466450685,-0.2022068181132343,undefined,1498057402020
903d185fccf839df,-0.1206644823861175,-0.8475402227269014,-0.6454347739473548,-0.6750332255285644,-0.49879578577902145,-1.6174760323742423,1.8417681004981405,-0.9682162652331604,-0.2826993197287256,-0.708094311315294,0.07504507379933033,0.05780741253982913,-0.6259330436720143,-0.9363568622651938,-1.0233904536239242,1.2822291251379367,-0.4373655796053813,-0.8696232478115343,-1.0549812580875086,1.2307673098008414,-0.5567151788010255,-0.45824625635936916,-0.586776856719784,-0.27831251629633397,undefined,1498057403538
903d185fccf839df,-0.4907304470746402,-0.8592804642333446,-0.603325806249594,-0.6606991963817613,-0.3693605732386704,-1.6222160335161822,1.8529789605200762,-0.8764868979044161,-0.29555534238469316,-0.6662523421586977,0.07867491020595399,0.06892023763877783,-0.8913978943850268,-0.9280243727739388,-1.0223378198420106,1.169075099940727,-0.4726779140801963,-0.8772544449760117,-1.0500275158155434,1.3064352703469488,-0.5421805352974897,-0.45813367399238253,-0.5766425049459268,-0.29448352402249667,undefined,1498057405371
903d185fccf839df,0.07892153607318005,-0.8129062209257703,-0.4821040061963288,-0.5698515244519072,-0.692732604409599,-1.6387233515727204,1.8569420790536388,-0.9305294761226719,-0.29287027830718165,-0.637885374026542,0.0731275100465276,0.057633890497503934,-0.8826941287878788,-0.9530218865754148,-1.0212851860600969,1.3751770683503475,-0.4229336620173953,-0.8908259437694258,-1.0484252463021793,1.2190644900096688,-0.5671525522206028,-0.4534973042341337,-0.5579893608048863,-0.275193086116774,undefined,1498057406529
903d185fccf839df,-0.481028336734425,-0.7272019727440631,-0.39214410056553495,-0.4531614039014309,-1.2849007550605067,-1.5936618887190215,1.8550512529820822,-0.9792978525593067,-0.2948002323551881,-0.5690434525071301,0.060894152324512694,0.029985922630716564,-0.847879066399287,-0.915062719576259,-1.0223378345664782,1.5832996251731433,-0.3377185778210606,-0.9075512477888782,-1.0691008223693557,1.0472486353565216,-0.6175162139301876,-0.44892877874455206,-0.5069799831503294,-0.23127654215159557,undefined,1498057408032
903d185fccf839df,-0.8940607136676361,-0.6673264429356816,-0.29771850045947307,-0.3260246392302541,-1.4652604530881723,-1.5801942292928317,1.8478745209010747,-1.0326176093313648,-0.28141409764376846,-0.652875747512792,0.05256138569443326,-0.031083265537001983,-0.9088054255793226,-0.9224693840966937,-1.1202326842565309,0.24161600184730037,-0.7721710874555572,-0.930381510244176,-1.12790901767772,0.38720967534721645,-0.793227666453437,-0.4527590867671875,-0.5463244784805984,-0.38610302253479883,undefined,1498057409527
903d185fccf839df,-0.9134649516007712,-0.6426718130145832,-0.3321713384189045,-0.33749914635526823,-1.5045518157191078,-1.5791810098266987,1.8491999428942745,-1.0250613813881642,-0.2623479578879914,-0.6508059649776995,0.052150628646321535,-0.016597541790059067,-0.8696384803921569,-0.9456152220549799,-1.1549695548862806,0.23151294672253997,-0.8067583807002667,-0.9497096541648664,-1.140937079511742,0.3364564021718135,-0.8102801280209014,-0.46297689166015843,-0.6261504138229579,-0.46877386018786205,undefined,1498057413799
903d185fccf839df,-0.8663404304506162,-0.6420847980164618,-0.35194929237083117,-0.33843117837019926,-1.5025049616303539,-1.5879901925640418,1.8439482196160037,-1.072397501020908,-0.2608914742583714,-0.6482221680610325,0.051986355658003844,-0.008938153043107033,-0.8957497771836007,-0.9456152220549799,-1.1581274488697881,0.2052450712334946,-0.8169162841418609,-0.9545353571750624,-1.139334809814866,0.33892015295857625,-0.8105411483973113,-0.46162575186069965,-0.627307890737489,-0.4697974840812128,undefined,1498057414036
903d185fccf839df,-0.7859515556378733,-0.6456068880051902,-0.4144746060374702,-0.3845314051567741,-1.3878297249023517,-1.667955303250358,1.8569552443075452,-1.0983193547344152,-0.2572462377892582,-0.7210820894292522,0.049821158308756476,-0.14848693500708837,-0.8261196524064172,-0.9391343825053655,-1.1770748495820011,0.2436365902604752,-0.8524385580353966,-0.9478920988256182,-1.158848915802581,0.22925242664409295,-0.832437610226423,-0.46291992041270247,-0.6446574361238763,-0.4585847761780016,undefined,1498057415524
903d185fccf839df,-0.7873375689360891,-0.7565528395621017,-0.47891407920716633,-0.49095899376264346,-1.3761863154947118,-1.7916472217839472,1.8974621337698887,-1.0120060290478734,-0.29522453280245714,-0.613913246078978,0.04409141994980307,-0.15539656134266308,-0.7695451760249554,-0.9345051993727788,-1.1160221491288762,1.4317539820224272,-0.28328281822848966,-0.9509572438035526,-1.113684501832195,0.7558330646149294,-0.6970612733396667,-0.46229953666424894,-0.6205245697092586,-0.266650515645632,undefined,1498057417064
903d185fccf839df,-0.6487361355982846,-0.7318981219570264,-0.494226338683825,-0.515794975776241,-1.282740756829946,-1.8504232438839217,1.8993187750152232,-1.0515650838530015,-0.3191099805495156,-0.5231814041763218,0.024944005428249216,-0.08287791826784272,-0.8565828319964349,-0.9011751896046606,-1.048653638622035,2.0439982209382905,-0.16485339817811268,-0.9304828365678811,-1.055617967669306,1.3068972266855077,-0.5430793566541472,-0.4523005887448161,-0.6056360817974361,-0.30292493856091646,undefined,1498057418527
903d185fccf839df,-0.48241433277993595,-0.6708485329244098,-0.33536126540806704,-0.3101870670889511,-1.2627042190230153,-1.8783927483286067,1.9449985093647555,-0.7497079223869859,-0.3581702951056941,-0.6277998668572117,0.007444089513326813,0.018591618405603978,-0.9001016599821747,-0.852105986972529,-1.0286536078090252,1.7045360605524957,-0.2435675076278572,-0.8566723779801946,-1.0291000547586697,1.4850264424773163,-0.4619333989096008,-0.4407677007191932,-0.7371884734115663,-0.4038577633001577,undefined,1498057420025
903d185fccf839df,-0.49073039531652557,-0.6972642078398723,-0.030391843360998837,-0.0177139792281508,-1.297696161448172,-1.8496545951603873,1.9234998414326874,-0.8592848783754056,-0.37772602470135214,-0.6387650331058321,-0.017010702258037556,0.00961438621094371,-0.8913978943850268,-0.7956301392461246,-0.9939167445415092,1.8762878280850932,-0.2347754794557364,-0.8154069168066718,-0.9988248537894344,1.6017928554408034,-0.4133590405344674,-0.4318300086851875,-0.7355792147515023,-0.34738185872969696,undefined,1498057421521
903d185fccf839df,-0.4588520894575633,-0.6344535445848991,-0.0189073946165554,-0.06838488861535434,-1.2384094047026957,-1.8436707796518408,1.9164966680001068,-0.8821586144965033,-0.4023206899622675,-0.747894617963764,0.0019181299288172436,-0.07142508690952343,-0.8739903631907309,-0.803036797291172,-0.9433903340530018,1.682309418419243,-0.3581005837479861,-0.8133297111919006,-0.9555985560954497,1.8587775123420045,-0.3473893459492248,-0.4475143173771057,-0.7915451328680233,-0.33112643424690064,undefined,1498057423021
903d185fccf839df,-0.6958606222430299,-0.7506826311249032,-0.18670487339064704,-0.18525140368789106,-1.178268934740932,-1.7705210207759752,1.852092716229067,-1.218275193451092,-0.4423726195272039,-0.8958141060653715,0.05740975991193498,-0.0435180426305736,-0.5954698640819964,-0.7817426157499134,-0.9749693327859456,1.5994643890079852,-0.3983978694543867,-0.8175791171025871,-0.9693752764669448,1.6545479306167659,-0.39711777101478396,-0.452246041366012,-0.7990495837298465,-0.321647291027132,undefined,1498057424523
903d185fccf839df,-0.7221948749091293,-0.6115599012021803,-0.30346047069474535,-0.28563366276063934,-1.2174677258464555,-1.7200184540365926,1.8681161364923893,-1.0583870854329123,-0.42654751232099963,-0.7979176819127524,0.056087833595672924,-0.058917208630467566,-0.7695451760249554,-0.7687809431260717,-1.032864150298914,0.9023547725178221,-0.6801236695635979,-0.7727925386187913,-1.0157221520810782,0.9617564779644101,-0.5643990221979718,-0.45647641679856915,-0.7641117584051937,-0.29047028098195987,undefined,1498057426031
903d185fccf839df,-0.7762494970557727,-0.5041361565459664,-0.027201916371836322,0.017936109301709687,-1.351027502805208,-1.6863423136431568,1.8734651577849668,-0.9926984523272758,-0.3428436483961645,-0.7310802804023814,0.053617630717101065,-0.04048988601442856,-1.0088987299465242,-0.7780392834896961,-0.9991798987266103,0.7548504051199812,-0.7384784480798346,-0.7704493507924928,-1.0133222459503777,1.0737955692932593,-0.536394967784695,-0.44976141255557195,-0.7718167247717321,-0.3314190400511044,undefined,1498057427515
903d185fccf839df,-0.652894158240227,-0.6602822629582249,-0.32004900593140834,-0.31412491749338867,-1.3520046448020648,-1.7252312925559403,1.8853413586069663,-0.9763553111727988,-0.32022352141164656,-0.6626889052575083,0.0418133705404495,0.026994847282110396,-0.9566761363636364,-0.8261826482002329,-1.0065483241566555,0.7023145976124475,-0.7717435237489497,-0.8395797639140001,-1.0050100345615975,1.324513057565053,-0.5086269132627181,-0.47436009702946813,-0.7156681761940253,-0.3728451765988763,undefined,1498057429078
903d185fccf839df,-0.6653682779241687,-0.5957105547088876,-0.36279585737222186,-0.3946672782485793,-1.3632777663455986,-1.7361018528668213,1.9202967376714015,-0.7595187159848867,-0.325797689200067,-0.6292319494278317,0.05349529873803245,0.022034038353405856,-0.9349167223707665,-0.8076659674729841,-0.9981272649446965,0.320419713108601,-0.8772230025986367,-0.830384329295787,-1.033305137545017,0.8260345787911674,-0.628453456574726,-0.48200176063448563,-0.713454219085159,-0.49692257829556596,undefined,1498057430525
903d185fccf839df,-0.5960675440025617,-0.6238872746187142,-0.3787460005919333,-0.4357613841978449,-1.3530023538778753,-1.7360319785416334,1.9119076656698928,-0.823154381844651,-0.352933751471019,-0.7034335917429021,0.0827615803479294,0.01546931749067195,-0.9523242535650625,-0.78914929969651,-1.0233904573050412,0.2294924431035297,-0.8894374388282381,-0.8045395857275638,-1.0359989097203037,0.6412840305958679,-0.6647375100030041,-0.4747081047256651,-0.7004586655310956,-0.5083236912915274,undefined,1498057432027
903d185fccf839df,-0.6293319839286738,-0.3961252507516695,-0.2581620842817209,-0.30263620394677726,-1.2516779541263836,-1.8246012999107792,1.9466579253017728,-0.666198953093952,-0.37785085568395227,-0.7130723410395575,0.07950105716969183,0.00124396302806763,-0.8826941287878788,-0.8215534715430334,-0.9812851354774278,0.7407061166394281,-0.658659198934509,-0.8412959905653867,-0.9748747697548424,1.6861609471415284,-0.4040857561680324,-0.4777597929658993,-0.8633885980703249,-0.3938332262083164,undefined,1498057433519
903d185fccf839df,-0.6029976277463454,-0.42195393989700286,-0.23264165182062307,-0.2819637314452142,-1.225644857062577,-1.8031629815715502,1.9331301995244297,-0.7323790261280549,-0.3740734464255172,-0.8169500064734007,0.06201411111443391,-0.054705087592040576,-0.847879066399287,-0.8548835072127007,-0.9981272465391121,0.9932820990523364,-0.5695551020928942,-0.8953729964383901,-0.9556405371503388,1.8398220322441379,-0.38286931660973184,-0.457932926003663,-0.8065090169699191,-0.42509842666136133,undefined,1498057435027
903d185fccf839df,-0.6528941409875222,-0.5123543665196658,-0.18861852461980522,-0.29625536308388783,-1.2214071497146846,-1.811394512036945,1.9084494557835672,-0.9012045200079891,-0.29062626606750186,-0.7390051136131979,0.0011934389387818092,-0.007615739602313122,-0.7216744652406417,-0.8206276271460513,-1.0223378198420106,1.0377354963777279,-0.548258008686282,-0.8548041589365006,-0.9964879189627415,1.4971604241528333,-0.45033301511352514,-0.4762693612145369,-0.8952523081026776,-0.3074479118456892,undefined,1498057436523
903d185fccf839df,-0.6542802232965573,-0.676718624449639,0.09848608643059566,-0.012681434827684971,-1.23587912533378,-1.6999101352452277,1.877607091431317,-0.9615825569066591,-0.23341159758999178,-0.802438541189441,-0.031556559035474524,0.03283607519164701,-0.8087121212121212,-0.7585967713162399,-1.0633905042065932,1.146848288219145,-0.5101213707858365,-0.7983902958831597,-0.9899738885809733,1.3637328963262576,-0.4548203663729972,-0.46282433488585406,-0.9296762172336742,-0.33239942904924336,undefined,1498057438025
903d185fccf839df,-0.5045906490676172,-0.5869052128250974,0.23374488674831287,0.1513117061176582,-1.0964359316115295,-1.6447258008246717,1.8469935163140783,-1.0416749385911137,-0.2329116345938438,-0.6818818671893044,0.00022919080012138334,0.06095490196433341,-0.5954698640819964,-0.7604484471594295,-1.0570747162395786,1.2802084519305974,-0.4703212711170037,-0.8040582814156587,-1.0021973169133775,1.3179379208075344,-0.4726354622362759,-0.4688279897463439,-0.8777174754420538,-0.3230183431709153,undefined,1498057439516
903d185fccf839df,-0.5018185879657759,-0.5364219814426427,0.15909774886807648,0.11157383840176091,-1.1299570180898544,-1.6081264631846244,1.858540993274405,-0.9044955673020767,-0.270636905359457,-0.8002358271886884,0.010244630856465686,-0.0143954881098635,-0.8565828319964349,-0.6687908684940063,-1.0633905189310608,0.11633833311215509,-0.8341052297308307,-0.7258400943164139,-1.0160859870602346,0.41946942278435184,-0.6669336845796643,-0.45937404402761284,-0.6854764147312206,-0.5081668279047307,undefined,1498057441062
903d185fccf839df,-0.6861585291555197,-0.6373886195755061,-0.06994825953875101,-0.10908141070660367,-1.1842654959683212,-1.546250223692476,1.880883822356933,-0.6934195365937155,-0.2971855624306411,-0.7013207509498154,0.08097240433536697,0.058433872961523886,-0.9349167223707665,-0.7011950856682406,-0.964443009691276,0.06380249733989979,-0.8116539409083594,-0.6942577038096936,-0.9870422243771001,0.430186741622706,-0.6493821121427259,-0.47499125179986745,-0.598592914946635,-0.2551695413258988,undefined,1498057442517
903d185fccf839df,-0.7707054438629097,-0.6544119960650416,-0.471257949468837,-0.540748637747368,-1.2669625011338626,-1.5233747660084465,1.8211740755298709,-1.0679019648203008,-0.2995434399714063,-0.7226274349607836,0.09051068477714488,-0.0002297739716070411,-1.021954378342246,-0.7641517794196468,-0.927600867816582,0.7205000629193503,-0.6391918228974512,-0.7480813924394378,-0.941255093743208,0.7424826141630994,-0.5837956926972732,-0.4913179385469512,-0.702516273664496,-0.15021179420110195,undefined,1498057444031
903d185fccf839df,-0.7748634492521472,-0.7219188377609705,-0.5363353063815858,-0.5496701534647097,-1.200846040222496,-1.4637252770431044,1.8094714448790374,-1.0332259604781757,-0.3155622248961319,-0.6249371303547816,0.11044318420124266,-0.03488550385041218,-0.8957497771836007,-0.7771134455681012,-0.9202324202998353,0.6942321591655835,-0.6420414455881414,-0.7705886750772422,-0.9585232232865832,0.8779889350597069,-0.567066219196223,-0.5051203006635938,-0.7217562400614406,-0.17617530184887795,undefined,1498057445517
903d185fccf839df,-0.7138787951198348,-0.6338664711307931,-0.37172826287055555,-0.41587397705007345,-1.1024016329370712,-1.4396036755018204,1.8092452891138162,-0.9279521649747106,-0.3558064452229514,-0.6999240516608376,0.09142077520952122,0.08787849268165564,-0.8826941287878788,-0.6993434033496637,-0.9139166323328206,0.7689946370710913,-0.5384778198032338,-0.7098937415941476,-0.9531636663569116,0.819536435216704,-0.5438951439579467,-0.5130025288648183,-0.7645861956285074,-0.1655395440151979,undefined,1498057447034
903d185fccf839df,-0.548943109115931,-0.5411181014276139,0.1367672433961412,0.03614770833907414,-0.9757435618179455,-1.4253743521128468,1.8283771245009066,-0.7231762121425059,-0.29384475105976116,-0.5297234766583926,0.09067350028313863,0.03228836772837022,-0.5867660984848485,-0.693788401721644,-0.9086534744666027,0.8215304728433467,-0.44787071625140784,-0.7121862669728236,-0.9437179713920126,0.7780684222087337,-0.5537428250607818,-0.49815150703340155,-0.6814858729045657,-0.11911678610027596,undefined,1498057448513
903d185fccf839df,-0.3216367556814989,-0.5276166395588526,0.7377739361288933,0.6665557702240815,-0.7276731206401597,-1.4596887053449132,1.7065960673364282,-1.4832996525162052,-0.18081055975080743,-0.4292328588357418,0.025707614107943737,0.06937065464687561,-0.7564895276292335,-0.5521358731579163,-0.9360219307096579,0.6376551465669784,-0.5364813612232942,-0.653587539635289,-0.9489935670988802,0.4020691806281938,-0.6182752366007483,-0.4840722395990433,-0.6096718353973642,-0.30483401065432375,undefined,1498057450016
903d185fccf839df,-0.3853932983886041,-0.6555861429732538,0.21332828664248518,0.14219179247984554,-0.6018790467999341,-1.4691570637635238,1.7601810003253766,-1.150263861636407,-0.18124238375552382,-0.5511760692808749,0.036523339384966054,0.06894800881913508,-0.8261196524064172,-0.5002891373348386,-0.9454956384279982,0.8073862691569581,-0.5454712643825144,-0.6092885981413156,-0.9095315541275616,0.6512006305133365,-0.5457255447666107,-0.4988600457642923,-0.5309122689341893,-0.22347850935639038,undefined,1498057451532
903d185fccf839df,-0.2634240591347984,-0.7137006277872711,-0.18734275713369974,-0.3391869846686647,-0.3316223569521306,-1.469795275732344,1.7678521459327665,-1.0600904932734216,-0.2731076004822403,-0.6842752935188036,0.01831371850202153,0.048447060498695294,-0.8000083556149733,-0.519731655983682,-0.9486535434548562,0.8457777033897741,-0.39870515921258376,-0.624234345646284,-0.9103012026266512,0.7391873488300157,-0.5375982671705465,-0.48350077686728254,-0.4781297927469097,-0.25769507085814825,undefined,1498057453077
903d185fccf839df,-0.0763121258540329,-0.5563804329227853,-0.24922967878338723,-0.34666080694537876,-0.18578145907379692,-1.487541750138234,1.766905416685854,-0.9981400501309053,-0.41974365247113626,-0.7882118990246821,-0.015102191354520386,0.05073625984927843,-0.9218610739750446,-0.5873175199169005,-0.9539167013210741,0.902354715988379,-0.4206063841561195,-0.675474193443899,-0.9079782616296914,0.9162540729360908,-0.5254449396454267,-0.45886563369941663,-0.5015896103709927,-0.28671053527349105,undefined,1498057454521
903d185fccf839df,-0.22184366018832583,-0.3714705331465942,-0.3047367464547497,-0.3286812374441463,-0.36086459715541414,-1.4312929507190897,1.7830498047659387,-0.7699901138604109,-0.4034581200613132,-0.8121797334692186,-0.09003427149927534,-0.048040651747342594,-0.9349167223707665,-0.6336092023088603,-0.9328640256827998,0.7548504051199812,-0.48205181304543465,-0.725536114082939,-0.9462158333643512,1.117049799697868,-0.5173045564612311,-0.4639023251017291,-0.47044509996149775,-0.27346629502623826,undefined,1498057456017
903d185fccf839df,-0.1913512986167598,-0.6414977830183405,-0.0169937433873972,-0.13098809830969213,-0.7124091460750306,-1.4391774255743768,1.8466595537959138,-0.48513787115700846,-0.3428073163096179,-0.8397636679625213,-0.04820422471300783,-0.022661682518169374,-0.7826008244206774,-0.6169441844740268,-0.7960217444675242,1.304455541153417,-0.48253137497815163,-0.71195194887065,-0.8665011676091376,1.6887324902235203,-0.3589522013701118,-0.45605201793233274,-0.5143897639500895,-0.18012302000668276,undefined,1498057457517
903d185fccf839df,-0.5586451676980315,-0.7817944844813214,-0.3283435276866893,-0.4217614975003044,-0.7464753735141384,-1.4179883357050642,1.801371659638704,-0.8814990496725125,-0.3384926125701039,-0.6909832770950578,0.053524335499931304,0.023145202435478764,-0.5824142156862745,-0.7076759122670806,-0.8802323660360494,0.8336540315871173,-0.28408854738350386,-0.8188013746288273,-0.9712994007854333,0.8061089934934665,-0.6177100767958427,-0.3905556349229869,-0.3723735971235225,-0.1211565467159142,undefined,1498057459025
903d185fccf839df,-1.0465222627348931,-0.9678783557977706,-0.8011094119600514,-0.8844502061747079,-0.7862193051983455,-1.3011280748945717,1.7548609021570505,-0.9767370848571572,-0.24992344764935923,-0.7636813231258303,0.07289505867958751,-0.021030727839057024,-0.5824142156862745,-0.8345151376914879,-0.8633902476121313,0.8639631262995946,-0.1847601998688358,-0.9036184893887244,-1.0239364092064218,0.4175754182350861,-0.7525255818522124,-0.35176618106866114,-0.2348833875725246,0.04611309360452457,undefined,1498057460517
903d185fccf839df,-1.133841307554944,-1.0688450523866186,-0.8980875635861219,-0.9633689979290794,-0.7308925400742264,-1.2637717397099166,1.7316896834121915,-1.0462897429994917,-0.284394555984407,-0.6902367158301868,0.09459606054492418,0.02299145629694549,-0.7260263480392157,-1.0039427618130423,-1.008653591720483,0.6517993078562847,-0.297218634413025,-0.9900631712550614,-1.0873065253348382,0.046272703458025415,-0.8892743101249537,-0.35711180948155197,-0.1611645518226601,0.1770009907614678,undefined,1498057462014
903d185fccf839df,-1.3001631103732927,-1.0265799725218787,-0.9682684987171915,-1.0114740414002115,-0.8969756915007292,-1.2856759030332148,1.743931425344355,-1.0573084593075839,-0.27411017358382284,-0.6854857737513995,0.09055194597701263,-0.011822425518434336,-0.7216744652406417,-1.1159686549588863,-1.2865486708731046,-1.0576348549634083,-1.2798041156389626,-1.1201798318459,-1.2443919256787093,-0.9324832889740093,-1.2012078213446242,-0.4439581258291273,-0.5184164588409843,-0.36637492574867553,undefined,1498057463651
903d185fccf839df,-1.3223392541339252,-1.082933412341532,-0.9612502527219148,-1.0089188243180793,-0.9827789777680435,-1.33229795951618,1.7636391882137443,-1.0651062523547454,-0.27989271245169367,-0.6821506746213459,0.09248769090439486,0.05538558897848916,-0.6346368092691622,-1.1530020067003028,-1.3244434538919463,-1.158665236622683,-1.3591287273709423,-1.1886009552700028,-1.3014928990047063,-1.2152757414259356,-1.3082244107860015,-0.4757044169619598,-0.668998449465105,-0.525774297478829,undefined,1498057465014
903d185fccf839df,-1.3043210812571204,-1.0958478592121716,-0.9535941229835855,-1.0115288258655204,-1.0412223078404914,-1.3679260022736095,1.778166239307273,-1.0660524701913827,-0.2801454928053218,-0.6818678510472541,0.09145647479039332,-0.0004912665636382765,-0.5301916221033868,-1.176147855990517,-1.338127682013474,-1.203118605683353,-1.3818928785074769,-1.203052732824861,-1.3126248250911485,-1.263411282267972,-1.32680521377519,-0.4764978469200408,-0.6712353795004273,-0.5278134404412447,undefined,1498057466511
903d185fccf839df,-1.2946189881696102,-1.0876296492384723,-0.8942592445800078,-0.9496541518876467,-1.020794912389798,-1.3813936614678495,1.8238459726092835,-0.8002402502127384,-0.27688139688530855,-0.6956551146031461,0.08917390858253513,0.0281828939593251,-0.8348234180035651,-1.1742961850038678,-1.3454961111246362,-1.2071598249067848,-1.3806330245195673,-1.200050917510704,-1.320804096981516,-1.2667219483485566,-1.3279197033577674,-0.47672823242228846,-0.6716768777229705,-0.5297541454719161,undefined,1498057468022
903d185fccf839df,-1.2863029083803157,-1.1017178922814161,-0.8444941471439177,-0.9012764766230547,-0.9887961098053574,-1.3923177901985204,1.8661490361689295,-0.5475007962495269,-0.27863090232032106,-0.7063894783922979,0.09190366868638214,-0.1880506315631341,-0.7347301136363636,-1.176147855990517,-1.3433908472419256,-1.2132216502088427,-1.3749889223639593,-1.2023371101671692,-1.3121000644283243,-1.2743903741538827,-1.3263638652153118,-0.4768201501145086,-0.6729737679247967,-0.5261969154063433,undefined,1498057469517
903d185fccf839df,-1.0492944273529636,-0.8898053610476261,-0.7041322768817786,-0.7843322787450352,-1.0599525587846668,-1.5229624865022138,1.9004522260694243,-0.5083813853011871,-0.16353022560779182,-0.7243409843482623,0.04782722300160703,-0.5790209981858666,0.8406514594474154,-1.1150428235126788,-1.2570749581095728,-1.0475318069048283,-1.254432887510582,-1.1296032522316424,-1.1637956619732486,0.12389626296791216,-0.9244866054673558,-0.3897056789174812,-0.25070125846805386,0.6136796281462689,undefined,1498057471014
903d185fccf839df,-0.3216367556814989,-0.47713334972041327,-0.6192764577432043,-0.6040785922449401,-0.5692013886630722,-1.605131059781844,1.8433144270298076,-0.8546536270627274,-0.04163240312428882,-1.0175650196019967,0.021343815838298464,-0.7861841728373988,3.9522476604278074,-0.9752418995628808,-1.0212851934223306,0.23151298911962226,-0.5403992816700323,-1.027186888254633,-1.0936106520142461,0.4890088027024903,-0.7815653917682172,-0.3784738342796647,-0.2853283133963467,0.5149334541183808,undefined,1498057472514
903d185fccf839df,-0.04304780669685484,-0.7277890461981691,-0.49103590342076364,-0.47033934092601526,-0.7647633459253371,-1.6386721046059838,1.7949338745716539,-1.2715276307568222,-0.07313144188811803,-0.93579119648361,0.01280731918308367,-1.034100992677069,3.7955798796791442,-0.9557993841517309,-1.0233904573050412,0.1426062651306435,-0.6183287640555265,-1.006547824832159,-1.0448498770208,0.6703254988018005,-0.7209912763426147,-0.3951951425846762,-0.34704446268600686,0.376574774538049,undefined,1498057474024
903d185fccf839df,-0.25649399264371964,-0.9461588008672792,-0.6696794389223472,-0.7054439446699619,-0.7757998966930525,-1.5302483495907806,1.705473143876256,-1.7508474468642155,-0.2096143177787858,-0.7929650999096701,0.10395916891242574,-0.8754478077405512,3.0514079211229945,-0.9483927163936026,-1.092864220651242,0.013287363039705487,-0.7596495376133957,-0.9882962811206956,-1.0297787465086614,0.7570187467990168,-0.6907280585253371,-0.4064708381392265,-0.39712846236604127,0.3132560241088215,undefined,1498057475583
903d185fccf839df,-0.5531011145051685,-1.0283410175162429,-0.7717611687667383,-0.8065829998708924,-0.6265750028986485,-1.491282508192549,1.7386928516071634,-1.473426004309774,-0.2762946905332732,-0.6744346592847577,0.10079739561908678,-0.5087573954114213,1.8415845031194298,-0.9270985348523441,-1.1033905511081454,0.08804981268049182,-0.8136764599403699,-0.9608049725673069,-1.0634613930780215,0.5370673532289434,-0.7517958285564157,-0.40122098592627836,-0.41233212574093714,0.02656773054490352,undefined,1498057477010
903d185fccf839df,-0.7263529838145959,-0.9443977558729151,-0.6932857118803879,-0.7513796943617453,-0.387267973989219,-1.4487342964178822,1.762905472523626,-1.1640183756043763,-0.312004476142177,-0.7301456153495446,0.07546004906498327,-0.27946655846645735,-0.5258397393048129,-0.9696868979348611,-1.067601039334248,-0.06753696489949156,-0.9514506630006234,-1.026262276346117,-1.0763914991009902,-0.03346045361899098,-0.922313275559925,-0.44112750868386386,-0.5883845875768824,-0.26026655886799854,undefined,1498057478516
903d185fccf839df,-0.41865768655660157,-0.7084174928041787,-0.32196265716056655,-0.48121522968582275,-0.5090917650476255,-1.4878515350287356,1.8071282873741246,-0.913095270750948,-0.1892777163550064,-0.8142288930171544,0.01614297794825291,-0.03061929422916337,-0.8391753008021391,-0.9428377180032765,-1.0560220714143143,0.4699446123901737,-0.7394895612348921,-0.9862507382698682,-1.0696815575314274,0.2911387783676885,-0.8316360846630244,-0.43206377698834886,-0.5542851535091091,-0.24862965842191226,undefined,1498057480040
903d185fccf839df,-0.47687031409248265,-0.502962068093739,-0.10248693799512543,-0.1957922002467616,-0.5646756680745278,-1.5722585059477332,1.8139841907652194,-1.0008527164110765,-0.1737111102579513,-0.9568946501495207,-0.037462033804867914,0.023503059226875265,-0.8217677696078431,-0.8789551766171945,-1.0054957014180925,0.6679642836765382,-0.6326723228753495,-0.8870451745170932,-1.029239990444019,0.5789203236036241,-0.7228344756187596,-0.4117656537462866,-0.5041144249755676,-0.24552731611228873,undefined,1498057481520
903d185fccf839df,-0.47964240969973365,-0.36560044162136496,0.038513324283965235,-0.011796502323579663,-0.5821716444284453,-1.6145085761752804,1.8196119701774214,-0.9860911264155914,-0.2889279701988347,-0.9981427126273364,-0.01630091037241869,-0.0145046940475372,-0.7129706996434938,-0.8465509918198966,-0.9612851341133531,0.38507910762462694,-0.7280787700033322,-0.7251371372581701,-0.9058512310987133,0.8451748434518823,-0.5479515695818772,-0.36550587554542024,-0.6069991207136172,-0.21573887811849016,undefined,1498057483064
903d185fccf839df,-0.3867793806976393,-0.21062836520534933,0.10359068119671407,0.08051541759442926,-0.627778426245314,-1.6234528560330819,1.8215922189944385,-0.9625524864259434,-0.18777100645348563,-0.9256267310258569,-0.0005200110829767746,-0.048239694046386894,-0.6259330436720143,-0.6493483692713247,-0.8170744127435646,0.9144784160557574,-0.5363380975654584,-0.5782318426408287,-0.7742622091429084,1.1872513094046198,-0.3783628692359898,-0.26113822009355947,-0.37609685468516946,-0.043855621909664626,undefined,1498057484525
903d185fccf839df,-0.22461568678475732,-0.22882583014711236,-0.2581620842817209,-0.19989297009461215,-0.9046385342919968,-1.6325694996138436,1.8429383562305715,-0.8908134486830984,-0.22763714463767895,-0.8304288359760231,0.013537142901582554,-0.133416603126633,-0.09935522504456328,-0.5771333286809067,-0.8844429158881718,0.6578611437576131,-0.5728081781500929,-0.5837605030248586,-0.8287533731741467,0.7989025186013886,-0.4742294865250138,-0.21671981549238087,-0.22767455593650163,-0.04364684131201709,undefined,1498057486090
903d185fccf839df,-0.5988396051044029,-0.315117093326941,-0.15352831119121987,-0.12234419797606846,-1.2497853840628343,-1.646645090783499,1.89023016691221,-0.7200855967966548,-0.1874081340589971,-0.6624454075144995,0.009702906363925684,-0.1582859860513343,-0.2342635918003565,-0.583614187656683,-0.8876008135527961,0.7427266767878814,-0.530524813660787,-0.5821076050461859,-0.8320978486325059,0.7214329381475786,-0.4895518337103157,-0.21829723238787493,-0.20018307845945482,-0.001427613371393569,undefined,1498057487543
903d185fccf839df,-0.8150578866585187,-0.3996473699683901,-0.25688580852171655,-0.3047134394007857,-1.4199313858375364,-1.6960925114545478,1.8673718879706327,-1.0210907442745714,-0.3663737282690692,-0.6577540492168458,0.01346827478428986,-0.06366536478228842,-0.8565828319964349,-0.6586067225857235,-0.8402323264967311,0.7245412962751431,-0.5137508258623408,-0.6022906961972242,-0.8359111104991244,0.2996079218284428,-0.5808644402510805,-0.21147151909488415,-0.08428558314392352,0.11593093487242563,undefined,1498057489032
903d185fccf839df,-0.8358481378898696,-0.35386008320295254,-0.23072749231756604,-0.29212160476467525,-1.361765770867461,-1.7210037247287175,1.887453089216991,-0.9168279236062872,-0.3514294629480126,-0.6238413366957042,0.006565358370206229,-0.06603125915670506,-0.8783422459893049,-0.6067599997134203,-0.7202321931543085,0.20120383787770182,-0.4875109362524194,-0.6037092754037866,-0.7841487041350657,0.0928529953057966,-0.5964844063948384,-0.1825471316326779,-0.12077635132069531,0.11532854575026924,undefined,1498057490571
903d185fccf839df,-0.7083347764323814,-0.5587284929152708,-0.08717467851846673,-0.019832691319665016,-1.3784388867090642,-1.7825212624368671,1.9086572160185646,-0.8678769179674445,-0.2857854096116296,-0.5123320598251367,0.002009587158203379,0.08327194475199359,-0.8391753008021391,-0.6363866836967084,-0.704442719555655,0.04561707443007923,-0.5802369034315559,-0.6557470731136897,-0.7957704067504269,-0.007945228033640298,-0.6478140563199499,-0.19807036376896073,-0.16646865109678563,-0.07014529013127219,undefined,1498057492034
903d185fccf839df,-0.6126997898446751,-0.5945364954846525,0.14761330012363305,0.13990424065759455,-1.1851089246538735,-1.8897920453199364,1.9336745536523385,-0.7909320583957903,-0.3090023404820211,-0.5313730637814197,0.017044118062822813,-0.0281223471853625,-0.8261196524064172,-0.7039725605807013,-0.9360219454341254,0.04561707443007923,-0.6723926292372118,-0.7549399709237432,-0.902408801627717,-0.049197662307257035,-0.7217372512205956,-0.33044995380272557,-0.5280376465990237,-0.45001991969121985,undefined,1498057493540
903d185fccf839df,-0.30084638368121397,-0.7043083732033327,0.22672664075303625,0.16737294379939446,-0.993239535599193,-1.9650288006177954,1.932672600103972,-0.842212877754239,-0.3392554441662542,-0.5053707908205509,0.05538428318707528,0.05804871505259837,-0.6172292780748664,-0.6891592380152192,-0.9486535360926224,1.1387659063017241,-0.3120358898212836,-0.7331546449669583,-0.9050046176493951,0.7139646919715064,-0.5332213708788854,-0.3601429280120872,-0.6030528149642609,-0.49457843130339685,undefined,1498057495040
903d185fccf839df,-0.18164920552924954,-0.8751299422526029,0.09019258122311243,0.03862325838986106,-0.6675943626800591,-2.040892121210442,1.9291039541849997,-0.8852410937196448,-0.27340857463936014,-0.6686989151392613,0.08395783734650805,-0.04315135579026632,-0.865286597593583,-0.6576808652379669,-0.9581272290864952,1.0336942912866565,-0.3312891329506418,-0.7045487382931288,-0.9031994399721988,0.8368134899304526,-0.49559117569822775,-0.36366146556879947,-0.6586147886274515,-0.5164246180645246,undefined,1498057496516
903d185fccf839df,-0.25094987044003714,-0.8493012384932733,-0.1548035704034265,-0.13548268158803242,-0.507950061996783,-2.0057043048432277,1.9492377462630217,-0.6997037300998107,-0.2727148510072079,-0.6414692368489133,0.08860435884528127,-0.016790869202549272,-0.6128773952762924,-0.6521258765607217,-0.9823377545348739,0.928622676271589,-0.35383182270747865,-0.708437166846064,-0.9550528054098386,0.9151915776424578,-0.5060713551018589,-0.38734475658141254,-0.6351886364708332,-0.4072709891105263,undefined,1498057498099
903d185fccf839df,-0.4131136333637386,-0.7747502752758724,0.053187700017571185,-0.027769366062104582,-0.3465160423268076,-1.9821766606312239,1.964787794570235,-0.5454354549965469,-0.27802322765553866,-0.5942586342931795,0.06936933802984664,-0.07886623712802046,-0.499728442513369,-0.6965659025356539,-1.060232606541969,0.9892409363583475,-0.37878216298902145,-0.7101977252548188,-1.05549202487778,0.763516890481179,-0.5655632887302046,-0.437988050893585,-0.6723283504798745,-0.2940301878992897,undefined,1498057499562
903d185fccf839df,-0.40202559598883203,-0.7935347844437491,-0.045704102837657516,-0.042935074939906843,-0.41569764016343147,-1.9729156055010195,1.923286824733328,-0.8278409717101197,-0.26175279079457964,-0.6597677448296732,0.07989178064803765,-0.06290708519885536,-0.6389886920677362,-0.6974917469326359,-1.0633905189310608,1.029653100327946,-0.43469639504167257,-0.739259603618734,-1.0644969205555854,0.7619154515489612,-0.5850452577879942,-0.45909623772524233,-0.6384491767955608,-0.2846412177798689,undefined,1498057501077
903d185fccf839df,-0.46855423430318816,-0.7677060660704235,0.1961021217997189,0.14072398822931306,-0.4693786964580977,-1.9586583328777627,1.900370686972985,-0.9853897754644841,-0.2804156944236997,-0.5449294759376326,0.08744349573318931,0.09495756320621326,-0.5214878565062389,-0.6984175589526816,-1.0602326028608522,0.748788498556849,-0.4120402160148562,-0.713440191481947,-1.0544634931773096,0.6574062029108184,-0.5916085927113148,-0.47491515443987453,-0.6521729876698252,-0.2779484765174645,undefined,1498057502573
903d185fccf839df,-0.4325178195387591,-0.7254409862056835,0.23246861098830854,0.1570924947788856,-0.4962860801187855,-1.9486449335920875,1.9048702896032184,-0.9478667065167551,-0.3054499061949561,-0.5119945599360632,0.07347625038457373,0.07074989877022564,-0.49102467691622104,-0.7086017307625135,-1.0686536804783957,0.6093666685323975,-0.5018271924720388,-0.7208434020705415,-1.0648817443952872,0.5642456074896041,-0.6164493710330102,-0.4812132895350642,-0.7125854309628932,-0.30729585413378,undefined,1498057504326
903d185fccf839df,-0.5004326091729699,-0.6755446236813886,0.47172279237957515,0.335768179347186,-0.5324608767611209,-1.949926014927242,1.8584962976145019,-1.2535752235549218,-0.31851291433516715,-0.4974494013603396,0.04950703281265437,0.02135774344612196,-0.3343568961675579,-0.7067500743454858,-1.0812852748180095,0.3386051218860608,-0.6712063910108939,-0.711267991097445,-1.0786444714325305,0.2786968329796973,-0.6863366338731306,-0.47953169459777006,-0.6785503083834205,-0.3461587417623943,undefined,1498057505538
903d185fccf839df,-0.5378550372356147,-0.5827961516802362,0.6293118440322782,0.689960494748619,-0.7600627821406949,-1.9077900766525842,1.8668380457239262,-1.1801188600473091,-0.3518627747317506,-0.5072376151961298,0.02671847374808711,-0.03762689706841662,-0.6172292780748664,-0.6808267420485768,-1.0444431108566141,-0.2695978130122057,-0.8737725536309962,-0.6697935432365749,-1.0593542642370233,-0.3191940035912241,-0.8070461311054582,-0.43570281597430693,-0.5881511500997978,-0.4497788881745311,undefined,1498057507024
903d185fccf839df,-0.4269738008513058,-0.44895662981058665,0.5431802574075985,0.6125685497167249,-0.7944067234418521,-1.8673917512086482,1.8542307522063808,-1.1987853216377924,-0.37389154957003573,-0.684145174953641,-0.0017391182050472472,-0.13145006799058714,-0.4300983177361854,-0.6678650629493479,-1.0454957446385278,-0.23120625158814279,-0.8644471250544447,-0.6633402732306727,-1.0436324304662803,-0.2808826717112701,-0.7937155984768872,-0.4465374259614778,-0.576460243076377,-0.4588023004349396,undefined,1498057508528
903d185fccf839df,-0.5281529096426947,-0.5129412938338103,0.20120620829193844,0.16650982582247767,-0.9738715646808724,-1.7975984269640004,1.87881417069737,-0.9851871192161409,-0.33631189488579105,-0.7157628578491528,-0.05590462505732704,-0.10716743544542541,-0.3735238413547237,-0.6178700223956215,-0.9823378060705105,-0.2008971286109439,-0.8256912672743785,-0.590568416846875,-0.9992586559047449,-0.15321416017955083,-0.7236068408795707,-0.41935773734688964,-0.5762189064939734,-0.43577726942661743,undefined,1498057510041
903d185fccf839df,-0.7194229173235172,-0.5587284929152708,-0.03868636511627976,-0.1326072894531175,-1.0689834051415772,-1.788982570908231,1.859193183485867,-1.136979035406281,-0.34654881097544243,-0.7683788923086353,-0.05509932969005219,-0.07473688159136074,-0.9044535427807487,-0.5586166803305944,-0.9212850798495673,0.3830584344172875,-0.6793792852765913,-0.5725005284965191,-0.9465446832308726,0.48013929933703714,-0.5736875764907796,-0.42200622971149676,-0.6295222816762505,-0.38736884948774336,undefined,1498057511518
903d185fccf839df,-0.7928816221289521,-0.687284894415824,-0.20010297336424865,-0.3375913506061444,-1.2263648560373175,-1.7536480125069862,1.8607973615036477,-1.1472546133061894,-0.20302119335953303,-0.6385241041301063,-0.048376568818703176,-0.014016915081275954,-0.7738970588235294,-0.5762075101854738,-0.8928639861434815,0.6760467503881237,-0.5008848212637713,-0.5898844596494833,-0.9292975448541746,0.9260166845623384,-0.47423893702491166,-0.41504998302327817,-0.6919055567430222,-0.39398294204512896,undefined,1498057513016
903d185fccf839df,-0.7804075024450103,-0.5440531179622361,-0.23008910030061444,-0.23759193204587672,-1.2241328538204175,-1.715299416672337,1.8338181873434292,-1.2232700902297176,-0.24370554700954103,-0.7570901751096015,-0.06651566119724567,-0.055972253507194904,-0.7477857620320856,-0.5141766025525641,-0.919179804923506,0.7225207361266898,-0.5338373564989551,-0.5892954958321192,-0.9252184038133359,0.9226906194035785,-0.4679567128564386,-0.4561883230516024,-0.6824689985301544,-0.4118890062949084,undefined,1498057514564
903d185fccf839df,-0.5392410160284207,-0.49591785888829,0.24076313274358946,0.12093138015293814,-1.1470209828609506,-1.7762649250016138,1.8621149103230439,-1.0801772706427857,-0.2752618794647467,-0.922132147114302,-0.037052043391645195,-0.014609416225403342,-0.7347301136363636,-0.4428874711130011,-0.9244429701519578,0.6720055170323309,-0.4994283153609253,-0.4804005299748376,-0.9018770423678341,0.9841766128514148,-0.39976964122617614,-0.4336927521655631,-0.7520754508007553,-0.42916297465385317,undefined,1498057516051
903d185fccf839df,-0.5420129736140328,-0.5510973271676851,0.7562761225947146,0.6709983105405642,-1.0839799434815958,-1.806046577391079,1.8532866606193452,-1.1464169411196403,-0.32664039483919227,-0.9116254217520956,-0.06683737463888853,0.054702513083753825,-0.7477857620320856,-0.3299356720539957,-0.9307587654812062,0.5103568328892153,-0.48583804551460047,-0.460249103531113,-0.8795292290700186,1.1139085158171527,-0.3588293617860116,-0.42215241190836933,-0.7453965578196732,-0.5008331501701176,undefined,1498057517523
903d185fccf839df,-0.45608008011383666,-0.6203651846299858,0.7109774820447406,0.738921069124573,-0.888747133069746,-1.8587968594279853,1.94115899526031,-0.6576192051803925,-0.2243869830856835,-0.7897992056815012,-0.0032819407214350832,-0.02185373966029365,-0.7216744652406417,-0.34289733820245016,-0.9707588197449921,0.5002537777644549,-0.5143239230745956,-0.42990163819311056,-0.9171510803953963,0.7232653507324709,-0.44537223753588895,-0.4160872755243722,-0.5722561866182508,-0.4702715200509698,undefined,1498057519025
903d185fccf839df,-0.5558732101124195,-0.5681207913411976,0.46406666264124585,0.382274264371191,-0.8122626889234416,-1.7560098622608236,1.8912110841279108,-0.8409751771426528,-0.27546657832150223,-0.5445222964389561,-0.09648095350635799,0.04125218487447972,-0.7042669340463459,-0.38085657643086596,-0.9928640886728942,0.13856494698068614,-0.6483970443182482,-0.47318730782390805,-0.960790189943339,0.13396684396080388,-0.601409874138424,-0.3969366659216225,-0.44877635000746974,-0.4809454038984038,undefined,1498057520529
903d185fccf839df,-0.5531011145051685,-0.3738186515950644,0.3300846463574318,0.14318688677396138,-0.753099360022291,-1.5670130624021132,1.8535943366256131,-0.7055145021355554,-0.2545523411736877,-0.5315451061872262,-0.15127497804367565,-0.011962269895278937,-0.6520443404634582,-0.37807902381375796,-1.017074654613559,-0.012980653772947541,-0.5551359691559947,-0.4425548595110497,-0.9992866440168742,0.004327331708130684,-0.626289021611976,-0.37109697722914803,-0.41597792282091683,-0.4419023296781119,undefined,1498057522028
903d185fccf839df,-0.46578213869593715,-0.2035841852278927,0.3166862922468807,0.1903503976334791,-0.6424766894918531,-1.5163847188678483,1.7996622800546818,-0.8909614734110832,-0.2827506792567361,-0.5937937418013928,-0.13913115582135638,0.0658419869045785,-0.7086188168449198,-0.39289237875617655,-0.9833904177657229,0.025410950048197663,-0.6208709522716954,-0.4951119579713191,-0.9999793283120165,-0.05233894606681186,-0.6621292776233615,-0.35818983095153034,-0.4283452862493258,-0.4226405009965795,undefined,1498057523515
903d185fccf839df,-0.43251775052793967,-0.24291413164604098,0.9361954255824035,0.827959538132695,-0.5812562233435716,-1.5223638762431653,1.8000462392167873,-0.8629755433267008,-0.36873441506789784,-0.3880773765639271,-0.19395206405768645,0.03800306727621389,-0.852230949197861,-0.3586365440172381,-0.9233903069211089,0.027431524329011747,-0.4738195158904628,-0.49369971013602093,-0.9425634980867258,-0.02394421094068406,-0.6331775618850998,-0.3498545282314962,-0.4826467971049723,-0.18397334427985984,undefined,1498057525017
903d185fccf839df,-0.35351506154046125,-0.5722298378720627,0.10422856493976679,-0.0008256889857686394,-0.7856947386004127,-1.5805692371380695,1.8250372830060113,-0.943520153442021,-0.42681510553604396,-0.3930310663698187,-0.09795409680935578,0.04152414629364583,-0.7129706996434938,-0.4577007613015469,-0.8254955050855757,0.4800477099120164,-0.29796728639540326,-0.5615508688284784,-0.8955729153703391,0.46686584074895615,-0.5410720326059648,-0.39175537519869663,-0.6783714889780829,0.10994144719375012,undefined,1498057526583
903d185fccf839df,-0.5655752341891103,-0.5170503695926676,-0.045704102837657516,-0.13701561629982628,-0.8603277539269194,-1.5865530516825757,1.8585120842916971,-0.7796895888760931,-0.4172202751472233,-0.36251727535014644,-0.04209500217355869,0.011718455925366841,-0.7303782308377896,-0.4178899249345888,-0.8012849096959758,0.5022744792365159,-0.2292400489603127,-0.5626148034936236,-0.8678445537376089,0.594826922703768,-0.508860984140675,-0.3978727053729538,-0.6911087150126005,0.07739358268118182,undefined,1498057528026
903d185fccf839df,-0.3008464526920334,-0.5111802196114538,-0.045704102837657516,-0.11052287354302287,-0.8575711875287161,-1.6012016363571655,1.831995746637145,-0.9709511274270202,-0.4213292615395104,-0.284736559463122,0.038765171831990956,-0.008950229516456477,-0.8261196524064172,-0.30030898807070766,-0.8160217679183002,0.4861096023427878,-0.23798187681323177,-0.48033086641507644,-0.8538929123907352,0.6140903781051579,-0.4554924819962225,-0.4274506475194491,-0.8002238976930417,0.05620038039393691,undefined,1498057529526
903d185fccf839df,0.08307961047323703,-0.35503417165518003,0.88579269854021,0.8297879057431509,-0.33508863065047867,-1.731855650260122,1.8494497736995594,-0.8834595056433792,-0.5250870592910442,0.3789335889181588,0.03464657603498765,-0.06114836418306832,-0.865286597593583,-0.25679483886969395,-0.8212849699579208,0.6477580886328527,-0.3025994198522351,-0.4072803610742135,-0.8405779815738033,0.666753058717835,-0.39833673536207925,-0.4767629100043055,-0.9174994802675818,0.05342125096417984,undefined,1498057531060
903d185fccf839df,0.27712167925590075,-0.2810701649799158,1.3623869018196861,1.1865411075145191,0.04109016659128992,-1.7580223237458923,1.8161985062320452,-1.0170946047687173,-0.5607634019145947,0.8335077063980308,-0.054567260798191616,-0.03876476666561421,-0.6650999888591801,-0.2530915001340893,-0.854969199443523,0.7225207361266898,-0.3551315299945174,-0.32708629467282924,-0.8627088942115725,0.8162411654410582,-0.3350801683213156,-0.4994411674472373,-0.9551520958615131,-0.05452751494005612,undefined,1498057532516
903d185fccf839df,0.44067145547781794,-0.28341825420039374,1.063797842024842,1.0220748787790264,-0.09802388788452628,-1.702681927437331,1.833447400244121,-0.8280877569992038,-0.7975847050083383,0.5306809100850972,-0.1350301776283539,-0.05582217717881248,-0.5519510360962567,-0.20402229750195777,-0.9465482464420936,0.20524501470405154,-0.6394206795666618,-0.2912418329328074,-0.9415979368338737,0.27372313138494914,-0.45348608842176014,-0.4849871027867261,-0.7556731258642826,-0.3942319733065894,undefined,1498057534042
903d185fccf839df,-0.17887717893281804,-0.3931900880770855,0.5463704385337104,0.5650617015321278,-0.5541431250139249,-1.6264552447565537,1.8803447299309954,-0.5496849720752758,-0.6745013645888934,0.0004917657110645984,-0.1601711245557515,-0.029882710719793038,-0.7086188168449198,-0.13921390200581282,-0.97602197761121,-0.035207295906200115,-0.6672933469578143,-0.2675122922317065,-0.9967537972071684,-0.00885373814584521,-0.5108117276800811,-0.4639827450128109,-0.616555912672761,-0.484819837285701,undefined,1498057535544
903d185fccf839df,-0.6778424493662252,-0.4712631997391994,0.12400702716559231,-0.011510066586665105,-1.2250894287163159,-1.5815987558990392,1.886506362065122,-0.6503742552637876,-0.40599664070432834,-0.6652939052136482,-0.0829518279071096,0.030013597902765685,-0.7303782308377896,-0.19846725702161444,-0.9665483067040386,0.013287306510262416,-0.7038659272572493,-0.32398315030539054,-0.9890223219286045,0.1408653463225947,-0.5073204519183205,-0.476053368355036,-0.6886976938079781,-0.5001987510916599,undefined,1498057537021
