UUID,iqrAccX,iqrAccY,iqrAccZ,iqrAccXYZ,meanAccX,meanAccY,meanAccZ,meanAccXYZ, covarianceAccXY, covarianceAccXZ, covarianceAccYZ,pressureDerivative, pressureIQR, iqrGyroX, iqrGyroY, iqrGyroZ, iqrGyroMagnitude, meanGyroX, meanGyroY, meanGyroZ, meanGyroMagnitude, covarianceGyroXY, covarianceGyroXZ, covarianceGyroYZ, class, timestamp 
903d185fccf839df,-0.6667543084750894,-0.15603585346809096,-0.49231243331771735,-0.42219734092729644,-1.0629251326854536,-1.6811455721573574,1.9446413480480254,-0.414362851443388,-0.2383109889649408,-0.3976326095080938,-0.034726470476700425,-8.152080906171228,-0.7673692346256685,-0.6613842104489588,-0.8170744127435646,-0.8151618287487349,-0.7413736545776424,-0.7159887047493662,-0.8220710529225893,-0.4956626280305248,-0.7907408526567247,-0.3090883975965395,-0.5953419488895416,-0.48791727526732803,undefined,1495195187948
903d185fccf839df,-0.4962745002675032,-0.019848286219952063,0.3307225301004845,0.3460162951602529,-0.8368660825611048,-1.635951553829232,1.9960535546613274,0.10030064189186073,-0.037424970416200805,-0.06756533193981991,0.07594496545754614,-4.734720186747956,2.3398750835561497,-0.5197316041805838,-0.8970745065466688,-0.49590591993606875,-0.6944422162933239,-0.6798454197899073,-0.8913885094430033,-0.15733436824710156,-0.7326849359460218,-0.3969557658613696,-0.5484894362278974,-0.4459080316804002,undefined,1495195189462
903d185fccf839df,-0.06522398496289714,-0.19008278181511612,1.3534550045952514,1.368455472050763,-0.5311503430542384,-1.676533292859316,1.9534077023466827,-0.14817649681582112,-0.20590018708232732,0.3059388835555006,0.03755594059300788,-3.1087763756313342,2.57052487188057,-0.5002891761871622,-0.9054956062509136,-0.3544633743071955,-0.7406135638649817,-0.5966621279059786,-0.9003502212879417,-0.04141046367645994,-0.6734478825216139,-0.46103274054253723,-0.53760335459249,-0.4807578997743001,undefined,1495195190958
903d185fccf839df,-0.04859179087889838,-0.21943356094917782,1.6667184401237016,1.6930431571311335,-0.42904848050081745,-1.7634378048676131,1.9519043643563545,-0.23260859212313406,-0.13451318078083552,0.05320859666995418,0.04621062746740368,-2.702160922052131,0.07036820409982177,-0.4956599606776391,-0.912864031680959,-0.27161834489593745,-0.8573001806299798,-0.5756159655484376,-0.8861362760374193,0.0022947401702674364,-0.646436532513263,-0.4742857020676861,-0.5935439331536778,-0.5249603233842418,undefined,1495195192474
903d185fccf839df,0.17594263947533137,-0.38790698232198534,1.902144810782753,1.9760525845131134,-0.21389226938201017,-1.8103184019662262,2.000679377382598,0.08040700436244637,-0.25305976411448233,-0.1237896132657266,0.05646887897014784,-0.08459827574402044,-0.7608414104278075,-0.5039924631196686,-0.901285026949856,-0.12411400576281809,-0.8484493241597876,-0.5555768728173589,-0.8953455855567966,0.07876835980562376,-0.6283235456885882,-0.4622281411346651,-0.6058524821448762,-0.5532520861087389,undefined,1495195193947
903d185fccf839df,0.06921954650189897,-0.36970947353823386,1.7515740051253266,1.7936754488896778,-0.36977200818404893,-1.847434829832861,1.9883955588568965,-0.03725556958188694,-0.3851314018448512,-0.7813914168446627,-0.02859254669719001,0.05626357545804284,-0.5345435049019608,-0.40677990872777486,-0.9065482289894767,-0.04328973435306412,-0.8641353128749862,-0.4806348490348544,-0.8973081240212095,0.2908154099228693,-0.5508400339358749,-0.4831754085323243,-0.595599562979566,-0.5959266390047473,undefined,1495195195451
903d185fccf839df,-0.0776980011306097,-0.40551746149361934,2.059095724555454,2.045968391495809,-0.30701897255487404,-1.8826203175565874,1.9146557985047827,-0.5231630224808136,-0.5024359067159289,-0.695703085519601,-0.1576430499635478,-0.00892215656840697,-0.43445020053475936,-0.3280840221123552,-0.8612850168594729,-0.09178433676952666,-0.8059210813887628,-0.37695189389730666,-0.8970842265074671,0.4682054991216484,-0.4705194919497299,-0.5102471498395216,-0.5793260814297393,-0.5979534420527788,undefined,1495195196953
903d185fccf839df,0.12881811832517634,-0.38614599578360587,2.4540245439594175,2.5934039462651226,-0.2808727299268899,-1.8831280920340716,1.8418312144718658,-0.9243433548873139,-0.6334116245840922,-0.5518259216473257,-0.27402003905203487,-0.07119286030446922,-0.35611631016042783,-0.2660531662825438,-0.8170744421924998,0.02339038989974435,-0.7132734386847983,-0.29568756033556975,-0.8882962324439696,0.6419923553707998,-0.396212244876168,-0.5113075465884402,-0.5810195212036856,-0.5691779659869826,undefined,1495195198473
903d185fccf839df,0.08169359717502128,-0.4935698135098006,2.41829619265083,2.4974258805461065,-0.2825904381994981,-1.891252477992868,1.8304415173391837,-1.0230100146952725,-0.5833714746024469,-0.7248352640077861,-0.23603486309457522,-0.1164547921848484,-0.39528325534759357,-0.20587394744359827,-0.8139165298034079,0.16079164564338178,-0.6759200579133227,-0.2368038513187591,-0.876345678971123,0.8646076830859499,-0.3272852918653726,-0.5252010762902918,-0.5591114178477307,-0.5384887214152173,undefined,1495195199964
903d185fccf839df,0.34365038658107633,-0.48769964891459056,2.383843608828348,2.461137262285229,-0.21719397359217626,-1.9016385549336603,1.8279431967160678,-1.0330343173118635,-0.5649323563009142,-0.6293462877160558,-0.2763791550635808,-0.09919667093109588,-0.7782489416221035,-0.16606313697818922,-0.798126997306884,0.40932650775938356,-0.664845008180944,-0.14410222102718223,-0.8609107134737112,1.0408890862857916,-0.2487022198621716,-0.5171569049395582,-0.5407463794666713,-0.45548747580027865,undefined,1495195201454
903d185fccf839df,0.32979025359891884,-0.5123543372916736,2.274105495108678,2.25968632183574,-0.18312774160788467,-1.910990452187799,1.829786694181692,-0.9993007547354548,-0.5451480394549837,-0.9295843899418533,-0.3043660072737791,-0.06350911601599288,-0.7347301136363636,-0.043853023457108634,-0.7065479797572486,0.6517993219886454,-0.6231321753494048,-0.11056928567277827,-0.8263394707913567,1.2276876302428994,-0.18822368840963724,-0.57392945657839,-0.5296483425686834,-0.43105450162826425,undefined,1495195202968
903d185fccf839df,0.23831337591667917,-0.568707806339319,2.1490553760492985,2.133559680576735,-0.21429341079230857,-1.9333488188234513,1.906708524581231,-0.5175152754822504,-0.49914561636007077,-1.4895123484885877,-0.32681825356721805,-0.056488600381454486,-0.5737104500891266,-0.03552052101507909,-0.7370743189404604,0.5709751071083345,-0.62478102872627,-0.07357222663874141,-0.7913834035291362,1.274437311654423,-0.15913526694169447,-0.545781529861095,-0.48670191286948694,-0.3994211038814332,undefined,1495195204454
903d185fccf839df,0.19257473004310094,-0.487112619302473,2.210942551835936,1.9339875669460922,-0.2067025683664369,-1.9184416878490915,1.9549418049028553,-0.20740180638204891,-0.5128891972653842,-0.8933620081780184,-0.25906463560075327,-0.11132404593304548,-0.6868594028520499,0.05335955683633423,-0.7591796025928301,0.5871399840020626,-0.5425817617029904,-0.021882742348141363,-0.7601286484866306,1.242762715389064,-0.1256322475631594,-0.5270087779691174,-0.49828558566124787,-0.41532447779447174,undefined,1495195205966
903d185fccf839df,0.002690701155084458,-0.596884555477138,2.6128896172351754,2.503871889555276,-0.26135047787411775,-1.9232934918736817,1.883300636618666,-0.7391930687771376,-0.4136212999328567,-1.1657852991616309,-0.1550629821353387,0.006845767266855281,-0.8174158868092692,0.04410120352193535,-0.7949691585401301,0.6275521479716611,-0.5020901309003195,-0.016702393805464837,-0.7721351766605877,1.252602323065839,-0.1286468206402783,-0.501043750615323,-0.4484957947906527,-0.4058768455352983,undefined,1495195207444
903d185fccf839df,-0.14838474835043255,-0.5516843421658065,2.3328022356322533,2.328969760300739,-0.20385343412578089,-1.8699189763086395,1.7747133091926692,-1.3470033739402796,-0.5271088685580659,-0.8746020706087031,-0.1267161292888784,0.04123896030138313,-0.6825075200534759,0.07002453581884423,-0.8065481043733627,0.5346042330239719,-0.5959780760098944,-0.0514005929059785,-0.7882138489115805,1.1708365773421883,-0.15753695314798347,-0.48125717467980905,-0.5033999766623455,-0.39001901328737987,undefined,1495195208963
903d185fccf839df,-0.2620379768257632,-0.5980585854733808,2.4578528629655314,2.436780023914862,-0.1454203849231141,-1.8897734120368064,1.7367204942955805,-1.6007779004655203,-0.46897053015067947,-0.5868200093736813,-0.21050439548788077,0.02652771315826962,-0.6607481060606061,0.057062934424262524,-0.7770743363930773,0.5507690533882569,-0.5280813412087231,0.01102323586204367,-0.7738493968057025,1.2240074138030792,-0.11861178889091865,-0.4274070205817297,-0.4918173271734299,-0.37592064533150343,undefined,1495195210489
903d185fccf839df,-0.2661960857312299,-0.5557934471526562,2.516549603489107,2.577764659836085,-0.14551294951271937,-1.9148639767176132,1.8298997770400314,-1.0222947232863624,-0.454799273209337,-0.1596585049718079,-0.27885620342594497,-0.09619591358029213,-0.6433405748663101,0.08020868820251428,-0.8160218047294692,0.6416963233933282,-0.4975644615506258,0.027596548463641814,-0.79638612536741,1.1808917681689541,-0.1205967317005573,-0.4216379939458488,-0.46637736748562447,-0.42303725772285605,undefined,1495195211946
903d185fccf839df,0.027638940522968,-0.5904273758838066,2.5458983549563188,2.5200324175763424,-0.06218851022411126,-1.9296127186350807,1.8906798627807329,-0.5808747154856738,-0.41843675289723425,-0.5929697769734168,-0.17724706301231663,-0.02806869408673368,-0.7477857620320856,0.0005869636654998399,-0.8128638923403774,1.0296531427250284,-0.4739438350193082,-0.02663878060819304,-0.8051951105914679,1.4376916345704294,-0.10063792919791112,-0.3727551347816602,-0.2489836107213708,-0.43798707454374153,undefined,1495195213446
903d185fccf839df,-0.10819050072381467,-0.2200205759472992,1.7815608944725407,1.6285381531364715,-0.33481091005867625,-1.7564291245671084,1.9001997596993052,-0.3631810807047413,-0.6723775306406411,-0.9282016927382174,-0.12036027660719771,0.0051806545720758075,-0.8783422459893049,-0.0956997139524755,-0.8065480822866613,1.0256118528397926,-0.47434540794361024,-0.15412727043663385,-0.8263254794451501,1.2449646894530593,-0.20135042866882635,-0.35706723333132034,-0.18663984336648973,-0.44991241745210764,undefined,1495195214935
903d185fccf839df,-0.10126029621109697,-0.037458765391586026,0.7333079875166759,0.6704783202896415,-0.35906458740835745,-1.482780784845316,1.8005353748046122,-0.5376306711186754,-0.6961652997274497,-0.802422645276116,-0.13462269954928846,-0.013511242701300464,-0.7173225824420678,-0.1540272569482314,-0.8086533572127225,1.019550031070825,-0.26038002040110797,-0.3052946356118034,-0.8754710795078273,0.7134719451501141,-0.39365621477218227,-0.2628142436621625,0.11160881479312978,-0.3527882678492183,undefined,1495195216475
903d185fccf839df,-0.3493569526349945,-0.5070712315365734,0.3511388760693628,0.39656601769190086,-0.7314582539334783,-1.167036102537917,1.5900825122710023,-1.414247223969126,-0.17101471204465113,-0.4025705868011553,0.020764645122576798,0.13145164978823123,-0.7390819964349377,-0.4308515716568814,-0.9423377260389063,0.5932017916386695,-0.42374373552382594,-0.5337555797370983,-0.9500011090273633,0.2923398554835595,-0.6017018631727834,-0.2977236253309091,0.1276606441908538,-0.3083135273747849,undefined,1495195217953
903d185fccf839df,-0.37430519200287804,-0.13783833007034327,0.44428845455236976,0.4359806886561084,-0.6131624558969899,-1.2798621200608509,1.6972707763979265,-0.8517079289501969,-0.3417070476392472,-0.4188675351158315,-0.2027011024360351,0.013264367992955618,-0.2560230057932264,-0.3262323721707147,-0.9549693019729357,-0.05945458298207061,-0.21450586656967793,-0.41919263113779737,-0.948517785035869,0.07238845779401917,-0.5791361939351266,-0.21623412238936116,0.08539659984751942,-0.31043030959975443,undefined,1495195219449
903d185fccf839df,-0.2842142586080347,0.20380466188823526,1.4867991371360127,1.1988932440647992,-0.6286835688530296,-1.5406786811058766,1.7755679921757885,-0.7630002101264952,-0.32951733107887693,-1.0018326326818578,-0.4079134651888357,0.11072989911376917,-0.4605614973262032,-0.26883065414577906,-0.9339166631458304,-0.14836132110341013,-0.2950674366485432,-0.40160604474626344,-0.943242189200543,-0.1521670695778761,-0.6113260329626513,-0.2562496265221118,-0.1755743931927069,-0.38050112437695405,undefined,1495195220954
903d185fccf839df,-0.10541833610574422,-0.4724372589634345,2.499323438646341,2.269237309668956,-0.5846916444539773,-1.829818793787211,1.8691706806105386,-0.6995248315822524,-0.33133739247804095,-1.1771467367773987,-0.3370153455352189,-0.014444121869561323,-0.4692652629233512,0.09594791991885131,-0.8002323016818804,0.33052273996863984,-0.02711850503689205,-0.2813307788681685,-0.8637654145930592,0.09410026614252939,-0.4900231212634523,-0.21643653698258006,-0.011916779952015517,-0.23838670191153846,undefined,1495195222459
903d185fccf839df,0.18287270596641014,-0.49533087311816093,3.364466861488405,3.265689078767224,-0.40253194717798946,-1.8820007401901104,1.8550144352098303,-0.760883254163979,-0.22500227756209126,-1.1935653520652383,-0.34138906528482393,0.1571443730621806,-0.6650999888591801,0.21445460404890543,-0.7949690996422597,0.9629729619427768,-0.026061589830608925,-0.08001283129988229,-0.7936083920855436,0.507871891575725,-0.29786877300197095,-0.2201464769407276,-0.0770979861473078,-0.2885802035679005,undefined,1495195224035
903d185fccf839df,0.1246600094197096,-0.4606969443870106,2.983574279938045,2.80260640357113,-0.29008871212274556,-1.8933441348594315,1.8064603146755536,-0.9950103724192375,-0.19467911613007347,-1.4690830917533386,-0.4658559750499388,0.2986499727253343,0.6796317959001783,0.1579788146009864,-0.801284939144911,1.1630132499070376,-0.3368884779842088,0.16273523318579566,-0.6858155236644013,1.0921197101257334,-0.04702694083095936,-0.2826792015702683,-0.1823061395789925,-0.42069490056057873,undefined,1495195225430
903d185fccf839df,0.05397319318906729,-0.4507176455769585,3.07863776378716,2.8992327082743015,-0.06018280911016466,-1.8808454356271875,1.86056068547705,-0.5970256840735996,-0.3007983153653305,-1.238620719351631,-0.3411055513442662,0.20461520764781357,1.0538937165775402,0.13668460715817876,-0.693916374374284,0.9730761018617018,-0.3702251402911746,0.2210996440323265,-0.6410429295493758,1.386245418937694,0.03827138920158235,-0.27599106610687746,-0.27860942695528657,-0.47958621084929787,undefined,1495195226939
903d185fccf839df,0.020708874031889236,-0.4730242739615559,3.0965020665099283,2.88665934817206,-0.10794957920700235,-1.8784346731032993,1.9154342177112171,-0.26878168809116487,-0.2083216996859254,-1.2821962075936033,-0.20980449366470047,0.21588800779145226,-0.5824142156862745,0.09872539483131205,-0.7644427457345804,1.0336942064924919,-0.3747514611564119,0.26278307850856714,-0.6548476369747486,1.427682639026153,0.067476217457655,-0.2825089429641815,-0.3376604991561663,-0.4742808335538493,undefined,1495195228467
903d185fccf839df,0.05813130209453402,-0.587492330121192,2.780048449855366,2.6557438657260084,-0.3377629098279458,-1.903276008817673,1.9635754601492228,-0.1888989267317108,-0.1848138628080916,-0.6327899551098715,-0.08323696615693996,-0.0002978338496016297,-0.9175091911764707,0.15797876279788822,-0.8128638776159097,1.0377354963777279,-0.3053872179195397,0.30717068288609717,-0.6845001205831326,1.3604222332746927,0.06994752732918387,-0.24740678095194676,-0.28568831690785956,-0.46816988400217036,undefined,1495195229956
903d185fccf839df,-0.12205049568433325,-0.5305517730054442,2.5631245197990853,2.308929439761988,-0.5006369225781335,-1.8550700747703592,1.8765735828601917,-0.77865994948835,-0.2065964840697704,-0.23115100240726086,-0.11876231902509231,0.00466263843461136,-0.8696384803921569,0.13946200436599224,-0.7223374533559022,0.9569112249679739,-0.3270815178487076,0.2695656619787971,-0.6502087512350533,1.2501231676005804,0.04406786335555541,-0.24692479517335644,-0.2623303372816531,-0.42189097914693985,undefined,1495195231463
903d185fccf839df,0.04011306020690977,-0.43134617986694507,2.302815854558938,2.203818337527224,-0.43885074747987907,-1.8003352829149655,1.7710920630143372,-1.2945311758737115,-0.3342882075666209,-0.5384986184263251,-0.4284220764707634,0.09739804181821321,-0.8565828319964349,0.07002453581884423,-0.7412848540681153,0.7689945805416483,-0.31854696328587323,0.26450563779911446,-0.715656921307148,1.1842486157870107,0.012129830717042185,-0.3533916474094377,-0.31615118439134166,-0.48992530022471137,undefined,1495195232944
903d185fccf839df,-0.21768562029367858,-0.3673614281597445,3.122022498971026,2.840523999201244,-0.4154302139649324,-1.7669060430102823,1.709512520163253,-1.600636315475364,-0.4206517692370198,-0.4245505473184022,-0.5349703150236546,0.0666145369411039,-0.843527183600713,0.07928291503479222,-0.7570743423912364,0.9043753044015539,-0.3289500010781105,0.25398661780283666,-0.7133759606677323,1.0618925681631193,-0.013841234866242636,-0.2964708133902534,-0.27642819434045746,-0.43069493245985035,undefined,1495195234452
903d185fccf839df,0.00962069863534375,-0.32744446674347477,3.5552324753405347,3.334803307209587,-0.15154037517913782,-1.8048050940581275,1.8396116551109396,-0.6729050619910454,-0.3215564963717702,-0.3381055596565217,-0.5604985522640669,0.006187931467140915,-0.6215811608734403,0.09039286648773343,-0.7149690352880907,1.310517589040157,-0.29261136626805695,0.2386608958974277,-0.668113591846672,1.3507366053540344,0.03493467234329953,-0.308325859456515,-0.16438054344432432,-0.41402214831261047,undefined,1495195235956
903d185fccf839df,0.12743196700532164,-0.5088322180749528,3.548214229345258,3.3115363643447293,-0.12872670164846572,-1.835681488793005,1.9969003550429478,0.2240877668371188,-0.26784505811046777,0.3581556716765302,-0.16649031515005877,-0.033176731345012936,-0.321301247771836,0.14779463631576725,-0.6665479034067613,1.1104774706642255,-0.3766843168881563,0.2812942707847241,-0.6510973495501896,1.3892635151067543,0.06525350149139006,-0.2376320456164975,-0.2019988413256014,-0.4302614298960877,undefined,1495195237449
903d185fccf839df,0.38523085453836836,-0.5487492671751996,3.5494899968313636,3.4279201209396097,-0.08581477186752272,-1.8334803572922405,2.042595856690522,0.5897185855070124,-0.25330051985253027,-0.19490563456606746,-0.16409314017239518,-0.08043462883491145,-0.034076983065953644,0.1237228762558516,-0.6897058392466292,1.0680446052225658,-0.4230817762024512,0.3233260179328179,-0.6656647081866445,1.345793703988832,0.07540734301767103,-0.15242634150301468,-0.2787859556495457,-0.47517775688938163,undefined,1495195238974
903d185fccf839df,0.1246600094197096,-0.46421899053375043,3.361914818242295,3.3023051047401033,-0.34683490309808435,-1.8140917695009688,1.9559647919032022,-0.02064417897309974,-0.31743706775314917,-0.5299768366492672,-0.17230511511921262,-0.09092996558299249,-0.5911179812834225,0.2570429412298734,-0.6854953482923771,1.453980610023319,-0.24099319234383734,0.3603610720709795,-0.621990614553733,1.5567062126263116,0.13638852874333796,-0.04932625231120601,-0.05281418385870441,-0.3481219985327342,undefined,1495195240460
903d185fccf839df,0.09278177257156676,-0.45423976479367917,3.3134262507031584,3.1481712713724517,-0.3668405825155613,-1.8331822132154216,1.84415858346642,-0.7912773931996628,-0.35909027958194967,-0.42534561452647157,-0.24079635491922316,0.022576730099693576,-0.8696384803921569,0.3320355927158848,-0.7286532486851507,1.3549709863655484,-0.14263283018267472,0.4359637557402512,-0.619751635146601,1.6735188174663242,0.1961244322535073,-0.03303573017810997,-0.10041755063816404,-0.4791257025937863,undefined,1495195241957
903d185fccf839df,0.23969938921489492,-0.43897740407051544,3.194117847742102,3.1894127424990604,-0.25670133648308147,-1.8315540771218493,1.7970719089776852,-1.1194295931187062,-0.29203186709596746,0.10765112381714513,-0.07666580077040912,0.02403419666591597,-0.8783422459893049,0.35888467227896664,-0.750758547061988,1.1468484012780311,-0.22285421168610037,0.38153843707912466,-0.6516780821247445,1.4852574173012119,0.13096408372705537,0.018798281789476436,-0.14351536890277833,-0.41272056870004065,undefined,1495195243438
903d185fccf839df,0.23276904668053827,-0.42195385221302584,3.111814580123536,3.1462151480396967,-0.18607973977273645,-1.8064588520481168,1.9094487750765021,-0.3710121331706847,-0.4280216672796412,0.4374582739286846,-0.02181231291803281,-0.030273087968362918,-0.9653799019607844,0.4449872493163701,-0.7381269416790234,1.2478786133489768,-0.13815196564837579,0.3406656202407001,-0.6266364950673236,1.5220750994478462,0.12851399604462216,0.009616814870266938,-0.15489303515963268,-0.4298248730095205,undefined,1495195244957
903d185fccf839df,0.20920688962168996,-0.4289981491024518,2.912116814910022,3.000085553203207,-0.3455183348134042,-1.830808719412387,1.9975315060410592,0.13743879048770075,-0.4284016181992641,0.1377990535273206,-0.19377744969830915,0.004173662110620229,-1.021954378342246,0.36721725242564346,-0.7591796025928301,1.1913017420739793,-0.1725533450308798,0.2656899025964595,-0.6364390271850701,1.4224009655338468,0.06672684424322607,-0.1330546929692627,-0.08306486383785538,-0.43627094164626923,undefined,1495195246445
903d185fccf839df,0.10664190555372428,-0.41138769915881024,2.7551661552742703,2.7481259537634455,-0.36541087284179086,-1.835872484309545,2.063823651985149,0.61404159640155,-0.38774671866589777,-1.0485647264205937,-0.22726245651104685,0.07292560343529639,-1.0001949643493762,0.22834213402050377,-0.7676006581236722,0.9892409787554298,-0.2058972401765549,0.23582374152053223,-0.6404901798262775,1.41899791370779,0.043962303494514285,-0.19140491509567106,-0.19140758655743437,-0.47517008485714585,undefined,1495195247944
903d185fccf839df,0.1121859587465873,-0.42841113410433046,3.0958641827668756,2.977772018224536,-0.37061543984437656,-1.861435886278967,2.0464485289781007,0.47790430238206216,-0.3326909098251721,-1.7122148850352474,-0.20369948832821472,0.01385832638909115,-0.8957497771836007,0.18482786826251915,-0.7623374855329867,1.0195500876002679,-0.2673263518850221,0.14466101547398527,-0.6256639387591915,1.367782679549331,0.0016975663009579584,-0.2947091033543931,-0.2236636992791307,-0.4983170160323355,undefined,1495195249444
903d185fccf839df,0.17178453056986465,-0.3849719073313784,2.72900783907012,2.535603232184613,0.06103412636511343,-1.8486087666124897,1.8705381705552215,-0.4941640808079157,-0.26531547807210665,-1.3816269803080687,-0.26525840953310886,-0.06392792628998618,-0.8957497771836007,0.18667959590880695,-0.7770743511175449,1.1064360111906604,-0.26885300453711364,0.12429426757767273,-0.62648956250381,1.604672364833495,0.03940990068052023,-0.3412390515023271,-0.3003936363799761,-0.6830589836985138,undefined,1495195250994
903d185fccf839df,0.284051814757799,-0.2863533876469853,2.722627476817896,2.650635654705384,-0.08088792249596853,-1.824799284004364,1.773708715889382,-1.1188290113796624,-0.4173719163966047,-0.7875599480632931,-0.3868802250887307,-0.013640024889906694,-0.8130640040106952,0.14964620855276048,-0.7676006728481398,1.0094470324755076,-0.27470109792135705,0.07164217491794925,-0.658814828197406,1.4246953395325888,-0.02774251196970154,-0.3806235586262211,-0.2535905735998023,-0.6154879336055719,undefined,1495195252449
903d185fccf839df,0.42126720029197795,-0.3039637499066499,2.566314700925197,2.2726106120372442,-0.16834720243955234,-1.8577021178427515,1.8674797161977734,-0.6172885027637267,-0.37100694143396457,-0.9367855113831044,-0.4756719931141671,-0.02701563316648917,-0.8087121212121212,0.08946709332001136,-0.8412849713219955,1.0943124241821682,-0.3633046881288966,0.06994494525388494,-0.7002849267222513,1.49020033012284,-0.03205628499011123,-0.38676939271372707,-0.16726658783301562,-0.527221806227483,undefined,1495195253952
903d185fccf839df,0.09139569026253154,-0.326270436747232,2.4840109250327327,2.1312041971477353,-0.5088654870706956,-1.8658917222278322,1.9175433334449645,-0.43897858196370304,-0.4034815421039144,-0.8097430770277377,-0.5262010603883306,-0.09231890114263036,-0.6389886920677362,0.07557953744686392,-0.827600743200468,1.260002256886912,-0.2836123048234793,0.04805195873413761,-0.6931551770628575,1.4272360850505725,-0.04768894174827634,-0.37585394990520515,-0.18105068796387022,-0.4750585211506437,undefined,1495195255450
903d185fccf839df,0.23554114228778925,-0.5100062626851918,1.9206469972485742,1.8881597637738567,-0.37047143347211514,-1.8943200859462925,1.9573796298329702,-0.2872120835004079,-0.457288959860814,-0.6683270479174697,-0.23437163086864718,-0.032311330955317845,-0.7782489416221035,-0.06792470581237701,-0.8949692610695428,1.0619828399830413,-0.38101710570918634,-0.030565205289536133,-0.7545451946916252,1.2512010561297457,-0.13614338835043763,-0.34565826983279796,-0.31845271707749134,-0.4256642163642497,undefined,1495195256943
903d185fccf839df,0.2660334348485358,-0.5563804767647738,1.6214197995737278,1.4654871850722493,-0.38295826849650877,-1.9089686715183278,1.8694967649791718,-0.9326094595944625,-0.4110221187654739,-0.384034811407212,-0.05807418768392124,0.04309367548119297,-0.7651932932263815,-0.21142897497316707,-0.8781270911099882,0.9670142235632911,-0.46170342404021764,-0.1305117215258061,-0.7911874938033191,1.1551763496266627,-0.20905424086090024,-0.3212478329835462,-0.3034896116267684,-0.37232087891991045,undefined,1495195258449
903d185fccf839df,0.2743497216702887,-0.6015806754621091,2.191163835473161,2.05825371142366,-0.2913641353626839,-1.8960041260779374,1.7710105294173875,-1.552761132306922,-0.32635825307877386,0.23570889539348652,0.019279596431192605,0.02917503838246036,-0.7347301136363636,-0.12440057296494332,-0.8749692376187667,0.7467678818789526,-0.5552525734091752,-0.0973714280759038,-0.7841347099566597,0.93459361885093,-0.229405688765155,-0.31410157217769574,-0.35072953813787644,-0.3040105602678618,undefined,1495195259962
903d185fccf839df,0.20920699313791916,-0.5287907572390724,1.9716878621707699,1.954517018581243,-0.520683747788547,-1.858230853216672,1.860839443072914,-0.9566589972781226,-0.4154077693392638,0.27123039451314135,-0.07800261444747311,-0.03236209352726465,-0.7521376448306596,-0.09477386308010616,-0.9054955915264461,0.6538200234607064,-0.4951392722148353,-0.15991558001653686,-0.77151945988484,0.8340417660883731,-0.2753904577121551,-0.32375239138339895,-0.30133806377873923,-0.35385154689543363,undefined,1495195261463
903d185fccf839df,0.017936985457096672,-0.13842543275244168,1.5372023724521051,1.382913394102075,-0.6940800227575639,-1.6049540400557836,1.8283823851553558,-0.7510225444091758,-0.6176843997054553,0.4097395742730434,-0.05894788240729798,-0.0690863583311262,-0.4779690285204991,-0.1595822585762511,-0.9065481995405416,0.5164186546581829,-0.4632899133818296,-0.2944969682308731,-0.8432787518690177,0.423103452234465,-0.43029176214892195,-0.32682316647376236,-0.284453904355264,-0.3494874639819475,undefined,1495195262982
903d185fccf839df,0.0013047913730979091,-0.25582857851668084,1.5238042724785035,1.3158554515807717,-0.9168785056976725,-1.5680379273408527,1.8856805974924065,-0.35924330577734637,-0.4913029642613263,-0.0845492596532542,-0.24593075127244463,-0.06870560768161199,-0.5867660984848485,-0.10773559398243333,-0.873916570706801,0.3466876168623679,-0.4739350487093,-0.28087480501324663,-0.8458255917071219,0.27934356339396443,-0.4431662169642807,-0.3436978719932075,-0.2674090469391496,-0.40991686091277135,undefined,1495195264447
903d185fccf839df,-0.2731261867277184,-0.2828312392022723,1.6692704833698115,1.7313678467877052,-0.9188430802997046,-1.6315003787634668,1.8961340814494652,-0.4055511246165429,-0.4416685163025752,-0.12366236035516948,-0.29923094287941493,-0.04266902657158249,-0.7477857620320856,-0.04848217421275899,-0.8223375926964839,0.2840487542300737,-0.4558690425357354,-0.23987532693711774,-0.8286694106545256,0.23836830445010893,-0.4260626681333433,-0.36842838687384794,-0.2802805635135137,-0.4373957012031748,undefined,1495195265954
903d185fccf839df,-0.38400731959579804,-0.5328998329979298,2.0986523948701556,2.0711352274693082,-0.8691425977832762,-1.8530925515645944,1.9115763088621909,-0.7202912330180474,-0.43317486106156194,-0.16460701876319406,-0.20680699231934793,-0.02670621534179731,-0.49537655971479505,-0.09199636226609631,-0.8918113560426847,0.17493599065337803,-0.5751317106989708,-0.2766570652106502,-0.870209475911799,0.18904708120858818,-0.4675319899929677,-0.405451720076417,-0.30325654434705734,-0.49647078464825334,undefined,1495195267456
903d185fccf839df,-0.3950955294977533,-0.5722298963280473,1.9206472513855237,1.8542157633115472,-0.7846764533592828,-1.8847003273495495,1.8773204543765194,-0.9834192639530732,-0.41347217685368576,-0.4585652773280379,-0.10977245067874196,-0.052198571025457406,-0.5084322081105169,-0.1651372602042708,-0.891811348680451,0.21130686473774069,-0.6162812305982579,-0.31189356490577225,-0.890269332756403,0.2603110909073183,-0.4744459072521343,-0.42962173211580357,-0.38425483167720564,-0.4823329966780739,undefined,1495195268953
903d185fccf839df,-0.4269737663458961,-0.5974715704752593,1.6794786563542505,1.6838371737150633,-0.7518342217171926,-1.9288743498514935,1.9368329596586777,-0.6615370338876572,-0.37867037866730135,-0.6195298932416402,-0.06631930014675667,0.012654735038741908,-0.7086188168449198,-0.14013975287818217,-0.8612850168594729,0.312337274661737,-0.7121034632074636,-0.27651140895667653,-0.8671028916439889,0.41170860652174524,-0.42833854120471043,-0.412151558397358,-0.42263254799537364,-0.47188008240209633,undefined,1495195270450
903d185fccf839df,-0.3646030989153678,-0.56812082056919,1.727967732167286,1.695400328431463,-0.7897575866760204,-1.9179711818741023,1.8687498934628437,-1.0807812393442175,-0.3668688308588782,-0.8372495442623309,-0.1650251638873206,0.04146082708482017,-0.7738970588235294,-0.23550067027920998,-0.8812850108613138,0.23353361992987942,-0.774917037536087,-0.2954089125688875,-0.8720496359306016,0.4979399041711301,-0.4272704656727992,-0.45328811593206236,-0.4794768267292725,-0.48061777536718553,undefined,1495195271952
903d185fccf839df,-0.43944795504065737,-0.5270296976307121,1.7554020699944912,1.8230407992022395,-0.7573679292485461,-1.9233424076454853,1.806752221288736,-1.5026759734246737,-0.36948834720510104,-0.6194777161091977,-0.10172704403026753,-0.006188328604361562,-0.8087121212121212,-0.2540173251049096,-0.9391798210120483,0.2315129749872615,-0.8014292185247954,-0.30270446283813324,-0.8769893846725693,0.6079617955116917,-0.41286905218652803,-0.4482310492363825,-0.5175428134539273,-0.4338215558901546,undefined,1495195273440
903d185fccf839df,-0.3188645910634285,-0.49474387273403575,1.606107540097069,1.6259185630358426,-0.5779030843445716,-1.90792517308263,1.8309069975279777,-1.259026669841274,-0.34733875558000393,-0.695229465164582,-0.07014070751678403,0.02257791554270385,-0.7434338792335116,-0.23179727974050715,-0.9076008296413384,0.2598014671542032,-0.825845238127393,-0.33690235844136324,-0.893529845958175,0.5951810857374248,-0.42817741634859546,-0.4634580072610645,-0.5644770504688911,-0.4215065459751766,undefined,1495195274987
903d185fccf839df,-0.3923234338905023,-0.5645987305804617,1.6826688374803624,1.6767712454286448,-0.5028483505702191,-1.8885948165123618,2.019061733447854,0.022811242325936714,-0.3118875369099131,-0.30354467461380547,-0.011324998586795407,-0.015497963942741763,-0.8130640040106952,-0.21513232665954626,-0.8907587406663555,0.1809978689517887,-0.784547772708577,-0.2996393152524293,-0.8817122319715069,0.6209580841683977,-0.40032397660168034,-0.48974760640936443,-0.5927748020990493,-0.45063539197158015,undefined,1495195276450
903d185fccf839df,-0.26203811484740214,-0.6344535445848991,2.305367897805048,2.4285792993190887,-0.5494219908414677,-1.8732940433205592,1.946179285882323,-0.43560701496709037,-0.26240710273053247,-0.2822912213874132,0.1753845095952245,0.024354927359797343,-0.8565828319964349,-0.023484705738993996,-0.8760218382706283,0.2294924431035297,-0.623774089905217,-0.14359558273143808,-0.8680684517284821,0.6306899006403905,-0.31880470009129397,-0.4796934341878132,-0.4978235372024673,-0.477936632594903,undefined,1495195277948
903d185fccf839df,-0.1539289395649345,-0.5710558663318046,2.3442864302397477,2.2442849948385897,-0.6173795926250073,-1.8292178500282312,1.9698922409981285,-0.2244227700769059,-0.30080393739977296,0.09530377586308575,0.16959517943515834,0.0063076198736453735,-1.0088987299465242,-0.11143891976726343,-0.8444428542621522,0.21736862997726525,-0.7257047423592864,-0.17859143094331237,-0.8517728799674508,0.5443816096464025,-0.34408284653402504,-0.49522619501620785,-0.5241729763145472,-0.4735210756927711,undefined,1495195279515
903d185fccf839df,-0.1705610646381138,-0.21591141250446483,1.659700702402324,1.8309142885263368,-0.7350685397335801,-1.6440875860561488,1.800766786510434,-1.017636330590553,-0.26651073601569625,-0.04856090071438597,0.12923608247803922,-0.11284025115485524,-1.0001949643493762,-0.09107058909837425,-0.852863917155228,0.19514195957929115,-0.692155577108448,-0.2116050659626002,-0.8849447598444125,0.40380920135572507,-0.3955673979301537,-0.4749568498377543,-0.4645742423055401,-0.4775071083394184,undefined,1495195280920
903d185fccf839df,-0.2731261867277184,-0.27930917844153635,1.1767258827336744,1.332468456565458,-0.9444441837753768,-1.5285084057816725,1.7825869405009447,-0.9933091932413929,-0.3567199818616461,-0.03479698620126284,-0.16208811892889294,-0.15280870661674026,-0.007965686274509793,-0.14384310456456137,-0.9139166617817558,0.24969838376472128,-0.6327543786271027,-0.23693050807730046,-0.9230074106526297,0.20961940517295252,-0.45727423887062263,-0.4184129584063705,-0.378278900954785,-0.48983099316326895,undefined,1495195282437
903d185fccf839df,-0.2745122345313439,-0.2763740449949447,1.2922059666886168,1.296651713729171,-1.0359868844489737,-1.5573187634398307,1.7554473472819216,-1.2478751871872298,-0.3475380565407247,-0.09577843125980631,-0.11616698497192741,-0.11812228760836459,-0.11676275623885918,-0.3178998438271361,-0.9518114337572466,-0.1806910183614231,-0.7208686701899806,-0.3412150943757103,-0.9331178025957595,0.0006471007290164368,-0.5541999266322618,-0.41893876565341415,-0.3923863254686671,-0.5106708153661459,undefined,1495195283950
903d185fccf839df,-0.2953023649937607,-0.4190188649063959,1.6641666510145414,1.6588508236693114,-0.8612637454336166,-1.760106990655946,1.819717162315967,-1.1836569345526327,-0.48007712425153726,0.14708899667265948,-0.09249241880760062,-0.10934551831798828,-0.9566761363636364,-0.3928924046577256,-0.9707588050205245,-0.2635359629785165,-0.7661074093431136,-0.4485711562814054,-0.9387362407387674,-0.09570097175528287,-0.6273856667552858,-0.44243095475849353,-0.5690756966019787,-0.5200687093913592,undefined,1495195285455
903d185fccf839df,-0.30777648467770247,-0.4348682990836657,1.6616146077684315,1.6250686239957617,-0.7122959984083055,-1.8481103077282675,1.9521620819532262,-0.42138733876613016,-0.40569729760659695,0.02351371903598116,-0.06650276875939601,-0.0034436998305769355,-0.8913978943850268,-0.38826326685284984,-0.9623377274029811,-0.2271649758352677,-0.8304484805487533,-0.46741799535313405,-0.966170736235155,-0.03989700088075535,-0.6363622906786803,-0.4600433780836645,-0.5498339407737373,-0.5499371115829975,undefined,1495195287025
903d185fccf839df,-0.23847581976691484,-0.5235075930279876,1.533374053445991,1.6292018987169026,-0.7118640007851202,-1.8809339483610459,1.9715174506347264,-0.34744257261626904,-0.3828223154138336,0.004664618578292462,-0.055998464522789095,0.04405009101781138,-0.8783422459893049,-0.4262224144258438,-0.969706167557494,-0.01095992403616501,-0.8650497334391491,-0.4708187868719534,-0.9224336716652602,0.0815659370284121,-0.6039386989013668,-0.45453892034150967,-0.5616307938015492,-0.5090218706043769,undefined,1495195288455
903d185fccf839df,-0.3077765536885219,-0.6062768100610764,1.4319302073446525,1.4672278084995034,-0.7820638893242964,-1.902241828722389,1.9724378975598293,-0.3911501655163815,-0.391835542029733,-0.3575419180799599,-0.05377455832540665,-0.04070815197551245,-0.7303782308377896,-0.40307655704139567,-0.9254956002527546,-0.01095992403616501,-0.8067793334375695,-0.4409906221292906,-0.8960347049493703,0.21624074055161405,-0.5563279469673684,-0.4586867582587259,-0.5700395416814272,-0.5034747891189904,undefined,1495195289948
903d185fccf839df,-0.2301597054722106,-0.6092118704376871,1.3776994154332944,1.3512865341564937,-0.7877210192585589,-1.8932928926956805,1.8786563903459643,-0.9933045019723246,-0.3685074309151945,-0.4790562484869642,-0.03265364732697272,-0.012903465290593535,-0.673803754456328,-0.4225190627394646,-0.9128639801453224,0.14462688180853991,-0.8219493933039839,-0.4834150113922795,-0.89406860118478,0.29685160358029566,-0.5563591864494013,-0.44425433209435566,-0.6127155582931212,-0.4835066801042094,undefined,1495195291448
903d185fccf839df,-0.3590590802279145,-0.6074508400573191,1.2564773612430797,1.2063552766865284,-0.8179815405458898,-1.9160472298878306,1.9201757771872918,-0.7640376561835646,-0.33610345945836473,-0.5018966036159563,-0.014628653953659414,0.052386975023686146,-0.6128773952762924,-0.36048823281120224,-0.89917978147273,0.11835892152532995,-0.7977102687818172,-0.485276896794676,-0.8978258893779542,0.40448673478623576,-0.5356314002083687,-0.45718116894638083,-0.6064298667486545,-0.48766578370144203,undefined,1495195292941
903d185fccf839df,-0.3493569526349945,-0.6074508546713153,1.2398890801433662,1.1656997669960267,-0.8489414867071788,-1.911964073571996,1.9222848717087226,-0.7633684823553232,-0.29256668386766715,-0.3175795199310283,0.03678560727966869,0.02759362272202399,-0.2864861853832442,-0.3697465472732775,-0.8981271513719332,0.22545112495357233,-0.8004736089094794,-0.4777660259033425,-0.9312216676495149,0.5136771108131252,-0.5213835268123671,-0.4873587353861181,-0.5651539699180579,-0.49075894276525,undefined,1495195294454
903d185fccf839df,-0.35351499252964175,-0.6274093646074425,1.559532623787091,1.5619094902127482,-0.848900340318087,-1.9087473935493562,1.900465365659046,-0.8958526871108882,-0.33546609968249186,0.007322827080443394,0.11793145200737216,0.22266923900637434,-0.5954698640819964,-0.3928924305592747,-0.9076008370035721,0.12846197665009035,-0.8021679180271548,-0.47497953141612986,-0.910455132563811,0.44044210246663695,-0.5307397983245478,-0.47105559414510223,-0.5489621225644739,-0.48003769832674215,undefined,1495195295951
903d185fccf839df,-0.2717401044186832,-0.6532380245247835,1.9129911216471944,1.7195954384874013,-0.7253074075325857,-1.9083234716809967,1.8713849743412874,-1.054742073318865,-0.3230826057941192,0.1289467204209369,0.1372263489070585,0.08529244830000293,-0.5998217468805704,-0.38085657643086596,-0.918127145373774,0.049658265388789695,-0.8212105520085728,-0.47569515477144175,-0.8999459220336868,0.4564102907848429,-0.5221661663721683,-0.5053162707539783,-0.6001566946314908,-0.4998699616432969,undefined,1495195297463
903d185fccf839df,-0.2883723330080917,-0.6778927129018665,1.747745940256162,1.6433828389577085,-0.826816952995594,-1.9068444053896954,1.8859488374456985,-0.9983596686872632,-0.2959272757297524,0.09008670918665002,0.24114044535188786,0.023466599107281712,-0.7390819964349377,-0.42992579201377207,-0.8991798109216652,0.0698643756383105,-0.8158785612720635,-0.45076235578484625,-0.8731131524623224,0.5245022149732318,-0.49696989406965175,-0.49103210536712755,-0.5554052568229642,-0.49020149385448564,undefined,1495195298945
903d185fccf839df,-0.21629960699546283,-0.701373312826722,1.8817284648138748,1.9121970529572967,-0.7556605077132476,-1.9008559319889295,1.8118619487977528,-1.4341159722800059,-0.29140367804795375,0.05288164222106653,0.1294369130667023,0.07877721901190607,-0.9044535427807487,-0.38085657643086596,-0.847600766651244,0.06986431910886742,-0.7779554029773761,-0.4028156377194852,-0.8386818460831403,0.5062088615811087,-0.4672903628986394,-0.49068352662182396,-0.5892805229352803,-0.516352920344426,undefined,1495195300490
903d185fccf839df,-0.34935698714040425,-0.6332795145886564,1.7107413131875702,1.6902173507433123,-0.9291390757045115,-1.885224408034147,1.8111177091799324,-1.500749706915785,-0.2503352978402303,-0.14931663895797945,0.2759989142190675,0.001374892703724217,-0.691211285650624,-0.4067798828262258,-0.8812850255857814,0.12846192012064728,-0.7226343296848745,-0.40124506719472874,-0.8476587538384451,0.3978038069854824,-0.48901128516155123,-0.47212593878431897,-0.5846192006577072,-0.5018262574035134,undefined,1495195301960
903d185fccf839df,-0.3853933328940138,-0.524094608026109,1.7649721050989282,1.8674830037137529,-0.9588647368608301,-1.8500482371368203,1.868786730614249,-1.0723774142347755,-0.26905200027503956,0.1388832477240366,0.16117478936581253,0.007484601906247405,-0.691211285650624,-0.44196162024063174,-0.8886534657402942,0.0819879061173596,-0.7490513721908046,-0.45988179195625106,-0.8358341436648408,0.2411092248451515,-0.5405890553993756,-0.4360983640616695,-0.6011129331621259,-0.48546805753999756,undefined,1495195303460
903d185fccf839df,-0.27035417738399176,-0.524094608026109,1.547410545436544,1.566045957957114,-0.963925292809935,-1.8516507537005857,1.869168043736303,-1.1002371166832345,-0.3061376823443475,0.3366198378473205,0.1063812521575744,0.08469354783698307,-0.6868594028520499,-0.45214579852585085,-0.8928639787812478,0.07390558072938173,-0.7458478999929039,-0.49498529818975806,-0.8497298102616676,0.34004423865495415,-0.5405121630933091,-0.45005211143289986,-0.622707155021929,-0.5080587363152487,undefined,1495195304942
903d185fccf839df,-0.403411574781638,-0.4595229582327563,1.4957315426343465,1.4946639761976708,-0.9356910536011205,-1.8145785826987564,1.8842815352408553,-0.9300740872452967,-0.3498710341925666,0.29517700482865944,0.0611685506922775,-0.14465641470811666,-0.6868594028520499,-0.46325577588034117,-0.9054955915264461,0.17897716747972772,-0.7593959206204268,-0.4838456506377189,-0.8759818454600613,0.3033343435128615,-0.5476943148543575,-0.45505050973749983,-0.6359445816552198,-0.5267102332139962,undefined,1495195306447
903d185fccf839df,-0.4505360959317931,-0.4436734655995018,1.0357253663176345,1.042779732593393,-0.9370281947642641,-1.7983833815385695,1.9167412281994862,-0.7111674234775134,-0.40150628880773953,-0.15724206092752427,0.08014510832003399,-0.12925213634139532,-0.27778241978609625,-0.49195662194203443,-0.9581272290864952,0.14866800210544653,-0.8168108547621724,-0.5396642161327384,-0.9027586402140912,0.19962581562647821,-0.6028040079380277,-0.4656782784701792,-0.5953562629851731,-0.5185801354186452,undefined,1495195307986
903d185fccf839df,-0.4824144017907554,-0.38438498001723403,0.5425426278014951,0.6816563680687895,-1.153706692389636,-1.6701028614241509,1.8816859228885632,-0.784531938535745,-0.46166812925562667,-0.5462817649367047,0.03695902990632266,-0.261614252986543,0.2574991644385027,-0.6132408457384221,-0.9360219380718917,0.1830183443060774,-0.844263237293031,-0.6320428664241114,-0.9295284395458174,0.42244131835331,-0.6051056699059342,-0.4733156046093292,-0.6519134403641418,-0.46162133513336795,undefined,1495195309436
903d185fccf839df,-0.57527739628744,-0.48535161815009736,0.6797150793483705,0.589623011395347,-1.2081180279906834,-1.69132921895786,1.8825590171147326,-0.8587572758869282,-0.3757583277298591,-0.6199427466758519,0.05082564399203212,-0.1354291118995611,-0.08629957664884134,-0.5012149623056588,-0.9581272143620275,0.2618220838320996,-0.719272640382772,-0.5806510285651256,-0.9459989318356824,0.6792411917147995,-0.5369654274152128,-0.493952334695891,-0.6610205323706163,-0.43148705262089204,undefined,1495195310950
903d185fccf839df,-0.5808214839857128,-0.5827961662942324,0.8634621930682748,0.7933301400456765,-1.1891512036280016,-1.7521829232103088,1.872192326623431,-1.000627147720513,-0.35143232785234685,-0.5326399791609429,0.037815033137188515,-0.04697756808754802,-0.7651932932263815,-0.4901049590496194,-0.9381271835490177,0.362852550285539,-0.6747975363638158,-0.5204753981411872,-0.9605592950743016,0.6546806701375254,-0.5133749952886794,-0.5129817116299884,-0.691191388575309,-0.41636369737374096,undefined,1495195312440
903d185fccf839df,-0.7623893295682055,-0.5270297414727005,0.7747785631974852,0.631971018071806,-1.1244130259837544,-1.7336188866050182,1.875663666147922,-0.9452643453783732,-0.3138005797843749,-0.5839710479218556,0.061521448289229286,0.10270040951591454,-0.5127840909090909,-0.48825330910797893,-0.9612851230700025,0.3264814783481256,-0.6714330986322514,-0.5865533322662382,-0.9864824794396782,0.5179578731007213,-0.5724114922442645,-0.5005476520937547,-0.664032869276491,-0.4077785219492684,undefined,1495195313969
903d185fccf839df,-0.723580888207345,-0.3567951581935595,0.19355007855360912,0.07715364322958193,-1.290095032254983,-1.6152073516246486,1.8679188965187674,-0.8236996313393293,-0.45869528346607663,-0.6433449900796511,-0.013563641290635232,0.009021450425180768,-0.7042669340463459,-0.5558391536150356,-0.9423377186766726,0.8174892112228324,-0.5965852566323294,-0.6620356870712065,-0.9782262423849849,0.8543215123196105,-0.5152634987845464,-0.49658600347995063,-0.8206669138668344,-0.16536832753398828,undefined,1495195315453
903d185fccf839df,-0.8025837324691671,-0.5933623778044327,-0.12992203823317913,-0.17957607433161896,-1.4424467764666953,-1.577105655120817,1.8773178224780123,-0.7701942361537151,-0.39314575614258324,-0.6677388380540166,-0.00909672729658109,0.09459848886341754,-0.6433405748663101,-0.5336191147260203,-0.9170745373596786,1.5792583918173504,-0.42623857790939407,-0.6563613693147966,-0.9428993447274214,1.2645976918211825,-0.40902162306890283,-0.5301919303666514,-0.9367067717413831,0.03475418830971761,undefined,1495195316948
903d185fccf839df,-0.8829726245346149,-0.4929828131256754,-0.05527439207904391,-0.06931624837514648,-1.473561012358675,-1.6316145099842654,1.8841684694047451,-0.8145273283025674,-0.4378338509131713,-0.5628550019354988,-0.032419622487284534,-0.041440600139937965,-0.7260263480392157,-0.5993533351929855,-0.9528640528146928,0.9326638813626602,-0.48435542858712205,-0.70618896983078,-0.9787719944224667,0.9360256655000089,-0.505727010597221,-0.5232690517081232,-0.901374797902142,0.05236364481564881,undefined,1495195318504
903d185fccf839df,-0.7651613389119322,-0.4612839447711358,0.1737716163277836,0.09618192281196206,-1.3472217933765773,-1.6372000258796664,1.9132488601987434,-0.6053610440032899,-0.4157206267206877,-0.5774513632228169,-0.056183266110233235,-0.06814005414499237,-0.5084322081105169,-0.671568388734178,-0.956021950479317,0.9548906082900774,-0.4767827202203282,-0.7569348474512819,-0.9830540430154315,0.8428958670639228,-0.5453234907430279,-0.513371490972809,-0.8696110852603957,0.07346897467133344,undefined,1495195319958
903d185fccf839df,-0.7415991128422643,-0.42371492643538233,0.3460347895771432,0.31979081066334336,-1.3592766309538316,-1.664822475185391,1.923276305519473,-0.5633989744486904,-0.3828579414046479,-0.6064754238173328,-0.08682967116230472,-0.02660279543631874,-0.33870877896613194,-0.6697167128909883,-0.9749693364670625,0.9670142659603734,-0.49696574248955827,-0.76876478595828,-0.9971176320701006,0.8093118605342048,-0.5664116705372678,-0.5002936471266876,-0.8483832759886082,0.09145208865436838,undefined,1495195321450
903d185fccf839df,-0.7734774704593412,-0.36090432163639385,0.7664845497161031,0.6197888203767338,-1.3588549183134986,-1.7265543021703993,1.907820932231995,-0.7406037386725401,-0.39466817382814356,-0.4848611298372439,-0.10706593275077828,0.038246786135650586,-0.39528325534759357,-0.6558292217717137,-0.9823377950271598,0.9912615106391617,-0.45841066119330054,-0.736327448880075,-0.966030801656994,0.880206300151416,-0.5265461159306533,-0.5163597661081846,-0.8805605075105146,0.05065853918506871,undefined,1495195322954
903d185fccf839df,-0.6140857513847762,-0.34094575324428206,0.9355572877024013,0.9659819523607133,-1.3154389920603693,-1.801402074688308,1.9422082727007606,-0.6198425607948947,-0.3787452043257734,-0.3770104041979647,-0.11501926085452557,0.01427177815396074,-0.6172292780748664,-0.6206475361604059,-1.0539168112127206,0.33658457586996826,-0.70956104666256,-0.6620103543275805,-1.0380839602852299,0.047874130516486105,-0.7154322081642567,-0.4915802265624256,-0.5911726172678432,-0.4311410277409441,undefined,1495195324449
903d185fccf839df,-0.7166508562216759,-0.40375647495523986,0.9355572877024013,0.9777930570477026,-1.2777830534120693,-1.8319989600683086,1.912975354353393,-0.8562953966377721,-0.420982536481426,-0.40230701564047633,-0.09922077882991628,0.26045733912341484,-0.22555982620320855,-0.6123150207676018,-1.1076010825546834,0.04157579867720415,-0.8649376089976663,-0.6828077422057088,-1.0592003352908272,-0.2035054898998251,-0.7811629310536263,-0.46910825367667935,-0.5903768850269137,-0.5038801678875663,undefined,1495195325992
903d185fccf839df,-0.7429851778985948,-0.4577618547824075,0.6127238170695141,0.6383625903873611,-1.273802485409336,-1.7825957976401714,1.896486470923506,-0.9140084559508564,-0.45206188606187525,-0.4837676908734649,-0.0691891902405892,0.0969463764732608,0.21833221925133692,-0.6187958667926036,-1.1023379136451148,0.029452126874547364,-0.8661897061246178,-0.6933900905867941,-1.0556599490361651,-0.166241252404455,-0.780500460665563,-0.45821564070886345,-0.5863826230017738,-0.5039774731987388,undefined,1495195327459
903d185fccf839df,-0.8663404304506162,-0.45071767480495084,0.10678060818587658,0.14404675669032496,-1.2866596071035248,-1.7938693160340262,1.9405593885478596,-0.6551535248452729,-0.420070955141558,-0.7298764355270508,-0.0625621160941413,0.04715662999905238,0.379351882798574,-0.6613842233997334,-1.1086537089743633,-0.04126914593988927,-0.9052879120128805,-0.6857462272692022,-1.0518396903770213,-0.14650044421148148,-0.7760841363685689,-0.46120494441976145,-0.6008647836100333,-0.494822490438668,undefined,1495195328962
903d185fccf839df,-0.7291249759056178,-0.293984553394571,0.5112797168312262,0.4666615252706158,-1.2789453375815216,-1.7447782699830723,1.8718346628771576,-1.0163290469140036,-0.4116921532351752,-0.6897162758009343,-0.08100541609818675,-0.06411774435683489,0.13999832887700536,-0.7058242752762146,-1.1149695190280793,-0.08370187005794111,-0.9268149784274254,-0.7031998210849876,-1.0535609056385868,-0.10253788150650951,-0.7807951818004648,-0.4597060898752853,-0.5894732984424823,-0.492616416764755,undefined,1495195330452
903d185fccf839df,-0.7027906887341087,-0.2752000734546866,0.43471841944793277,0.4467830455315173,-1.2779373423805616,-1.7326522508097035,1.8834058117349828,-0.9184119898723748,-0.344074091208809,-0.6950468249060955,-0.07298566926019695,-0.12020459252976508,-0.14287405303030304,-0.707675899316306,-1.093916850752039,-0.033186622698860656,-0.9338219376621526,-0.735820813612887,-1.0517767188772682,-0.00971605137354571,-0.7755273198742654,-0.4493688470575031,-0.6390580923186971,-0.4961461093509722,undefined,1495195331971
903d185fccf839df,-0.6237879307358108,-0.2834181665164167,0.5476467142937147,0.48444792571307665,-1.190334059249546,-1.6652067978329064,1.926029713412237,-0.5167733250591265,-0.31285559361773374,-0.6219832670171348,-0.10403980933857027,0.06208765889507099,-0.3125974821746881,-0.7474867874863623,-1.1086537236988308,-0.02308362410354333,-0.9260239755709753,-0.7702720271957526,-1.07115788499343,-0.010732346726729623,-0.7999943394438577,-0.4323587859385949,-0.6494604676006307,-0.5126663401895233,undefined,1495195333459
903d185fccf839df,-0.6792284626644409,-0.4149097599195462,0.1871702245752841,0.17489013447675647,-1.2391602649456392,-1.6523470701646796,1.8752665747288468,-0.8708032709384876,-0.2793307422147735,-0.6373415023453455,-0.03853578697988719,-0.017145267226502545,-0.40398702094474154,-0.7808167584021568,-1.0928642353757096,0.029452183403990438,-0.939707339743624,-0.7783338643032893,-1.0504333309259124,0.09262201835485617,-0.7798151980630847,-0.43759026301667336,-0.6601528815332164,-0.48287308359985304,undefined,1495195334943
903d185fccf839df,-0.8164438827040296,-0.43604235830790083,0.25926531920941065,0.22110420212917004,-1.4374890715964406,-1.7107387681366486,1.8796189062700723,-0.958845920188591,-0.2890007057270364,-0.6102703396169079,-0.02334073387252193,-0.003336792785767852,-0.5998217468805704,-0.7910009690643124,-1.076022102227324,0.011266633302922956,-0.9352609184135958,-0.7984979575146985,-1.0385037682343683,0.23097705138978084,-0.7594402436929985,-0.44816709728810467,-0.6361319088452407,-0.4559339527543559,undefined,1495195336454
903d185fccf839df,-0.8164439172094393,-0.46950215474483525,0.16611548658945427,0.1158887310245011,-1.489380412961464,-1.7335676428284932,1.8521979230329177,-1.1843341405555958,-0.3061429108705788,-0.6938850982807012,-0.014978029531877666,-0.09652266111053684,-0.34741254456327986,-0.7956301327707372,-1.0476010232457058,0.06178190892672494,-0.9357398652214195,-0.8122657770472019,-1.0203470442601907,0.2978986963628644,-0.748254894150085,-0.4477861877049262,-0.6409796618012609,-0.4503854275166054,undefined,1495195337959
903d185fccf839df,-0.8122858773147921,-0.4002343265105268,0.09529666771533199,0.11229602053701498,-1.4684387329329183,-1.8208442340655708,1.9243045654826505,-0.8010225473087352,-0.3449359625185721,-0.6721374549381838,-0.03391862721909575,0.040179578799743,0.16610962566844922,-0.7585967713162399,-0.9928641033973618,0.11229707149164078,-0.8659535696276078,-0.8055465248740656,-0.9873500843431757,0.9256779170797313,-0.5854165262972593,-0.47703022575259385,-0.6373976290514844,-0.22714740809972525,undefined,1495195339493
903d185fccf839df,-0.7208089306217329,-0.4354552263978101,0.05765390276673801,0.015922679783171242,-1.3663223342954092,-1.748672758123857,1.8905694110352593,-0.9150875521300358,-0.29332781404251207,-0.7452896167603943,-0.04881294883989233,-0.15909592783066112,-0.07324392825311943,-0.7567450954730502,-0.9812851354774278,0.015307923188158802,-0.8717083862530616,-0.8152042633453718,-0.99568328628081,0.9005168564127607,-0.5964201663681401,-0.4806685154348589,-0.6261001888245411,-0.22567089448405875,undefined,1495195340953
903d185fccf839df,-0.5683473297963613,-0.4160837606877966,-0.03230600286405588,-0.0724145569931873,-1.2699453543492984,-1.7121619351140365,1.9138142496117958,-0.6999187743866215,-0.3772935094041324,-0.5417189952688172,-0.05250371249681817,-0.17000308202897838,-0.5780623328877006,-0.7308217502253669,-0.9939167334981586,0.20928627632456584,-0.81067169785024,-0.8091056384567,-0.9817526358008777,0.833164054711397,-0.601036517759273,-0.48546900087938794,-0.612924614847757,-0.24480241549898538,undefined,1495195342473
903d185fccf839df,-0.6639822818786579,-0.6379756345736275,-0.2396598978158997,-0.25434891216101857,-1.2574173729178084,-1.6814811973333033,1.8760265758833399,-0.9322886032787994,-0.38713132883068296,-0.5896560771771686,-0.02555624711914513,-0.02686601596264228,-0.6520443404634582,-0.7197117534447147,-0.9749693695971146,1.2115077675293355,-0.4122543819794835,-0.8162365332422999,-0.9515474034603594,1.5420006978578367,-0.41714792138669476,-0.4735653483101123,-0.640050822680645,-0.15718415901575958,undefined,1495195343954
903d185fccf839df,-0.6667543084750894,-0.5505103998535408,-0.2109490300917405,-0.2494667670692232,-1.3004732996485586,-1.7398076740267339,1.9089596418456012,-0.8131855876666384,-0.36946835082427015,-0.553373664340329,-0.00880691920621239,0.011446734824328274,-0.7913045900178254,-0.7039725605807013,-1.0044430786795295,1.120580384465378,-0.4553549325239214,-0.8201566251571389,-0.9621825564578053,1.481392415827364,-0.43491945811125443,-0.4706299865148414,-0.6263656005926076,-0.14821381432328243,undefined,1495195345452
903d185fccf839df,-0.8164438827040296,-0.6156691231009994,-0.22243297056228511,-0.25115380542110577,-1.4550056106101599,-1.7273276088359861,1.9034475737857999,-0.8693121581666136,-0.3488977790965658,-0.5969892738563259,0.02564416002517663,0.13120529127496855,-0.13852217023172905,-0.7187859284738944,-1.0286536372579604,0.7972831575027546,-0.5874644063464776,-0.8339181116684518,-0.9900508540266839,1.0534388191225807,-0.5435134409690197,-0.4580644868977957,-0.6123757351002987,-0.20405694839078933,undefined,1495195346930
903d185fccf839df,-0.834462107338949,-0.5962975112510243,-0.25688580852171655,-0.2470322363242527,-1.4563221811154183,-1.6958572566848475,1.906747972418827,-0.8006941268873043,-0.35167060393474353,-0.577525796154114,0.03250772197922433,0.0827950448316253,-0.22991170900178254,-0.7632259285472776,-1.027600992432696,1.080168248760501,-0.5992744934037574,-0.8553931235899013,-1.0139659533278989,1.1854034940932663,-0.5284655602654225,-0.4430677770019635,-0.5980349145716894,-0.15582427790162995,undefined,1495195348441
903d185fccf839df,-0.7055627325832451,-0.6491289195379338,-0.3532255681308355,-0.34083332851862563,-1.3819257338700282,-1.6589714245812488,1.9283886371676704,-0.5814591861256658,-0.3573822808716022,-0.4944908732660563,-0.0019630110802268804,-0.07375724481270259,-0.33000501336898397,-0.8150726449441935,-0.9865483080681133,0.6154284479042829,-0.6313873416448276,-0.8753355640162152,-1.0020223970329527,1.1553457289321352,-0.542617030938656,-0.4335926033616189,-0.6002181594397166,-0.20233238666249423,undefined,1495195349948
903d185fccf839df,-0.7332830503056748,-0.4718502147373208,-0.33025717891584744,-0.299390893486391,-1.311139569968099,-1.704624513823896,1.9395442707931085,-0.5485674131133513,-0.35540006753595516,-0.6860173221144598,-0.019866178542403495,-0.19633175540442047,0.022497493315508033,-0.803962615786605,-0.9718114645702565,0.9710554286543623,-0.5930712833808233,-0.8298586950979068,-0.9923947856397857,1.0116166353132008,-0.5700859606933156,-0.43595678125006754,-0.5748531572583333,-0.2611529987521604,undefined,1495195351494
903d185fccf839df,-0.7166508389689711,-0.38732002577984864,-0.2600757355108791,-0.30885027162962114,-1.4210113865052214,-1.7224175717511054,1.9365988930088687,-0.5930732966943351,-0.2919872876088036,-0.6889571548867384,-0.03176021712059048,-0.06502572815454712,-0.4823209113190731,-0.8446993289274816,-0.9444429862404999,1.9914625264896428,-0.1964468966047344,-0.847850587958034,-0.9739651857783838,1.7360980951424603,-0.3979473388961698,-0.4320078326924599,-0.5723275813489862,-0.18876150732855482,undefined,1495195352953
903d185fccf839df,-0.7623893295682055,-0.4882866931407043,-0.1382160517145612,-0.2076542582771296,-1.4632650297472005,-1.7881370565788026,1.9367093489444291,-0.7073255239261966,-0.3105944656342038,-0.7935297935587378,0.023370037258261228,0.0073356583821182555,-0.6868594028520499,-0.815072657894968,-0.9433903708641708,1.7085772373788453,-0.2873332150995517,-0.8436011818978575,-0.9752316082840287,2.038800737771832,-0.32920195078225134,-0.4361979288232856,-0.5619554679728159,-0.23345371661731223,undefined,1495195354450
903d185fccf839df,-0.5641892726490091,-0.5123543372916736,-0.19053268412286228,-0.28710163139685557,-1.3177635609654212,-1.8392638570855184,1.91832438088358,-0.8661953189387062,-0.3700700084681054,-0.5183204066331514,-0.002886191435006771,0.05359002706125207,-0.9697317847593583,-0.7558192769776173,-0.9539166792343727,1.3549710994244344,-0.4451150439792102,-0.7929059679153615,-0.956298238027272,2.01314692790064,-0.3102177831166822,-0.4545255766868004,-0.7460167833977213,-0.36183848349783426,undefined,1495195355956
903d185fccf839df,-0.568347364301771,-0.41725781991203176,0.08827842172005537,0.020755402606910674,-1.2252231449683868,-1.8058998353570488,1.892623290159171,-0.9613326572276194,-0.49000634023303097,-0.4272301619696219,-0.016346628540510385,0.034156819816965354,-0.9392686051693405,-0.7641517794196468,-0.9528640491335759,1.2701055381294446,-0.5353381236308478,-0.7302034930305835,-0.977568543220829,1.8763933397213497,-0.3260815029362048,-0.4494881967792488,-0.7780362347456283,-0.4145869508749639,undefined,1495195357436
903d185fccf839df,-0.6944745916921093,-0.47537233395404144,0.1514411108558483,0.06917597927801916,-1.2913396075801962,-1.8390588859479302,1.9000787855974122,-0.963450781855375,-0.4766768784659556,-0.48707008467589025,0.005286310808802283,0.02990570012012111,-0.8739903631907309,-0.7271184179651495,-0.9897062057327376,0.853860141836638,-0.6970989593863848,-0.7143647998968264,-1.0115100724655026,1.7314785723457338,-0.35640667009830485,-0.44994368781962685,-0.8182662909418753,-0.4923042963321178,undefined,1495195358957
903d185fccf839df,-0.7596172857190692,-0.5951234812547815,0.2101386137902721,0.10848411807536641,-1.3279464028219705,-1.887383611917932,1.9188661151594817,-0.9121302340227865,-0.43915142632969983,-0.631206655142373,-0.01919102465718887,0.04176510626003982,-0.9349167223707665,-0.7095275751594956,-1.0244430910869549,0.8053656242143401,-0.840624470648578,-0.6813131667503944,-1.0355581112467793,1.035899993878727,-0.5161235439869788,-0.45049490443714757,-0.750525241027559,-0.6054224748431909,undefined,1495195360440
903d185fccf839df,-0.7235809227127548,-0.5681207913411976,0.37793558429046487,0.34356396637373887,-1.2733807815352864,-1.8888184237726495,1.9380400336871213,-0.7981461491195261,-0.4026113393109531,-0.7008854521708222,0.04741066058785733,0.1294566076854599,-0.9305648395721926,-0.6752717274697826,-1.0191799184962693,0.36285252202081747,-0.8880851508348679,-0.6481665402073249,-1.0256086464859973,0.9527329914638005,-0.5231279253991665,-0.4365090272804767,-0.7515283343800044,-0.6117595495101285,undefined,1495195361959
903d185fccf839df,-0.774863483757557,-0.5669467028889702,0.18142774606611295,0.16922649159231387,-1.2787807726465257,-1.7974586735876539,1.900828275918225,-0.9362646524003115,-0.4037392191616963,-0.5783082526715853,0.03354207671080611,0.1877111385428712,0.018145610516934058,-0.6595325410811566,-1.0118115041095748,0.5911811608284123,-0.7880429662254654,-0.6713767792278996,-1.0031768705462196,0.8952813925672279,-0.5354050388985578,-0.40021314895762516,-0.7085257204018305,-0.5937026431181662,undefined,1495195363500
903d185fccf839df,-0.774863483757557,-0.49650493234239607,-0.23710734629589106,-0.24433741255314562,-1.2628790810880277,-1.770017905866002,1.8636638608968048,-1.137144317142954,-0.43917090987289353,-0.6147407184802777,0.04241106816416003,0.24720657514218056,0.4925008355614974,-0.7169342396799303,-1.0139167679922854,0.6901909540745123,-0.7308870240697951,-0.708836141661023,-1.0327104095931123,0.836351539219139,-0.5733867574767542,-0.3945118103261982,-0.6603520956216088,-0.5287111591490672,undefined,1495195364967
903d185fccf839df,-0.7817935157432261,-0.48711257546048453,-0.18734275713369974,-0.1720850522156021,-1.2882744623847848,-1.7558165338640925,1.8711219918998794,-1.0649941640885157,-0.4004263992119743,-0.6072289338795689,0.03716543225876506,0.19410594636606185,-0.6128773952762924,-0.7104534001303159,-1.0444431182188478,0.4194294498252578,-0.7799960863279084,-0.7040990997903338,-1.0313110473688405,0.7392489387211933,-0.5982069432445573,-0.3989822220302012,-0.6597795883094595,-0.49569181440303506,undefined,1495195366447
903d185fccf839df,-0.4893443992710147,-0.4172577906840394,0.0008705593353712619,-0.07944108349783251,-1.0706496817521656,-1.758849201608774,1.8855832994780997,-0.9030599983949417,-0.4386440374049479,-0.6962331995433139,-0.0449806480885159,-0.029682932400364452,-0.843527183600713,-0.7243409236265269,-1.0054957014180925,0.23959544169884703,-0.7308870240697951,-0.7032061546266248,-1.0139799466743846,0.8017820257727993,-0.580504076439103,-0.38826159999234533,-0.656697366993349,-0.4982539143654217,undefined,1495195367955
903d185fccf839df,-0.4505360269209736,-0.3292054825098466,0.21013810551637327,0.22131126608471124,-1.1051890540597735,-1.7310264395306403,1.88196731604926,-0.8836190668443314,-0.49331525634420953,-0.6650628081065633,-0.060717999314177894,0.09083132408279364,-0.8391753008021391,-0.71878591552312,-1.0107588592843104,0.31233718986757236,-0.7289537585105673,-0.7205140894865438,-1.0239294114106983,0.5139080875082817,-0.6512310850532577,-0.39406203122714945,-0.6309278409228757,-0.4730887920437648,undefined,1495195369441
903d185fccf839df,-0.7554592630771267,-0.3051377799028927,0.2324691192622074,0.19843842140665272,-1.2825659032631471,-1.7139787363700334,1.8796872727799532,-0.9039263011032634,-0.4029379263342932,-0.739960879448839,-0.10406368740588838,0.018506053183900865,-0.6085255124777184,-0.6586067225857235,-1.0118114893851071,0.35477008357395345,-0.7232488387832239,-0.7090767937422305,-1.0304154548731639,0.27851205061120615,-0.6965325747865406,-0.4311529243272809,-0.6127263172978571,-0.50360548799588,undefined,1495195370949
903d185fccf839df,-0.9758356190312996,-0.4642190782177274,0.22608875700998352,0.22709279175057404,-1.4127931130971012,-1.7608686534789157,1.9098642984271827,-0.8256705331994285,-0.3816264511142659,-0.5971063803222403,-0.03231016853426553,0.003989857766260883,-0.6172292780748664,-0.6224991925774337,-1.0402325904534269,0.3487081770108212,-0.740996507622502,-0.7137378400341045,-1.027427816475896,0.3432471147827516,-0.6826301787672456,-0.4350522237094064,-0.6287627899935747,-0.5218738602148371,undefined,1495195372454
903d185fccf839df,-0.9730635579294583,-0.6303443811420647,-0.21158691383479325,-0.23051159432502386,-1.4857907047570547,-1.7781912074262642,1.9179325427863012,-0.8424323284469668,-0.3059228465547041,-0.6213501685359744,0.020343949370761123,-0.00684627063579202,-0.7695451760249554,-0.62898005155321,-0.9739166953229149,0.928622676271589,-0.5259395504623355,-0.7620328680362056,-0.9996784645940479,0.9776630657696763,-0.5313364410818215,-0.45959703860286943,-0.7629598647343675,-0.3720250786590654,undefined,1495195373950
903d185fccf839df,-0.8386201472335962,-0.7659450210760592,-0.3506735248847257,-0.4003789833416837,-1.517861507486834,-1.7957839513379605,1.9324543405580334,-0.789163123183339,-0.30969769113036194,-0.5752210985665231,0.0013101474824534756,-0.09335034583237767,-0.7826008244206774,-0.7169342396799303,-1.000232565638576,0.7548503768552597,-0.7261561249620212,-0.8470019736159968,-1.0087533284723758,0.8809762244430767,-0.5876649842000424,-0.46849199884939574,-0.7457117491165949,-0.3508172100810406,undefined,1495195375493
903d185fccf839df,-0.7582312896735582,-0.8269946393366683,-0.4297868655141289,-0.48219761635781827,-1.4443187748140838,-1.7857286262075447,1.932893511975092,-0.7697920834470958,-0.29450923110273064,-0.584577396676436,0.010296375244208756,-0.012572339580746605,-0.8348234180035651,-0.7095275881102702,-1.02128518237898,0.669984985148599,-0.7317822283991582,-0.8345894039141852,-1.0031838675589593,0.8215074274025537,-0.5956854993609378,-0.473350875253419,-0.7439981775526711,-0.36941566586226454,undefined,1495195376958
903d185fccf839df,-0.7138788296252444,-0.676718624449639,-0.15927028142649216,-0.1984454260094383,-1.313371567147687,-1.761965726113208,1.908625662567088,-0.8543413037141812,-0.3696120373832919,-0.45024512498692165,-0.011824766843102744,-0.02756662341769429,-0.7782489416221035,-0.7002692477466458,-1.0149694091364327,0.7871801871721588,-0.6148553397270022,-0.8021963977185553,-1.0043173508781615,0.7956226396649843,-0.5861262499221452,-0.4839455479044238,-0.7400722825488588,-0.3465210859040953,undefined,1495195378446
903d185fccf839df,-0.7000186621376772,-0.47067618474107803,0.23948685698358516,0.16090182771111936,-1.29341731578329,-1.7906782580826712,1.9429314765096766,-0.632955736336696,-0.39375270961632286,-0.5589714679697686,-0.08136846454827211,0.05162633520453248,-0.9044535427807487,-0.7215634033863553,-0.9770746150742405,0.9589318133811486,-0.5935165202063524,-0.8030006813551908,-0.9947597071410987,1.0567186808272284,-0.527648844168285,-0.4990765623865747,-0.7028687917785915,-0.36068485485182156,undefined,1495195379956
903d185fccf839df,-0.6972466355412457,-0.4407383906088949,0.3186007058868872,0.22343396986557704,-1.2885521782413538,-1.8037546058965104,1.9063561385116357,-0.8833963656496829,-0.39032639100677174,-0.619571323868457,-0.09876797478312174,0.06806390027768876,-0.8957497771836007,-0.691010894432247,-0.979179882638068,0.8700251317892522,-0.620047877978431,-0.775078732327223,-0.9762531422866487,1.1528819722219563,-0.5008564582888212,-0.5078173522710376,-0.6479287925227794,-0.3635422933528117,undefined,1495195381452
903d185fccf839df,-0.49627456927832264,-0.5035491123198527,0.4168541167251643,0.31767546250048456,-1.1591786831220772,-1.839126433705397,1.9131252568171475,-0.8612201537526134,-0.41708776180211987,-0.9054822463748199,-0.05560583063150306,0.041061280064427046,-0.7695451760249554,-0.6354608846274372,-1.0002325214651733,0.7285824165720497,-0.6459707655891377,-0.7067082727182994,-0.9946407606466162,0.7267915917914246,-0.590849844915691,-0.4892911676974185,-0.4841410670333085,-0.4967492744913077,undefined,1495195382970
903d185fccf839df,-0.47964230618350445,-0.49650484465841904,0.2452293354927563,0.21918207294713324,-1.0625959844919617,-1.8019494455511442,1.896252413701394,-0.9157481583962511,-0.4371785974202623,-0.8338859884886115,-0.014260276152894338,-0.020993901953410395,-0.7869527072192514,-0.666939244453915,-1.0297062526342897,0.8114274742480293,-0.604597634931437,-0.6922628279576283,-1.0058146676411377,0.546321810959012,-0.6326750184617735,-0.4839226401777344,-0.441998118088881,-0.44375094019089656,undefined,1495195384439
903d185fccf839df,-0.5586451676980315,-0.3785147715800355,0.19227431106750364,0.10483287222784349,-1.0638405557121058,-1.788905706723934,1.9216773755858803,-0.7257630938788843,-0.42179710921805297,-0.753846852574434,-0.028484187165797294,-0.040764851517656166,-0.49537655971479505,-0.6817525799701717,-1.0518115583733607,0.9084165660220682,-0.5585632031838684,-0.6908949116582317,-1.006283453841417,0.78453576356123,-0.5828745737353932,-0.47530892863671614,-0.4545093118139441,-0.44609522159767967,undefined,1495195385946
903d185fccf839df,-0.5974535745534824,-0.49533087311816093,0.13357680813307984,0.1575951456980743,-1.1543444051098917,-1.774340973411287,1.9271815683768354,-0.6940997681686705,-0.3926945572549571,-0.6062969898927918,-0.08474862556574593,-0.03334010272889181,-0.7303782308377896,-0.6799009170777566,-1.03917996035263,0.9872203338128119,-0.5215844920784253,-0.6913825477289677,-1.0010148548903723,1.057504006351034,-0.5285462473247842,-0.4779305183296464,-0.40943494347475656,-0.41987640474870364,undefined,1495195387492
903d185fccf839df,-0.5808214839857128,-0.44719552636023785,0.25735115970635364,0.1941650445312845,-1.2285145683607852,-1.81907867189637,1.94236081177687,-0.6527958177699814,-0.3737853843622378,-0.5561172360593656,-0.15128084262657057,-0.017051834760722025,-0.9131573083778967,-0.6465708814080894,-1.0307588827350864,1.1771574253287047,-0.46152894088148927,-0.6591035340765974,-0.9987828724653948,0.9749837377024897,-0.5289812025136129,-0.4612182813915345,-0.41313207124291557,-0.4097621464644265,undefined,1495195388958
903d185fccf839df,-0.46716820375226753,-0.4747852897279277,0.5068140223559582,0.47382555460095527,-1.2301294236580493,-1.8629918184896563,1.9496874463216312,-0.6648564137910383,-0.4067798697708608,-0.48087254183649353,-0.14660894749987347,0.024667155626358586,-0.9827874331550802,-0.6613842233997334,-1.0360220590068887,0.9589317851164272,-0.5712771202660096,-0.669331237296159,-1.0246360890584432,0.5978296165233118,-0.6193675415762264,-0.45497411687754413,-0.4391698325603976,-0.38002922880460543,undefined,1495195390455
903d185fccf839df,-0.6168577952339126,-0.5651857017365945,0.6063437089542396,0.607892874416756,-1.1694438088224834,-1.8977231049043115,1.9563198200846426,-0.6505193241828169,-0.4053467459908552,-0.5491733929807189,-0.12639830472635238,0.026279012955168653,-0.9436204879679144,-0.6687908879201682,-1.0433904770747002,1.051879728328838,-0.5758693379051669,-0.6827000818586766,-1.0467809959174377,0.8306541103114709,-0.5771210957879797,-0.45040404928600447,-0.5279276385176584,-0.4009779106105421,undefined,1495195391959
903d185fccf839df,-0.5018185534603662,-0.6015806462341168,0.8041273146646971,0.8170952872447762,-1.0849570927203391,-1.9050904877009724,1.9427973560092704,-0.744809005599376,-0.3788194607124995,-0.5650400245603,-0.07948979237082802,-0.02705157777340739,-0.9958430815508021,-0.6586067355364981,-1.0370746927888026,0.8579014317218739,-0.6363479174700384,-0.6553354328044791,-1.0252797959037798,0.9776476701243905,-0.5310383552034773,-0.44820229171836384,-0.5503133752524071,-0.4168484651829007,undefined,1495195393443
903d185fccf839df,-0.6002255666445041,-0.6520639945285408,0.5801851386131397,0.5966793550275701,-1.031636037064343,-1.88822912493902,1.9211540567431153,-0.8603897835490594,-0.39329631439011964,-0.680824871242377,-0.06758514755488661,-0.022762407164333243,-0.8391753008021391,-0.5613941681938297,-1.0381273302518332,0.7588916102110524,-0.6443032688290812,-0.6469569498086528,-1.0389795511660025,0.7149655868195105,-0.5918087937542659,-0.44438878783337477,-0.5304552615431299,-0.4127593614053043,undefined,1495195394956
903d185fccf839df,-0.6113136730302301,-0.5710558663318046,0.9157790796135252,0.8210944431439127,-1.0237777635086875,-1.8821870780862469,1.9069530960414696,-0.9142963766670982,-0.3730254905037763,-0.8307331707207053,-0.12424851368893249,-0.043598875787971725,-0.7173225824420678,-0.4984374485408744,-1.05075892091033,0.5103568328892153,-0.6753374765926403,-0.6279707840990917,-1.047368727560065,0.3963255559533928,-0.6475070064876172,-0.4418964349484893,-0.5396974056659277,-0.44462452764347526,undefined,1495195396453
903d185fccf839df,-0.6418061036126156,-0.45541382401791425,1.4478806047013133,1.3991757200010968,-1.0143046396110589,-1.8754742114042486,1.8789325144720386,-1.0445743627078217,-0.41039330576880995,-0.8852104729560201,-0.17426141354045385,-0.28985796974849765,-0.4083389037433155,-0.5308416462889469,-1.1023379283695824,0.4699446971843383,-0.695918784986342,-0.624601659026099,-1.0656374006122595,0.4250436590800838,-0.647683568813928,-0.46085160742834275,-0.52660599151097,-0.4795805099302478,undefined,1495195397947
903d185fccf839df,-0.5129066598460922,-0.48946069390895475,1.403857731637445,1.367468587967076,-0.993260105530889,-1.8928386902830368,1.8084694955207583,-1.5254575197700841,-0.3839772624818852,-0.6618691492664012,-0.08193288933593143,-0.24208243776425567,0.9320409982174689,-0.5095474647476883,-1.0823378975565725,0.5184392430713578,-0.6878494347256676,-0.6044565647841386,-1.0419531958986972,0.557470286794892,-0.6039749740797047,-0.47237826923266996,-0.5497514366236911,-0.4857450386372916,undefined,1495195399497
903d185fccf839df,-0.45469403231021116,-0.6092118704376871,1.1843817583350544,1.122457612487908,-1.022409768527281,-1.9151621190140382,1.8340338448452311,-1.4084050028739237,-0.35324073936305905,-0.644323301184157,-0.03435758639336555,-0.18646604213243864,-0.19509664661319073,-0.49380832368677313,-1.0718115597374354,0.35679064372240676,-0.7564192964729479,-0.6028859945140688,-1.0179891186154926,0.27794230837201517,-0.6606716239082443,-0.4759797136006604,-0.47874799170380644,-0.43107587684364135,undefined,1495195400977
903d185fccf839df,-0.6501221488965003,-0.6133209754245368,1.1563095367647962,1.073539214614822,-1.1325387254958457,-1.908991963527246,1.8154516294781082,-1.5811922415803976,-0.36641493718500995,-0.3298466028579308,-0.03028020366925433,0.2674087567028161,0.13129456327985742,-0.5539875166241696,-1.0739168273012627,0.13856494698068614,-0.7888760862356822,-0.6260075715757102,-1.0142178376508366,0.1878306076531552,-0.6886905622970004,-0.4775282344919578,-0.49699114810827905,-0.4488523884739,undefined,1495195402443
903d185fccf839df,-0.7513012231824795,-0.5581415071451418,1.003824825741262,0.9846070020759685,-1.1593329640704804,-1.879657524608241,1.8868955635500455,-1.0809029807496535,-0.33569573382479806,-0.5877784967231028,-0.051101992930733094,0.05455745103279536,0.5186121323529412,-0.5910208780786669,-1.057074701515111,0.1224002114105658,-0.7781882960427332,-0.616799471125509,-1.008592401589764,0.11200866239680109,-0.6964789787545501,-0.4736175156927586,-0.5026029180085251,-0.45793227404773973,undefined,1495195403968
903d185fccf839df,-0.8552522895594804,-0.5475752371789567,0.9291774337240764,0.8764354052423473,-1.0863765150986546,-1.8494123527831188,1.8821487635843164,-1.059924261974862,-0.3718472472285027,-0.5256613928143216,-0.06716700883315778,0.09263132411507242,-0.13417028743315507,-0.6576808846641288,-1.0739168273012627,0.14260623686592197,-0.8013661828666876,-0.6483375313365408,-1.0130703611441922,0.24272606444409642,-0.6795718367772183,-0.463883024235991,-0.5753402775663802,-0.4884371439472857,undefined,1495195405439
903d185fccf839df,-0.6251738405177973,-0.4906347531331898,0.6963031063111347,0.6748116362843961,-1.082437093058902,-1.873103046278226,1.9655951489474224,-0.5263860440519202,-0.34916130855804584,-0.53916237139895,-0.07723945120379931,-0.1564224990360136,-0.4083389037433155,-0.7345250824855842,-1.0549694413135173,0.19312139943083784,-0.7744971479533242,-0.7092667817480357,-1.0214175566729948,0.31429803679177837,-0.6907582492077857,-0.44883211465547657,-0.6277766278947003,-0.5233899022440307,undefined,1495195407091
903d185fccf839df,-0.5475570958177153,-0.5129413522897949,0.4232344789773882,0.4649546282568013,-1.0866953699243829,-1.859113636419171,1.9382320245290332,-0.7047312474141125,-0.384041261746974,-0.49520302308502234,-0.06724961184257439,-0.1001163602079406,-0.7564895276292335,-0.7086017566640627,-1.0402325757289592,0.33658453347288597,-0.8068864323948453,-0.7464158296696702,-1.019682347587813,0.386485951547959,-0.6903025942239878,-0.4438864167527238,-0.6461604033642805,-0.5303663320068535,undefined,1495195408454
903d185fccf839df,-0.5378550372356147,-0.502962068093739,0.178876211093902,0.1721385940191682,-1.1380621444274048,-1.8436148787061266,1.9645853054649038,-0.5479236392171989,-0.33823863888410743,-0.5694343432561226,-0.052167231774536395,-0.006955376729809029,-0.7956564728163993,-0.6761975718667647,-1.0181272920765896,0.18503898924869536,-0.8691862439510728,-0.7699427153924248,-1.0294219081996892,0.4849128154868136,-0.6800729246672348,-0.44815588592017014,-0.6307193153009176,-0.5544601856199823,undefined,1495195409950
903d185fccf839df,-0.5323109150319322,-0.5710558663318046,-0.12226540022095093,-0.1904976236689249,-1.0582759913497044,-1.8380153867167184,1.9201152869937799,-0.831417009144208,-0.3465459188467314,-0.7217774720481135,-0.015432989698086456,0.03101938030832452,-0.8783422459893049,-0.7002692736481949,-1.0223378272042443,0.3951821910141089,-0.8105593781902363,-0.7923360032169362,-1.0551002044351816,0.7282544500187758,-0.6346747703268384,-0.45682837215586003,-0.6655992480273443,-0.5904710874352501,undefined,1495195411458
903d185fccf839df,-0.5018186224711857,-0.6309314838241631,-0.33982746815723386,-0.39610268748497146,-1.0306897503281243,-1.867729489820206,1.9202046908838475,-0.8557431311895486,-0.37577483601997863,-0.7735851040969141,0.016632432586133377,0.017275782190228132,-0.7956564728163993,-0.739154265618171,-1.032864146617797,0.7710152254842662,-0.5947679340865131,-0.817845100698281,-1.0562196941326307,1.3187540358718106,-0.5080439264894188,-0.46580961772447727,-0.6798914000140642,-0.5395591090520678,undefined,1495195413001
903d185fccf839df,-0.6556661675839537,-0.6467809180014329,-0.4291489817710762,-0.4820328121952517,-1.1186324602831024,-1.8986198599441821,1.9498189406849007,-0.7169498868001544,-0.35538408247755604,-0.7670632728268986,0.03733193471222231,-0.05533749407515686,-0.865286597593583,-0.7400800970643785,-1.037074678064335,0.45377979202588875,-0.7452952632628588,-0.8477112626490015,-1.0636293167959783,1.373526307576247,-0.5157158495964441,-0.4719980976728053,-0.6325056749379673,-0.5158367411587619,undefined,1495195414441
903d185fccf839df,-0.723580888207345,-0.596884555477138,-0.32451520868057515,-0.39826550663336807,-1.1240427363211793,-1.8927874465219148,1.9566853664324158,-0.6586703784781314,-0.361726320319916,-0.6827037642958823,-0.015500202420022481,0.04315176192041192,-0.6433405748663101,-0.748412625407957,-1.068653662072811,0.40124404104779804,-0.719082928818323,-0.8416569685487815,-1.0702972775186321,1.4256654448670463,-0.4985336882380421,-0.4682449244146053,-0.6397288248959979,-0.5263951409638321,undefined,1495195415953
903d185fccf839df,-0.8025837152164623,-0.485351588922105,-0.24029727328505357,-0.33337309261408926,-1.0423228720642117,-1.8496406196417232,1.9271789527149163,-0.789942698266024,-0.3531946944320781,-0.5990790532392308,-0.049440581409874784,-0.02295841486455794,-0.7564895276292335,-0.7937784634029349,-1.088653692885821,0.5346041199650857,-0.63125673666407,-0.8675587089146177,-1.0769022670412691,1.7005738896560372,-0.44135248619745837,-0.4599946548581948,-0.6557785844491222,-0.5384425767572383,undefined,1495195417444
903d185fccf839df,-0.6681402872678954,-0.49650493234239607,-0.06165424605736894,-0.08257597562568038,-1.032541175458961,-1.858431169114057,1.8861618709054069,-1.0683095717414044,-0.36274035496459917,-0.5927328291560304,-0.03967333859552947,-0.05087666360220214,-0.865286597593583,-0.774335957704866,-1.096022133040334,0.6073457550749249,-0.7341307518362502,-0.8225884757008941,-1.0808134845354287,1.8570836908683444,-0.3892419499902917,-0.4732471783876218,-0.7161413475800764,-0.5186060188168805,undefined,1495195418963
903d185fccf839df,-0.7014047444467124,-0.4389773748425231,0.139319286642251,0.043362993496217646,-1.179595788808673,-1.8506934356395357,1.8970834504512983,-0.9963259330645095,-0.3751453145977077,-0.6484660247853475,-0.06052661343480006,0.021482796777602484,-0.9349167223707665,-0.7252667550727344,-1.0981273932419275,0.710397064324033,-0.6550645172095383,-0.7878016164851568,-1.0825347000110914,1.604071832676888,-0.4359515183662672,-0.47456210495287604,-0.7139476775408221,-0.4935667267641551,undefined,1495195420473
903d185fccf839df,-0.7388271034985378,-0.5939494658725348,0.39962820601934745,0.3891349383991235,-1.3570857785209076,-1.9252057982876813,1.9320098927736984,-0.8791129622582884,-0.33017156085951577,-0.5335246367139966,0.015636654593022308,-0.053703407462048686,-0.9653799019607844,-0.7058242558500528,-1.1002326608057549,0.41538821646946505,-0.7497486163335789,-0.7965854085850296,-1.0800508317950814,1.1742858222025292,-0.5389662468448659,-0.4692910576191131,-0.6591776956600873,-0.5224432382016206,undefined,1495195421946
903d185fccf839df,-0.6418060863599108,-0.5927754651042845,0.7077875550555781,0.668121807700698,-1.361272058113798,-1.9598322685828131,1.88368719913431,-1.2159700040601722,-0.3846909618745069,-0.6190736672080174,0.055877058146504545,-0.12300199930397489,-0.21250417780748662,-0.6761975653913774,-1.111811621363455,0.7750564023106159,-0.6794478332789569,-0.7839765178230022,-1.0824997155713332,0.9698560605787903,-0.5789882202056532,-0.4786803321456312,-0.6596878585091609,-0.5108399103343954,undefined,1495195423446
903d185fccf839df,-0.6016116662062442,-0.7770983498823542,0.9719242851648898,0.9417957557578425,-1.3781097436676413,-1.9950387186191365,1.8675112680779669,-1.3777114501776506,-0.33445896460080377,-0.4630568527410228,0.09813390098607183,-0.03450883426008698,-0.2516711229946524,-0.6882334065690117,-1.1191800504746172,0.615428560963169,-0.705351581923446,-0.7886628963657388,-1.0744533831059737,0.6797955428724276,-0.643059114297781,-0.483107319135749,-0.6619498497972087,-0.5004110534797043,undefined,1495195424997
903d185fccf839df,-0.6182438257848332,-0.7172227323899956,1.1448253421573023,1.1163093615935529,-1.355141783006956,-2.002636696463052,1.882764145974984,-1.2705187830025477,-0.35708391334924144,-0.4557874770171325,0.0798148887392276,-0.22921037507458142,-0.36482007575757575,-0.6984175783788434,-1.1023379210073485,-0.13219650073912517,-0.914523973837451,-0.7831089042402195,-1.0719135406353986,0.19623816159967647,-0.7587204968858853,-0.48209693211739263,-0.5718233797287801,-0.4884285528580858,undefined,1495195426441
903d185fccf839df,-0.6833864853063832,-0.7724022006693907,1.0657114932540002,1.0656871234707692,-1.387027442313815,-2.0160368096303865,1.936335918947635,-0.9391236306432297,-0.31080787164847057,-0.5508285916389124,0.1284817812189876,-0.23032459759303872,1.467322582442068,-0.7011950791928533,-1.1086537089743633,-0.2615153463006201,-0.9996136691482284,-0.7853381007856179,-1.059543179360223,0.041052629213201665,-0.7954217221246723,-0.47972742938218776,-0.5365918819721508,-0.4983253703637816,undefined,1495195427966
903d185fccf839df,-0.7014046926885978,-0.7806204106430901,1.158861580010906,1.1205022590831135,-1.3730388926930681,-2.021184428728604,1.9595439591310722,-0.7975789584545783,-0.2997157098408587,-0.4698453188808371,0.16077058695747096,-0.2169740794676267,1.606582831996435,-0.7123050953996672,-1.1244432193841858,-0.24332988099371725,-1.0145933285298643,-0.7880676000144105,-1.0600259587662952,0.05943837337223857,-0.7909748984444004,-0.478774231373275,-0.5566304034657712,-0.49504601137235277,undefined,1495195430656
903d185fccf839df,-0.6847725331100087,-0.783555485633697,1.1652416881261805,1.1304448678863421,-1.3486206479837597,-2.0222349156815467,1.9476861590769055,-0.8772528807292054,-0.2854470602942772,-0.44413810372007784,0.19235600406679315,-0.27565531972309687,1.7153799019607845,-0.7391542591427837,-1.1212853143573278,-0.18271163503931948,-0.998399448758323,-0.8034629862879337,-1.0545264653805246,0.12311094581766346,-0.7833275218796208,-0.47585131672037095,-0.5619465843836949,-0.4789228030088268,undefined,1495195430982
903d185fccf839df,-0.742985143393185,-0.7753372902739938,1.173535955744512,1.1304448678863421,-1.3079510013255071,-2.0169871404191078,1.9816369500756628,-0.640215822262575,-0.3296875378187676,-0.6265082423420572,0.1555335192826338,-0.4175825825349747,-0.3996351381461676,-0.7845201165639233,-1.1181274166927035,-0.26757716806958776,-1.0529150790672024,-0.8190166960205117,-1.0639301793088858,-0.023697830334383385,-0.8262443133953945,-0.4779093032448318,-0.572647576637869,-0.504145238069622,undefined,1495195432445
903d185fccf839df,-0.7471431832878322,-0.7407033907708358,1.3981155072652232,1.348460437212843,-1.2073054564862697,-1.9936435054117314,2.0095760082614817,-0.4028696863107912,-0.368693926137381,-0.7516765746172074,0.11840257448450146,-0.1668267415683154,0.40111129679144386,-0.7613742721302498,-1.1097063537996277,-0.231206237455782,-0.995757440948743,-0.7709116557584557,-1.0610195053357796,0.020896067408816155,-0.7951158614736024,-0.4780943350191668,-0.5474529827203923,-0.5105091052865438,undefined,1495195433958
903d185fccf839df,-0.5725053696910085,-0.716048717007749,1.6431124213026103,1.541617952677285,-1.2116254507708246,-1.9748768247376212,1.939002540707294,-0.8397668607621668,-0.34022386018203454,-0.6036560842048655,0.06535315684080187,-0.27917113015553235,-0.2342635918003565,-0.7104534195564777,-1.0970747705033645,-0.10188727883540091,-0.9442247068856243,-0.7262200719336573,-1.0595291846618666,0.14502293752448744,-0.7514794494961972,-0.48907067257076564,-0.5044852780055871,-0.5000567568731777,undefined,1495195435517
903d185fccf839df,-0.5378550372356147,-0.6097988854358085,1.8370677080069537,1.8619363225502383,-1.1998277560576465,-1.929100285414593,1.929671988590582,-0.842680330886838,-0.3694802604450427,-0.4884441586878523,0.06210106296093344,-0.3566420495828235,-0.034076983065953644,-0.6586067225857235,-1.1002326534435212,-0.09380489691797997,-0.9501671553288182,-0.6848659507334977,-1.0618871097682634,0.17431077886513882,-0.7235013291674426,-0.4885929901613907,-0.554341568837412,-0.5084335083367713,undefined,1495195437043
903d185fccf839df,-0.3535150270350515,-0.5898403754996814,1.514233983237117,1.437723911368256,-1.104314773398438,-1.9277842652102946,1.9358651825563595,-0.7918577044303151,-0.359799933349561,-0.5052897798612425,0.06937504461440785,-0.20926413885520168,1.1017644273618539,-0.5900950531078467,-1.0581273463403753,0.06178190892672494,-0.874744380570379,-0.6066477642709694,-1.0215994729483362,0.4974625532508075,-0.6086757944096934,-0.4935569488806525,-0.3403301352231148,-0.40855693931382986,undefined,1495195438454
903d185fccf839df,-0.09433026422542794,-0.4125616853130645,0.6210175764139467,0.6192319152224993,-0.936225915560609,-1.8535979952381076,1.9317837181530852,-0.6631268118598991,-0.40763871434474636,-0.6586426713665311,0.07052737063700446,-0.3043932805387184,-0.1124108734402852,-0.5697266835866338,-1.0391799456281623,0.43155312162791465,-0.7856466088321742,-0.61389898364103,-1.012867453359618,0.7374473265812432,-0.5543484050004104,-0.4923307515286237,-0.4093033126632206,-0.38217997086026484,undefined,1495195440004
903d185fccf839df,-0.01394145842350457,-0.23234789090784835,0.4940535519884599,0.29615770564616956,-0.6936788938165133,-1.7830406790631028,1.9075474242916013,-0.6630010605398322,-0.4401707930838032,-0.5928099931235244,0.006585835280108804,-0.07296420397360256,-0.7695451760249554,-0.5613941811446043,-1.0065483462433569,0.18705963419131327,-0.84024542486161,-0.5626211391558039,-0.964022717173953,0.7188460027051043,-0.5238177551518107,-0.5099897403363702,-0.42661869633871474,-0.4414838538229394,undefined,1495195441447
903d185fccf839df,0.09555369565176906,-0.2059321283084089,-0.0667583325495885,-0.09027553156552534,-0.7242274153931221,-1.7564337807867545,1.9008440484538758,-0.6642048028480926,-0.5243294581379524,-0.6751132796443647,-0.04193056872441608,-0.0028560229377173015,-0.7477857620320856,-0.477143292901165,-1.0065483241566555,0.17695663559599595,-0.9449843927681851,-0.5588150398229813,-0.9528977880390799,0.8458677794203812,-0.49109230716386143,-0.5170939302987925,-0.4780794390519588,-0.4651021977429069,undefined,1495195442968
903d185fccf839df,-0.33272479305640545,-0.34094575324428206,0.001508951352322842,-0.07345734671712129,-0.9353721995715996,-1.6895659805358376,1.8342021407441649,-1.0771308840242544,-0.4071086325107219,-0.5386065745154318,-0.11576979706013878,-0.01949504228964225,-0.6563962232620321,-0.49473412923143156,-0.9560219615226677,0.23151303151670458,-0.8741545801356365,-0.6099282288633185,-0.9363503305481865,0.6141673703997009,-0.5547732300817182,-0.48978028616639,-0.44626837212328674,-0.4487276259755111,undefined,1495195444472
903d185fccf839df,-0.6875445424537354,-0.49415684312191815,0.1648397191033488,0.14943744413608678,-1.31063556860864,-1.708793851365162,1.8721239527808984,-0.9858243490512052,-0.33350638278984984,-0.6073643693699796,-0.07427098565302369,0.030686431967821767,-0.6520443404634582,-0.5613941293415061,-0.9476008765428905,0.3123373029264585,-0.7598114868943816,-0.6553354335630024,-0.942605479765555,0.48591371803525873,-0.6042623893407026,-0.481932123144386,-0.3836103787984526,-0.4131008306261077,undefined,1495195445939
903d185fccf839df,-0.78040753695042,-0.42547597142974647,0.43408053570488003,0.42581618951783407,-1.2771350540825375,-1.7635868751229107,1.8409107824739481,-1.2747084224267242,-0.28577879700302894,-0.5985882269415421,-0.03873386731436622,0.00042678697253909685,-0.673803754456328,-0.6067600191395821,-0.9907588431957681,-0.017021830599297242,-0.799896244980915,-0.7023385416805588,-0.9790588641822436,-0.009053912955592377,-0.7387233813497136,-0.47057986326475887,-0.5626353432113624,-0.450411548867506,undefined,1495195447431
903d185fccf839df,-0.7748634492521472,-0.46715415320833437,0.4704472790304191,0.5195823116713679,-1.2258300007755734,-1.7639013232314098,1.8890099255348165,-0.9521171701637005,-0.2759850266968119,-0.6606296620921872,-0.034365111763737646,0.09215794472630331,-0.38657948975044565,-0.63916420393688,-1.0170746582946757,-0.26353600537559885,-0.8871283770497238,-0.7487400200103465,-1.0110342892341329,-0.28736541832114165,-0.8231921306935519,-0.4697171234178755,-0.5901974518351821,-0.4970073614276756,undefined,1495195450563
903d185fccf839df,-0.7928816911397716,-0.43252023909118015,0.3179623138699356,0.32675832540334493,-1.1376095763423852,-1.7711825255963423,1.9145085208687636,-0.7818254432955937,-0.2302089425674972,-0.7333003428072028,0.011867883223290332,0.09677614911679767,-0.5345435049019608,-0.684530067833407,-1.0349694178627413,-0.4858028506789476,-0.9170855733331341,-0.7824756109189102,-1.053924740018271,-0.45550104398759644,-0.8863166118507733,-0.4613882071058899,-0.5815597382679462,-0.5096377879032885,undefined,1495195451949
903d185fccf839df,-0.7305109892038335,-0.4096265957084614,-0.05527439207904391,-0.0661035942151859,-1.064056554729752,-1.7854607620552703,1.9300348983259998,-0.689886356419666,-0.24743818153384772,-0.726720936735286,0.03608419772690562,0.06642792833432433,-0.43445020053475936,-0.7604484665855913,-1.0854957952211968,-0.6050186835127644,-0.9872807083228406,-0.8197196527963856,-1.0969131463993653,-0.6251149212246335,-0.9524618312654403,-0.44152639268583316,-0.5851919111364778,-0.5110651729581284,undefined,1495195453444
903d185fccf839df,-0.7734774359539315,-0.5375959529829009,0.0761560892325592,0.06536432527994386,-1.1167604635001214,-1.830790086100263,1.9188266738688973,-0.8391834373435613,-0.26524090727464733,-0.7175001529077623,0.04616369340469894,0.013711331201109128,-0.8957497771836007,-0.7863717924071129,-1.1181274203738205,-0.5585447260389198,-1.009210423527315,-0.842910891878595,-1.1207792678837512,-0.6125343926547105,-0.9648992503149545,-0.46038598366580585,-0.6171725033578132,-0.5214917573718385,undefined,1495195454980
903d185fccf839df,-0.7526872364806952,-0.6015806462341168,-0.10440109749818247,-0.15235641883977893,-1.0995319225430986,-1.8947277027419167,1.9043785210693647,-1.020426211728249,-0.27471742884208694,-0.7521248528123924,0.054249410114042995,-0.041491784724832635,-0.9523242535650625,-0.7928526254813402,-1.0960221256781,-0.37264875481993376,-0.8890086787372181,-0.8520873271896227,-1.1093044979481275,0.0026335101940833106,-0.8225397641352392,-0.4621576368713496,-0.5520953018392486,-0.3404727878521106,undefined,1495195456429
903d185fccf839df,-0.7000186621376772,-0.6696744737001747,-0.2390215057989481,-0.29408785160703754,-0.9832521170710938,-1.9085657118076302,1.9165387417129596,-0.9332007890251132,-0.19846529780759498,-0.7288105913819449,0.04999206916178234,0.00047205063579292033,-0.9349167223707665,-0.8150726384688062,-1.0423378469739035,0.366893585788281,-0.6844386860789007,-0.8624860209791968,-1.0945972013446597,0.6052824694234644,-0.6876729133806746,-0.46467775324545,-0.486587558373624,-0.31092522194900096,undefined,1495195457941
903d185fccf839df,-0.7041767365377342,-0.6620432787245967,-0.2651803302769975,-0.3768298325303399,-1.0766051028080825,-1.903273681092922,1.919723438421283,-0.9149217359852875,-0.21135281770082334,-0.7057098868814558,0.04294386428186608,-0.0423734371019036,-0.8261196524064172,-0.8021109464188027,-1.04023258677231,0.457821053646403,-0.6931080197569787,-0.8658994770288878,-1.0925961134889834,0.6114110501591319,-0.6844765060381793,-0.4690853272951351,-0.4865806731451955,-0.3190461378444484,undefined,1495195459456
903d185fccf839df,-0.6071557021464024,-0.6097988854358085,-0.2441261005650665,-0.35570797002868926,-1.0152200604638721,-1.897478533527476,1.9421635749458142,-0.7425988031383993,-0.22828439498001282,-0.7037191825662901,0.030040561844213724,0.059336240371772084,-0.6389886920677362,-0.8197018021752311,-1.0644431379885069,0.4780271356312023,-0.6789344478423067,-0.8884130917521863,-1.1017759295426957,0.5998930123191187,-0.6987517586297498,-0.4698222833155713,-0.46444399793951346,-0.3038641639552755,undefined,1495195460928
903d185fccf839df,-0.7831795635468516,-0.6027547054583519,0.060843829755900525,0.05759485006287677,-1.2026666051634103,-1.858643129468816,1.9367829970591948,-0.7733314713459409,-0.2673357190475618,-0.7187010496096816,-0.0006730628951009482,0.011991096946797652,-0.7390819964349377,-0.8076659415714351,-1.05286417374969,0.457821053646403,-0.6875790140530067,-0.8602948213151927,-1.0860470984350088,0.5996158412569095,-0.6813716896739257,-0.46290957879703365,-0.5035138233597549,-0.32806121257144305,undefined,1495195462433
903d185fccf839df,-0.6501221488965003,-0.5951235397107661,0.15335527035890537,0.25504333887815367,-1.1268815922967326,-1.8289429990380806,1.9160338257330705,-0.8546834758793178,-0.25623842688652937,-0.6873087556250772,-0.043634368186208194,0.1506215387573459,-0.7216744652406417,-0.8280343175680351,-1.0581273352970246,0.44165621914975733,-0.6799309606259469,-0.8572613417200453,-1.0569193744495486,0.6052824702985147,-0.6717222731207471,-0.45585413757855875,-0.5030780761496011,-0.3611765679399086,undefined,1495195463934
903d185fccf839df,-0.7055627843413597,-0.5311388464595502,0.2726634191830123,0.3686777113217808,-1.2497339568999866,-1.8304104202065121,1.9218903964753273,-0.8295780671780221,-0.25501686047692135,-0.6554076379310698,-0.010561552135014099,-0.16337286711288077,-0.5127840909090909,-0.8400701652210566,-1.0654957644081868,-0.34436024852063124,-0.9993165717558592,-0.873068368518709,-1.0659032797497774,-0.2970202444506266,-0.8915954866819914,-0.4579495370493865,-0.6374389686675718,-0.4883901725674134,undefined,1495195465480
903d185fccf839df,-0.723580888207345,-0.3720575773727079,0.12911060538391303,0.24568136169602878,-1.3345292437012295,-1.8067197281561058,1.9106821573529196,-0.8804863793953857,-0.24221372781198333,-0.6213119588223676,0.01783992687054427,-0.0334199957142425,-0.09065145944741532,-0.8382184764270925,-1.0981273969230443,-0.5666271362210623,-1.064623695738911,-0.8697689042648279,-1.0871176101810534,-0.6105017967518914,-0.969805574955344,-0.45076432641821096,-0.6061067088927525,-0.5030851953414341,undefined,1495195467543
903d185fccf839df,-0.7000186621376772,-0.3720575773727079,0.11252308669504771,0.11989455754393297,-1.317609270698591,-1.8009455440385405,1.9034922694457028,-0.9190748299792073,-0.23145115403026917,-0.5609710018771628,-0.0025701357588764173,-0.0028968018474629,-0.0036138034759358177,-0.846550978869122,-1.0981273969230443,-0.5342974248306885,-1.0523859295480216,-0.8573879995693099,-1.0832693638746764,-0.6097472725076918,-0.9634893015936591,-0.4493439657236991,-0.6017856342650352,-0.50348767259734,undefined,1495195468488
903d185fccf839df,-0.6639823163840677,-0.31394303410270585,0.2120522650194303,0.261548747019461,-1.3100801399783049,-1.8240492681961025,1.8790350710457506,-1.0935376308941063,-0.29235827903442385,-0.6002816366319591,-0.026353810845780184,-0.15829828226637482,-0.19074476381461675,-0.8521059934479163,-1.1086537236988308,-0.5706683413121336,-1.059207531644218,-0.862669674972748,-1.0851375124460372,-0.6079764527756852,-0.9687143509107757,-0.44056387583577544,-0.6104893704096708,-0.49716096095099976,undefined,1495195471509
903d185fccf839df,-0.626559871068718,-0.3250963336810084,0.21013810551637327,0.17542820718791233,-1.2984470162897088,-1.8136329102797444,1.8688813920162002,-1.1517285250694107,-0.30170508335737634,-0.5843832061918539,-0.0017258959439343646,-0.18042217879496464,-0.19074476381461675,-0.8511801555263215,-1.1202326732131802,-0.5423798632775526,-1.055146709462853,-0.8630116539866939,-1.0857392381753141,-0.5842474473602091,-0.9630548054631836,-0.4401750493714196,-0.6191429710930656,-0.49770254927189317,undefined,1495195473502
903d185fccf839df,-0.6556662193420683,-0.3937771323031992,0.04297952703313206,-0.043432334551458944,-1.2948058817026546,-1.8152470739347792,1.892465484143482,-0.9977963316680128,-0.3337534051043913,-0.5675879314984486,-0.013058076703732368,0.031868072125014926,-0.28213430258467026,-0.8400701652210566,-1.0602326028608522,-0.3140511679405147,-0.958533525033455,-0.8566153803465447,-1.031220088160684,0.4632164113590803,-0.6893817696410431,-0.4349282393062715,-0.637273437875222,0.10829573320798724,undefined,1495195474442
903d185fccf839df,-0.6528941927456368,-0.37675366812968664,-0.0067855704029580795,-0.0534153450185034,-1.296595592855314,-1.8290408287161255,1.901343709016925,-0.9513824604018152,-0.3240281466973391,-0.5938491464515001,-0.023325900392948577,0.02455875945095477,-0.5650066844919787,-0.8372926385054977,-1.0402325794100762,-0.27565960651645177,-0.8943162817960904,-0.8463940093730408,-1.0214385466774305,0.5150013833814796,-0.6727679124156026,-0.434321029952041,-0.641569698885261,0.12343792282124284,undefined,1495195476319
903d185fccf839df,-0.6057696888481866,-0.42019286567464637,0.22417459750692648,0.13682583359290493,-1.2261282820666672,-1.8647899913765003,1.882104053259108,-1.1063491141282835,-0.30977617688899695,-0.5444989815271043,-0.05736543047265992,-0.08110358987978449,-0.7913045900178254,-0.7984076465355217,-1.0454957483196445,-0.23928861937320295,-0.8794923714405781,-0.8415176425033724,-1.0272179124738001,0.5376832939546535,-0.6671409828433504,-0.4462173941889416,-0.6389396254219913,0.12276107227588902,undefined,1495195477433
903d185fccf839df,-0.5835934588240297,-0.4348682552416772,0.304564213896334,0.21318701010760202,-1.2413099713035531,-1.8556221063513934,1.9243282227148444,-0.8211956699541727,-0.31883535244338507,-0.6034543777557669,-0.053508570921831755,-0.10345977041298869,-0.8000083556149733,-0.8002592964771622,-1.0433904807558172,-0.1685674030882094,-0.8436377850900721,-0.8358686567929687,-1.0284843352669466,0.5819230284353373,-0.6563165700531315,-0.4480835484431558,-0.633634957100381,0.11267319854815458,undefined,1495195479368
903d185fccf839df,-0.4685542170504833,-0.6033417204564733,0.631863887278388,0.6556483917423123,-1.1764380786555604,-1.9137482704518134,1.9260454828053226,-0.8615158598051539,-0.3573467435088951,-0.688116137280463,-0.04284767024135236,-0.013273084788338768,-0.8826941287878788,-0.7734101133078839,-1.0476010232457058,0.5002537777644549,-0.6491041294770385,-0.8100809101220187,-1.0232227333714612,0.9301280729428482,-0.5663264500881654,-0.4461897057063232,-0.5465916546184052,0.0671318209878484,undefined,1495195480433
903d185fccf839df,-0.5960675612552666,-0.5945365100986486,0.49405380612540933,0.4199136839198809,-1.2466996761616091,-1.8986478125947368,1.9614558204877734,-0.6246984508886998,-0.3339777129287947,-0.6790154359736266,-0.03993249618840693,-0.035795468104092225,-0.9871393159536542,-0.7882234682503025,-1.0654957717704208,0.5851192260005585,-0.5956641969196576,-0.8176234463906024,-1.0307303118213937,1.0051031049112642,-0.5520664336045806,-0.4495332660684441,-0.5546068372132095,0.06545917725391626,undefined,1495195482021
903d185fccf839df,-0.7346690636038905,-0.6321054992064098,-0.01826951087350267,-0.08112616802148363,-1.3015430110342712,-1.9293751358053899,1.9690244032363207,-0.6252558828916793,-0.34586122285560084,-0.7026747509195794,-0.017268960788440604,-0.1358756919162589,-0.865286597593583,-0.7835942980684903,-1.0454957409574108,1.0417766590717168,-0.5579722800167796,-0.8192130151761144,-1.0068571934527266,1.1457371063240736,-0.51612398596348,-0.4485142443590863,-0.5765115230567911,0.03002681267627277,undefined,1495195483439
903d185fccf839df,-0.7845655768450673,-0.607450825443323,-0.3257909761666806,-0.27461931302188,-1.3533520696397205,-1.8678529406616713,1.9619134062904477,-0.6266578422572653,-0.3693437794774318,-0.7789453002745781,0.0016080187294486255,-0.07083883905284406,-0.32565313057041,-0.7604484406840422,-1.0454957409574108,0.9710554286543623,-0.5517969386820522,-0.8088143220287934,-1.0048351156782536,1.2950712284178236,-0.4826405048899112,-0.43541828038314606,-0.5960648489511412,0.04591492119303936,undefined,1495195484934
903d185fccf839df,-0.8053557935710084,-0.5986456296994945,-0.4272348222680191,-0.4868362708150008,-1.339456096675722,-1.7998927294215523,1.931007928750114,-0.7341688975045034,-0.38509079130998697,-0.5790564059272438,-0.0671406380298856,-0.11299598485876208,-0.5345435049019608,-0.7326734066423947,-0.9897062057327376,0.861942523754059,-0.5038491676091013,-0.7883842456978437,-0.9704317972582744,1.4129309307791382,-0.44199585360685234,-0.40879550206940435,-0.5963395045716628,0.001713183600815674,undefined,1495195486434
903d185fccf839df,-0.7942676354271678,-0.5352479514464,-0.4348909520063485,-0.49106984377589286,-1.280231053426298,-1.8032025779292675,1.9442805599251574,-0.6336351687797943,-0.3838422134398416,-0.5365825489777506,-0.09963203859737167,-0.05551191025368324,-0.5954698640819964,-0.7076759381686296,-0.9812851428396616,0.9912614823744401,-0.40810420797645236,-0.775490372331917,-0.958530221895876,1.5423086697150084,-0.40544844899031063,-0.40174691158122866,-0.573162475420153,-0.0009832502985201452,undefined,1495195488481
903d185fccf839df,-0.7942676354271678,-0.7207448662207124,-0.17522042464620358,-0.2641354135194258,-1.2419476847319935,-1.7708401278186545,1.895458221435547,-0.92014085904653,-0.40915110116256503,-0.5180152878567024,-0.0756759303137306,-0.03574851673640746,-0.5954698640819964,-0.6910109073830215,-1.0033904559409665,0.44165620501739655,-0.63609322233835,-0.7614059054328339,-0.9907225484030293,0.6322913357762372,-0.6349126649575227,-0.42034080433528487,-0.47686030464028517,-0.4191807308831483,undefined,1495195489428
903d185fccf839df,-0.4740983220014609,-0.5006139788732611,0.5380764250523283,0.41762493531682704,-1.1022267739928717,-1.8363919076582396,1.9303426089004867,-0.7111282662468554,-0.39823537612763704,-0.40435947952232043,-0.1492250024951696,0.041528434769186155,-0.5345435049019608,-0.6910108879568596,-0.9665482846173372,0.4659035203579886,-0.5666902012493583,-0.7306277999303056,-0.9815497291663108,0.6923606709640953,-0.6073222082819978,-0.42143295903085415,-0.44024108411516394,-0.47622265853178547,undefined,1495195490974
903d185fccf839df,-0.6085417499500279,-0.47302428857555207,0.9106752472582551,0.9432786228432815,-1.1527604050692652,-1.860033684640392,1.8837555939272792,-1.0553067517944392,-0.39753147102394965,-0.3191116220264866,-0.14482923137102124,0.008890533180570084,-0.8783422459893049,-0.6891592185890573,-0.9244429554274901,0.12846197665009035,-0.6936503992268165,-0.7215400263456714,-0.9548848831722105,0.36137108792704054,-0.6702986946402854,-0.4133582701054409,-0.508165731398243,-0.39121620790104805,undefined,1495195492435
903d185fccf839df,-0.7014046754358929,-0.3714706354445674,0.9674580824157231,1.0504764604641559,-1.1977089030598762,-1.8223046677659667,1.9010570850561501,-0.8889941703454427,-0.4779524640821834,-0.11815328665791984,-0.10852968689787793,-0.042845349425484444,-0.9871393159536542,-0.5447291633097706,-0.8876008356394974,0.17291543050492472,-0.6710070588550306,-0.6505857259212283,-0.956871977069695,0.27700300375174647,-0.664351228294189,-0.43071817271621365,-0.4431876890654696,-0.35511681071151585,undefined,1495195493956
903d185fccf839df,-0.4186577555674211,-0.22178157709967486,1.028069236579305,1.029180298183606,-1.0902850852066357,-1.7961053853370577,1.8999157503529276,-0.8209006192929653,-0.5870223068222772,0.07703338572615591,-0.12922817810221507,-0.02510579003993904,-0.7869527072192514,-0.5234350076700612,-0.8749692228942991,0.28202822234634195,-0.5959150001489373,-0.6017333980782369,-0.9202576648038987,0.5164334380944818,-0.5819916490584036,-0.43876444513115964,-0.429198911902772,-0.34788821637183315,undefined,1495195495547
903d185fccf839df,-0.31332064138679466,-0.2752000734546866,1.040191569066801,1.0012239077787604,-0.979631557519065,-1.7994059179117412,1.9328119927815675,-0.5874062593840679,-0.593954624588789,0.08869908745294378,-0.14180605915894418,0.12615862345698756,-0.6520443404634582,-0.5021408390795772,-0.8623376322358022,0.5042950676496907,-0.5633489316698986,-0.5648186691058857,-0.9245886906876255,0.6265323217430487,-0.5423022215953541,-0.4670983835899747,-0.3970871480330933,-0.3213270249422952,undefined,1495195496935
903d185fccf839df,-0.3271807743689522,-0.4753723485680376,0.16675337033250698,0.21442656061337115,-1.020105771534441,-1.874106948671513,1.9252854837458728,-0.7545417471235754,-0.43565316860395437,-0.19692872084210392,-0.05578199992298444,0.04586079660240256,0.1530539772727273,-0.5373224858385613,-0.9381272129979529,0.3790173423851024,-0.6747756861886977,-0.611885107690036,-0.9569069593868331,0.4679899280473491,-0.6076761962795848,-0.43580201608867636,-0.39624727526060155,-0.3272976829480534,undefined,1495195498432
903d185fccf839df,-0.5614171597890533,-0.6749576232972634,-0.03932374058543364,-0.14653699740936574,-1.177014079918295,-1.9384172425823054,1.9023982827275654,-1.053437925010071,-0.26612429095234474,-0.7061502579523186,0.002547001185712674,0.21788659608389596,-0.41704266934046347,-0.5762074778085374,-0.9728640799465857,0.2820281940816204,-0.6965224945836545,-0.6610794136887902,-0.9749517349008171,0.45037410547404866,-0.639759289692785,-0.4203909228491741,-0.41446816844973694,-0.3028889566935982,undefined,1495195499956
903d185fccf839df,-0.7194228483126978,-0.6761316679075023,-0.09419292451374335,-0.14825000921314244,-1.3530332146239425,-1.9286833511673926,1.9575716138659904,-0.7248822009987399,-0.273793529044184,-0.7722384394547398,0.050203710068484605,-0.10461100813664337,-0.5084322081105169,-0.5937983270895786,-0.9844430331420521,0.2557602903278535,-0.6822594976241224,-0.6801859048354584,-0.9933743373702216,0.47987752880693235,-0.6463465504798526,-0.4254804757111783,-0.3992877904571292,-0.31580750861035795,undefined,1495195501436
903d185fccf839df,-0.7790214891467946,-0.6097988854358085,-0.02145943786266518,-0.05536688270489278,-1.371485757187496,-1.8963232319599634,1.9287910196193265,-0.8768242065109821,-0.32392462752331164,-0.8403843407021535,0.06393533599949727,-0.18919524322415832,0.3097217580213904,-0.6761975524406029,-1.0212852007845645,0.16887411235496733,-0.7353321126692376,-0.7243645195081582,-1.0093480565710902,0.4213018403502988,-0.681497704203212,-0.41081758945347,-0.40098998870713376,-0.33912253038451773,undefined,1495195502941
903d185fccf839df,-0.8136718561075981,-0.4730242447335635,0.3875058735318513,0.3906977118607058,-1.3905142974588582,-1.8676642733627746,1.9521962924437328,-0.6577000476099778,-0.3964746705243667,-0.9038827970783344,0.043965937447183884,-0.1626011490545986,0.17916527406417115,-0.7456350986923982,-1.0297062489531728,-0.1281552673833324,-0.8851393172014557,-0.7421094275371838,-1.0615512630113435,0.2513030006039491,-0.7355425039521852,-0.43129095363579323,-0.4649015507007304,-0.3840194020642083,undefined,1495195504487
903d185fccf839df,-0.6307179627214798,-0.39142907231071367,0.5157461737173424,0.47011242104597684,-1.2948161707965782,-1.8383298355564022,1.9021852660282061,-0.9301099963481533,-0.4085330983162306,-0.8682000190397946,0.013116467858671828,-0.0558732817828693,-0.7216744652406417,-0.7854459609609054,-1.0865484326842274,-0.24535049767161365,-1.0241647177869961,-0.805261542358753,-1.0964863398898705,-0.07397376043799049,-0.8400551591932388,-0.4441855665996925,-0.6014207182689242,-0.49127047872386514,undefined,1495195505952
903d185fccf839df,-0.683386519811793,-0.47419830395779866,0.5616826980103691,0.5580026483953685,-1.3580526337244405,-1.7748371014485007,1.974528596027276,-0.3912274973486826,-0.38623250409402793,-0.7219236239901914,-0.0643673228718366,0.13975208574089587,-0.5475991532976827,-0.7613742721302498,-1.068653662072811,-0.32819541402398555,-1.0126303665919605,-0.783862525434769,-1.0824227503641877,-0.17872938585913783,-0.8459542437813616,-0.44649968921217426,-0.5812348347187966,-0.5121376729525334,undefined,1495195507444
903d185fccf839df,-0.6085417499500279,-0.4407384490648796,0.813697349769134,0.6679883502351587,-1.2284219929003484,-1.7499025937797759,1.8747432359831675,-0.9766862859481158,-0.4253443026743179,-0.5970358346620221,-0.12665929449565785,0.1518890501103934,-0.034076983065953644,-0.7197117599201021,-1.0591799764411722,-0.36254574209225565,-1.0010980913442533,-0.7130285500598665,-1.0690448477355325,-0.3236287577106287,-0.8345471549789923,-0.43274111535384263,-0.6055477099713087,-0.5237198581999523,undefined,1495195508936
903d185fccf839df,-0.49211649487826564,-0.4019954007328833,1.1199427934392572,0.9753455380374175,-1.1468049881304208,-1.7877154633793007,1.9221323404890263,-0.6819602780276328,-0.4219703747495625,-0.3691918069451721,-0.11557645836961063,-0.0022626990575088405,-0.19074476381461675,-0.6076858441104024,-1.0149693944119653,-0.3423396601074564,-0.823784158920904,-0.6199912732329415,-1.0250349074435743,-0.34688041095378763,-0.7779497824325857,-0.39586418432758147,-0.6092828242600561,-0.5214403635239493,undefined,1495195510425
903d185fccf839df,-0.39370944718871803,-0.4859386331482188,1.4708492480532507,1.477066392468725,-1.0263903330911188,-1.8512571098875839,1.8890809401797926,-0.9475978776822974,-0.3404482524334809,-0.547986267788084,-0.11400897852609465,0.05255557935667828,-0.20815229500891266,-0.5530616398502511,-0.9844430257798183,-0.2271649758352677,-0.745988866805817,-0.5691757318422851,-0.9929755204287166,-0.24916187671707035,-0.7266320580836998,-0.4057838907248541,-0.574384613637116,-0.494760908675469,undefined,1495195511942
903d185fccf839df,-0.44637798702632636,-0.6796537578962306,1.5786729481329143,1.5781629944956679,-0.9795184117488338,-1.9182064342753808,1.9304109785529322,-0.7768910008902659,-0.25876919037192675,-0.5989772063904025,-0.021850529902900314,-0.18529200996619288,0.12259079768270946,-0.4419615813883081,-0.9833904177657229,-0.06551640475103823,-0.6758565901444724,-0.5315010506031003,-0.9548149140480116,-0.16791967867708577,-0.6862656030241259,-0.420003823618039,-0.5253763736360277,-0.48231371616852126,undefined,1495195513435
903d185fccf839df,-0.4408338993280536,-0.6238872746187142,1.5608088995470952,1.5433190369626388,-1.0456554425078746,-1.9123483972505995,1.8733494453850443,-1.1513369268168099,-0.3209911962068679,-0.5993153439786877,-0.06912145488261592,0.04352311912428652,-0.42574643493761144,-0.4669591016651713,-0.9412850885758758,0.12846203317953342,-0.725973314387246,-0.4708947796935092,-0.9291925928623022,-0.011240495709165686,-0.6234156136285396,-0.44320698206483605,-0.5491470927984674,-0.4841533248690951,undefined,1495195514953
903d185fccf839df,-0.5212227741407964,-0.5346609072202863,1.546772407556542,1.4335995598152638,-1.1208644573566626,-1.9058009062490886,1.908999100944057,-0.929895804848535,-0.39907336761283674,-0.45299973556951284,0.012063925820150553,0.07431343984775202,0.07472008689839574,-0.46881080340990994,-0.9223376878636628,0.1870595776618702,-0.745244884666938,-0.4673736633466159,-0.928450930756448,0.09046623569620535,-0.6024821166836599,-0.4449732824153644,-0.5595995810618318,-0.49936554827688157,undefined,1495195516434
903d185fccf839df,-0.5932955001534254,-0.5587285513712554,1.409599701872717,1.3683713615921553,-1.1241353118556356,-1.8976089719638247,1.8988033440115664,-0.998901819727884,-0.36340232020588126,-0.5004564529775691,0.010348465613795632,0.19202952357920583,0.6274092023172906,-0.5012149752564333,-0.9044429393389479,0.2699044940142421,-0.7263854901118919,-0.5048076949905562,-0.9279051801075392,0.16080633431983204,-0.6115875638934999,-0.45423301896040824,-0.49258962752950114,-0.48236117363356534,undefined,1495195517992
903d185fccf839df,-0.5822074627785188,-0.5763390305428895,1.3719571910610726,1.303815135144853,-1.167160385380282,-1.902232512425124,1.9354812459159727,-0.7711300991710749,-0.37795998262187236,-0.7190793479746902,0.036133256957922244,0.21934309590446524,0.031201258912655985,-0.5299158213181266,-0.9233903326889271,0.27596634404793124,-0.7518022601558532,-0.5428560202942738,-0.9371409701772511,0.18088590842032226,-0.6296910999848631,-0.4734376112419696,-0.4524874352880028,-0.48796872985372,undefined,1495195521006
903d185fccf839df,-0.5641892553963043,-0.6409107387922267,1.0682637906370593,1.140820741367773,-1.1038827766394776,-1.9269760208923923,1.953008901190239,-0.674924993297942,-0.3288060699465091,-0.7826577165628781,0.025919425990507554,-0.01507713637394018,-0.29954183377896615,-0.5373224987893359,-0.9718114498457889,0.19918316467036237,-0.7739188570742813,-0.5639827228824797,-0.9522051033218604,0.1605599606870078,-0.6530162843218832,-0.45854027846599804,-0.4591097959927178,-0.4925302059211924,undefined,1495195522443
903d185fccf839df,-0.5475571303231249,-0.6890459686381805,1.1167526123131453,1.1067387405192926,-1.0693228351983817,-1.9266778779227698,2.010493818574229,-0.30799739788528735,-0.298233729015198,-0.5482987188607131,0.05312578605971416,-0.060708910850265224,-0.1863928810160428,-0.506769976884453,-0.9802325127388648,0.17897711095028465,-0.7593135269492445,-0.530468783972805,-0.9650162641838658,0.2150088627619416,-0.6352041693406166,-0.45383228837456424,-0.43265006570606596,-0.49412507339864636,undefined,1495195523932
903d185fccf839df,-0.5628032420980885,-0.6479549187696834,0.8468741661055106,0.8777384947720861,-1.1221090336881379,-1.9172630918634666,2.050174956034119,-0.05091983334173926,-0.3333525915058386,-0.33025685627559737,0.041021957879214206,-0.06696098060002201,-0.5519510360962567,-0.5484324761438262,-0.9602324635202705,0.17897716747972772,-0.7498099444218247,-0.5606325937005496,-0.9854609454309413,0.22187656865017139,-0.6515387900464411,-0.4416321186740172,-0.40517113794194,-0.4695184132116951,undefined,1495195525435
903d185fccf839df,-0.5822073937676993,-0.6749576086832672,0.620379692670894,0.6475336417348798,-1.1658541046311195,-1.9403248893517797,1.9876276559836312,-0.49922166197834045,-0.3158285552629644,-0.2768422513690009,0.05883297467218377,-0.13117569625339418,-0.6520443404634582,-0.5567650044874048,-0.9802325201010986,0.15068870357750752,-0.8047179982203144,-0.587712260975811,-1.0099707736750247,0.3692550912685745,-0.6302338291052201,-0.42685656906000785,-0.4975066669448586,-0.5162746862989324,undefined,1495195526949
903d185fccf839df,-0.7069487286287559,-0.652064023756533,-0.004871410899901033,-0.06306825250183548,-1.2955361717558351,-1.9298689339940653,1.9361571006922815,-0.8586084440237993,-0.33659484134897566,-0.4353754329296036,0.032693262481535944,-0.10452343100148712,-0.22991170900178254,-0.5734300352730131,-0.9812851502018954,0.10421474610366292,-0.7570086261776278,-0.6652844871278786,-1.0166737179137608,0.4384095065907424,-0.6497194259136967,-0.4348503462802365,-0.5168499437808638,-0.5219722444686411,undefined,1495195528433
903d185fccf839df,-0.7568452936280474,-0.7242669269814485,-0.22179508681923238,-0.29700124956531115,-1.4372730734010086,-1.929288954054448,1.930316305628241,-0.9336311103268937,-0.3202015576141744,-0.5633208555026791,0.04620840028255252,0.0010534875732550835,-0.6085255124777184,-0.5697266771112466,-1.030758897459554,0.22343050827567595,-0.7769439876742469,-0.6853662510195153,-1.0423520148710663,0.6686316618195596,-0.6075402382100757,-0.4568850414403987,-0.6135210541808722,-0.5040996141611859,undefined,1495195529947
903d185fccf839df,-0.7831795290414418,-0.744225466145568,-0.18798064087675248,-0.18715333739008735,-1.3391680947420157,-1.9063715697972115,1.9524618968321914,-0.7450115575662528,-0.3189930794866135,-0.4596454576700573,0.037928511715977345,-0.027336659965728267,-0.8696384803921569,-0.6650875556599507,-0.9518114190327791,1.3388060529423773,-0.36524136335761437,-0.7471694481401802,-0.9752665917695255,1.7049470405835019,-0.36782857566295146,-0.4581443402703569,-0.6506073125987063,0.1535741875789313,undefined,1495195531428
903d185fccf839df,-0.5835933725605054,-0.4642190782177274,-0.00040520815073420496,-0.01948556263051496,-1.1744117994397898,-1.8593512176442422,1.975896095923415,-0.4722874570218114,-0.31473503387890683,-0.41051057410714137,0.050531373384181,0.02125686448869413,-0.852230949197861,-0.7150825962136771,-0.9402324621561958,1.3064763556843642,-0.3837968076408026,-0.7668142407285664,-0.9633930034487705,1.8111039223324428,-0.34695554187169775,-0.4697107730444359,-0.6645489968842466,0.13064634804346706,undefined,1495195532996
903d185fccf839df,-0.2772842266223656,-0.3791017865781569,-0.09164088126763356,-0.06617038914146768,-0.9398361908399703,-1.8158782962478985,1.9966373699827347,-0.2066866238505582,-0.2967810818030209,-0.2687440117966275,0.007200150612977728,-0.008619090264171531,-0.9566761363636364,-0.7419317470060189,-0.9044429393389479,1.4034655039878463,-0.41494127679403625,-0.7977886689966037,-0.9478950671000139,2.0056016877068497,-0.30809552542940294,-0.46963953851691465,-0.6877154493844604,0.08348044678575943,undefined,1495195534432
903d185fccf839df,0.05535927549810252,-0.40786557994208955,-0.10312482173817816,-0.16888530699381493,-0.6208458663053509,-1.7888032194490426,1.9554809038758045,-0.38137898971851775,-0.4497859722837476,-0.2322321366915551,-0.012293678025968776,0.04168921998365944,-0.9610280191622104,-0.7650776173412417,-0.8076006976629905,2.0702660681626144,-0.2275560288719128,-0.768232820815459,-0.8679495058334715,2.9237186005578653,-0.04962395968596225,-0.4865461555005495,-0.8777735069272822,0.608474073389614,undefined,1495195535970
