UUID,iqrAccX,iqrAccY,iqrAccZ,iqrAccXYZ,meanAccX,meanAccY,meanAccZ,meanAccXYZ, covarianceAccXY, covarianceAccXZ, covarianceAccYZ,pressureDerivative, pressureIQR, iqrGyroX, iqrGyroY, iqrGyroZ, iqrGyroMagnitude, meanGyroX, meanGyroY, meanGyroZ, meanGyroMagnitude, covarianceGyroXY, covarianceGyroXZ, covarianceGyroYZ, class, timestamp 
903d185fccf839df,-1.0395922997600435,-0.6808277878924734,-0.3946961438116447,-0.7059512619585968,-1.3915531549322835,-1.3877291980406394,1.7831628428427209,-1.026297758700435,-0.15069948419032467,-0.7291396344308639,-0.04280466476441597,-0.12466102841790717,-0.9653799019607844,-0.7187859802769927,-0.8170744127435646,-0.28172137175597634,-1.0603404172564368,-0.45599105912953275,-0.8769524975459351,-0.2987798622266771,-0.6742837462544137,-0.4920403210459077,-0.6496980598264489,-0.4367558594363948,undefined,1495046630723
903d185fccf839df,-0.9744495971067313,-0.520866083992426,-0.6148102549940374,-0.5730471518763306,-1.4755422977152322,-1.2408604794596811,1.724667757375396,-1.0113539767798652,-0.28524818386107426,-0.7114504563781977,0.02135504908210568,-0.11298300720172473,-0.9653799019607844,-0.7280443076898425,-0.8244428602603112,-0.1483613776328532,-0.9858287061888784,-0.49425859496380126,-0.8956411345684763,0.2556954190580873,-0.5726254725140407,-0.3885291710740978,-0.8791085623192437,-0.6290389599262741,undefined,1495046631173
903d185fccf839df,-0.8136718561075981,-0.3638393966270008,-0.13757816797150846,-0.23664428073507787,-1.2196791472596848,-1.4585147796129148,1.7937290500214398,-0.9464780797617884,-0.25416099688497673,-0.79301189473639,0.06419178523294325,-0.1309166982879937,-0.7173225824420678,-0.6586067096349489,-0.7939164769036967,0.3931615743362125,-0.8674118548828759,-0.4951603951865197,-0.8088393114797444,0.7409103092816762,-0.46161644866709317,-0.4158757808181122,-0.7324083063476654,-0.5738378212344958,undefined,1495046632233
903d185fccf839df,-0.6196298563357538,-0.27050389501373084,0.21269065703638187,-0.053932001441604066,-1.0522353498679187,-1.5173214121525382,1.885253821550381,-0.41707020750551344,-0.47814957156348625,-0.679708723025959,0.031097070234077356,-0.03985046908208635,-0.7782489416221035,-0.5613941552430552,-0.7844427765475902,0.26384272877471754,-0.9056757973429973,-0.5276684684735597,-0.7905577800987121,0.8464445224754217,-0.4468989864265354,-0.43021498560686333,-0.7802249251084209,-0.5686737319604116,undefined,1495046632684
903d185fccf839df,-0.6286389082687465,-0.29780015088236006,0.8283714713657906,0.619613653401968,-1.0847687009486084,-1.574579539807755,1.9177556490490137,-0.3055442009893906,-0.3924241311055755,-0.7031650097088903,-0.1097273162022132,0.1170644053688667,-0.7543135862299466,-0.5623200320169737,-0.7128637677242633,0.45580040870378513,-0.9371011111988048,-0.4268998209134371,-0.7416850547710272,0.5507103796772621,-0.4288185638354314,-0.45724365147936796,-0.7334720894191409,-0.7001150255470877,undefined,1495046633727
903d185fccf839df,-0.5364689204211698,-0.3092469433457271,0.8290093551088433,0.5891636126129749,-1.052274451761252,-1.574838859630163,1.9123889964431589,-0.34014766664522506,-0.4224686183703118,-0.5933844788996966,-0.0757243597638349,0.1340233256244328,-0.45620961452762926,-0.5558391795165846,-0.7423374915311458,0.3931614895420479,-0.9433011461327784,-0.44504614035209994,-0.7363136575790281,0.5690463724536752,-0.4333032060406872,-0.47231380886481633,-0.7170629701293784,-0.7166094689759908,undefined,1495046634209
903d185fccf839df,-0.5323108805265225,-0.183625631449777,0.846235774088559,0.6640374286675241,-1.0155026494337045,-1.6150791851962898,1.9166155004850418,-0.3593992613582233,-0.4353076010416663,-0.5806291294503575,-0.08438464873704662,0.11578262540928536,0.04425690730837791,-0.6743458895481879,-0.7181269182282474,0.1890802791339312,-0.9554066506991826,-0.4625305447316178,-0.7134441780552195,0.4985096452895839,-0.4549322643023503,-0.4781051827605071,-0.6999097890326786,-0.6439947514368211,undefined,1495046635265
903d185fccf839df,-0.5281528406318752,-0.14723062849627014,0.8647384688282791,0.7102344898187636,-1.0068931650687232,-1.634942713604095,1.891044897465208,-0.5525659438176755,-0.40360883051815166,-0.674488107430961,-0.0965168566254307,0.11220584776232805,0.09212761809269164,-0.691010920333796,-0.7476006641218313,0.20322456761448437,-0.9556521712984724,-0.4787032994657236,-0.7257925324305347,0.5112402200821027,-0.4654075394176553,-0.4770938575730222,-0.6984249240431638,-0.6400289058323896,undefined,1495046635671
903d185fccf839df,-0.4505360959317931,-0.19008278181511612,0.8647384688282791,0.7211909161116984,-0.8844059440021991,-1.6162621459888886,1.9100155587966126,-0.37779331389617865,-0.43300356543652413,-0.6828494522200785,-0.04365720797484532,0.12822823540607803,0.013793727718360084,-0.6873075686474168,-0.7433901142697089,0.09411171924362406,-0.9454982079845686,-0.4975453442511707,-0.7462078481635528,0.5261595732296541,-0.4806776191770405,-0.4686597174685398,-0.6776860978261853,-0.6017769890009933,undefined,1495046636725
903d185fccf839df,-0.39925346587617133,-0.22060756171742826,0.8647384688282791,0.7211909161116984,-0.7876769910712408,-1.6262271793643357,1.9382242292047007,-0.18383902616287615,-0.516675870515116,-0.6231743246677455,-0.032334482558201455,0.11974587908951421,-0.504080325311943,-0.6799009429793057,-0.8128638923403774,0.14058559192330405,-0.9057251245986785,-0.48180532173564733,-0.7584080520223795,0.4343880665231915,-0.4926994945110077,-0.46642870111332607,-0.6975137295430919,-0.5784001683151704,undefined,1495046637174
903d185fccf839df,-0.38816539399585503,-0.29691956992919327,0.8972771472846535,0.7649440022963375,-0.7121093899018808,-1.6142843079789275,1.9468100773684613,-0.09140907356103474,-0.5281235085287789,-0.6562991257574509,0.004121118930239029,0.0985423167393988,-0.8565828319964349,-0.6400900548092494,-0.8191796876696258,0.2294923583093651,-0.8379622058815422,-0.5024946927493971,-0.764710350632248,0.44361360849206605,-0.4990202132328881,-0.47883250191625004,-0.6958720158760733,-0.5475593563685924,undefined,1495046638209
903d185fccf839df,-0.34104094185651945,-0.2769611184490508,0.9132272905043649,0.7926382737363857,-0.7231632234446578,-1.5961399571227484,1.9467670371027077,-0.059829729515391054,-0.5144301796764253,-0.5570417981084276,0.03433377094918883,-0.00031467345061341834,-0.8565828319964349,-0.6113892087475561,-0.8244428455358437,0.22949233004464356,-0.82631133598841,-0.5059955919630234,-0.7574234145502206,0.41321208607259335,-0.5038044398554662,-0.48003526240950245,-0.6790160125001542,-0.5519154460713898,undefined,1495046638663
903d185fccf839df,-0.18442116311486156,-0.2878208959142965,0.9795802878347445,0.8994255351523336,-0.5997477651642448,-1.5923211233523054,1.9132273464562626,-0.21996579347369927,-0.4931554779371495,-0.531271723402193,0.02601928582139976,-0.049000564625337584,-0.8565828319964349,-0.6132408716399712,-0.798126997306884,0.26788390560106723,-0.8476040358381738,-0.5053617853500512,-0.74704248960241,0.4289827408099912,-0.4907074500007779,-0.49694297158750916,-0.7085181945005414,-0.5545310419729108,undefined,1495046639725
903d185fccf839df,-0.015327471721720323,-0.3133560483325768,1.0427433581759615,0.9672876820917188,-0.5000506430703012,-1.6049354070662147,1.900036717122168,-0.29897021208757785,-0.48675857015408613,-0.6054012004213052,0.04141726477992906,-0.04664463127967235,-0.9088054255793226,-0.570652482655905,-0.7728638159898901,0.2880900723800311,-0.8319665406035257,-0.5109669760807485,-0.7432597622342744,0.5262825047407771,-0.4727736652524777,-0.50211807412138,-0.6937384390521321,-0.5325226410172405,undefined,1495046640266
903d185fccf839df,-0.009783418528857312,-0.35796924664578694,1.2099021907961522,1.1903851959497977,-0.374760570087404,-1.6332519677226263,1.9110398258130417,-0.2546347837208502,-0.436364789095621,-0.6799038753946923,0.08347004771410384,-0.03604186075035297,-0.9523242535650625,-0.5762075360870229,-0.7876006815744483,0.2880900723800311,-0.8206873769358043,-0.5164939905985395,-0.7570991502056316,0.5138263680985249,-0.4842713589751436,-0.50232911780095,-0.6835742089240915,-0.5339686247070063,undefined,1495046641249
903d185fccf839df,0.0927817035607473,-0.3556211866533014,1.3228307397788834,1.3086892818911713,-0.3318074992867677,-1.6438732982008872,1.9038446782988971,-0.2928517159584192,-0.500161162443858,-0.4952029703910355,0.07247525480869658,-0.008991527422518518,-0.9436204879679144,-0.5678750336449934,-0.8318112783281227,0.2577808787410284,-0.8006269819752705,-0.5217279486389733,-0.7597443948676402,0.5022177576560466,-0.4897176838474562,-0.5025863875089667,-0.6706412566300427,-0.5330038983351343,undefined,1495046641681
903d185fccf839df,0.16762655968603685,-0.33977166479205456,1.323468369384987,1.3371763017533342,-0.13508326004562154,-1.6285352583123527,1.872010873327005,-0.4136378355197053,-0.45611903792864933,-0.43798605996221585,0.05737197677744881,0.024736589558507712,-0.9653799019607844,-0.5752816463623299,-0.8918113339559833,0.22949233004464356,-0.7960101406013375,-0.5507498463371048,-0.7749384313345238,0.470996246164529,-0.5149283685072054,-0.4883181342420375,-0.6588245200201732,-0.5210228552037215,undefined,1495046642709
903d185fccf839df,0.18287270596641014,-0.3133560483325768,1.323468369384987,1.223849430174032,-0.11404900777947839,-1.615512480505708,1.87662618207203,-0.35823228993855455,-0.4351246036620864,-0.39101385590583915,0.07528477375854924,0.024036582647123755,-0.9653799019607844,-0.5780591601271143,-0.8949692316206076,0.25980155194836785,-0.7945709744693297,-0.5598895359295942,-0.7817711477630976,0.4505080942798747,-0.5254303923934398,-0.4844786520901433,-0.6524086024306036,-0.5090908927034613,undefined,1495046643164
903d185fccf839df,0.06090332869096553,-0.28811440341335715,1.4229980559832682,1.1567934234979007,0.0068182138564550476,-1.5902914792097185,1.842309843154217,-0.4900100027782038,-0.5149522604899006,-0.42544752575720896,0.08126599381774165,-0.007951620604699883,-0.9044535427807487,-0.5669491568710749,-0.8802323954849846,0.2598014388894817,-0.7653787513938988,-0.5644449400574092,-0.7886968466284007,0.4157548728995833,-0.5347801502114184,-0.4889412947140162,-0.6528629621278018,-0.48416319569034283,undefined,1495046644212
903d185fccf839df,0.06506136858561277,-0.27754813344717216,1.4204460127371585,1.3050902138073537,0.03966044418620359,-1.589343479269818,1.838420357022593,-0.49838664081677775,-0.5153383965774657,-0.3994817746654232,0.07138746885311839,0.009707913791594792,-0.9044535427807487,-0.5613941552430552,-0.8802323954849846,0.2598014388894817,-0.7566742742250258,-0.5697866561861626,-0.789028933837829,0.44610493820618086,-0.529918967155815,-0.48875165100250284,-0.6490618951573567,-0.4707528248285855,undefined,1495046645042
903d185fccf839df,0.04842920900702375,-0.36149133663451527,1.3349528181294303,1.107926510561636,0.05355642247958989,-1.5721839745620825,1.823525135539197,-0.5752222008416008,-0.5413870802145174,-0.3672386802488369,0.11190497280830941,0.06284632807439482,-0.8783422459893049,-0.5725042103021928,-0.8760218456328621,0.24767790841043258,-0.7584912333555824,-0.5745595862564584,-0.7876429344601237,0.4312546720942811,-0.5355587858774913,-0.48740235376217333,-0.6457447799397795,-0.47224568627156627,undefined,1495046645785
903d185fccf839df,0.07476339266230358,-0.3004417183739063,1.3521787288352471,1.1477766480533824,0.09491521038130055,-1.5808813533458206,1.8073781255120627,-0.6813798389072953,-0.5723941428693227,-0.33896268140640357,0.12127310819187159,0.05464532280177245,-0.8391753008021391,-0.5725042103021928,-0.8718113252296749,0.23555426487249734,-0.7694135468085941,-0.5721822584061413,-0.7924096242189335,0.432404502199798,-0.535916990669431,-0.4879607567754365,-0.6488915507218361,-0.4748285473569658,undefined,1495046646247
903d185fccf839df,0.23831323789504022,-0.31159500333821266,1.5895190048604062,1.4514596373917676,0.2018247439227582,-1.5938901542411983,1.8163483956017767,-0.5861132694879052,-0.6525962817301795,-0.26413428167854736,0.07121251897061427,0.022528507709844377,-0.7347301136363636,-0.5262124696317474,-0.8549691847190555,0.21534809809353347,-0.7676489011013314,-0.5534479281152493,-0.7863171471841375,0.434612044268737,-0.5280618056501832,-0.47737843097069055,-0.6464448352211731,-0.4667866831973425,undefined,1495046647264
903d185fccf839df,0.18010067936997864,-0.28400529842650746,1.6258854940489957,1.5079898483041168,0.23605554584334862,-1.5901540542258832,1.8233331556962635,-0.5256996367325008,-0.6328318203490597,-0.17200084463702497,0.08865238622861864,-0.006648884762812655,-0.7347301136363636,-0.524360819690107,-0.8507586495914007,0.20120386614242336,-0.7751741008728592,-0.5518487986832717,-0.78643296353064,0.4467795867591821,-0.5256970029905343,-0.478459340378929,-0.6468817843651842,-0.47073594534425894,undefined,1495046647695
903d185fccf839df,0.23276904668053827,-0.2951585833908138,1.6558721292592604,1.4566234389198942,0.34072280037918806,-1.593286881406543,1.7799729195244072,-0.7610054369575638,-0.5935119090124945,-0.05900205608280269,0.08926848720998125,0.01621692437505686,-0.7086188168449198,-0.5141766284541133,-0.8739165854312685,0.20726563138194792,-0.7868154139972209,-0.5370959691934044,-0.7924495350859487,0.44854141809194237,-0.5225822649901299,-0.47485744631984467,-0.639352769922207,-0.4687289318553509,undefined,1495046648718
903d185fccf839df,0.284051814757799,-0.2951585833908138,1.733709702402558,1.513153649832243,0.3844370127886783,-1.5917076568969988,1.7941107544677068,-0.6540491400443567,-0.6160593079929698,-0.015394978495931829,0.08021375749600247,0.012781430391435153,-0.7086188168449198,-0.5206574939052768,-0.8718113252296749,0.20726563138194792,-0.7922711575490229,-0.5358222582539635,-0.7967726317450904,0.4475579622982462,-0.5232016742864668,-0.4754671338286698,-0.64160966644138,-0.47160865906196536,undefined,1495046649182
903d185fccf839df,0.13297622723064306,-0.33214046981647655,1.690963105098694,1.5651897570179039,0.4706002941332143,-1.6117484303681788,1.7400156437968992,-1.0079926976526115,-0.5976725278011035,0.11371912929347833,0.06371502971025814,0.0369803457228237,-0.8261196524064172,-0.516954103366574,-0.8623376322358022,0.09815281127580916,-0.7939660527410692,-0.5382583011857509,-0.7965330580532649,0.45439310139139355,-0.523180655500889,-0.47483909893586373,-0.632593104633132,-0.478680394782464,undefined,1495046650245
903d185fccf839df,0.2050490567595011,-0.2622856850400314,1.6456642104117707,1.5885563599554249,0.46998315342319585,-1.610881952714093,1.7282709305292776,-1.0642422020882287,-0.685048981281209,0.2743245889965962,0.07742668793600295,-0.03199290145624246,-0.843527183600713,-0.523434955866963,-0.8676007974642538,0.09411160618473792,-0.7801131419831568,-0.5502972272105963,-0.8042085593831168,0.45790394603770973,-0.5294960500653271,-0.47621929272249214,-0.6306835757593143,-0.46677284065516855,undefined,1495046650718
903d185fccf839df,-0.005625378634210056,-0.3438807697789043,1.7726282348372575,1.735369264400029,0.5047179524721431,-1.6218060848660187,1.746895219085493,-0.9463438010123961,-0.7034704907667274,0.20480922963940887,0.04670286742409095,0.0688582902209735,-0.843527183600713,-0.5123249655616982,-0.883390285787375,0.0718849357867638,-0.771666439128448,-0.5461808135213115,-0.8087284990137042,0.41708266628455404,-0.5332234083615945,-0.4891411471373037,-0.6482663104177749,-0.47139317642031126,undefined,1495046651719
903d185fccf839df,0.15376642670387933,-0.34916390476199677,1.7585919969836539,1.6621072507952848,0.5128539398798453,-1.6230801781750088,1.7282709321005598,-1.0497882040257356,-0.7019822245864937,0.21242918004764086,0.007990388292922729,0.20655943877969007,-0.843527183600713,-0.5021407743257045,-0.8865481834519993,0.10017337142426247,-0.758219446621721,-0.5529190656771066,-0.8111913767359135,0.4305409093547086,-0.533050528581977,-0.4966394985283056,-0.6434123437631505,-0.4694741200081709,undefined,1495046652168
903d185fccf839df,-0.0042392273143553654,-0.37557963813344386,1.7177593050458972,1.6960927913390187,0.5091305166916955,-1.6176157822532256,1.7355528673190916,-1.003997965119418,-0.6893849712345971,0.0694305288161951,0.01923701951556159,0.16424480648328305,-0.02102133467023172,-0.5243607937885578,-0.8823376704110458,0.049658265388789695,-0.7544872352678563,-0.5679408085449602,-0.8173135866873174,0.451390404152423,-0.5396577986707115,-0.497957044708004,-0.6271896801004962,-0.4470346712514273,undefined,1495046653226
903d185fccf839df,0.024866913926536494,-0.37968886003226293,1.6903247130817425,1.6901813426493089,0.5064150901928938,-1.6242587725369872,1.7262933204196593,-1.071163019078633,-0.7225364173242426,0.032308672708110726,0.0277849377890392,0.15398755535649125,-0.06454016265597147,-0.5308416203873978,-0.8781271279211571,0.02339038989974435,-0.7607657635943457,-0.580872679130018,-0.8234008119175783,0.43830172530768247,-0.5483268039153573,-0.49855422545606065,-0.643276572972522,-0.44570364517265626,undefined,1495046653671
903d185fccf839df,-0.03888955976974917,-0.4354552263978101,1.7177593050458972,1.6960927913390187,0.5589441499636538,-1.6380292358331139,1.722766755546193,-1.087344233482924,-0.737498883912538,-0.04946008697487572,0.004953150551380409,0.1490307556755525,0.14435021167557935,-0.4669591016651713,-0.9033903313248525,0.09411160618473792,-0.7310364012592008,-0.577623878624876,-0.8411027433499326,0.45956697929020496,-0.5465074073628562,-0.5004374676090995,-0.644614483870177,-0.45415360424123946,undefined,1495046654713
903d185fccf839df,-0.08462827465414688,-0.42312796989324564,1.6813928158573077,1.688456212002352,0.5635624266435901,-1.6407195068330078,1.7433818032293442,-0.981076430524257,-0.7159178701339927,0.030462339222342243,0.043580701223392124,0.1072727961719626,-0.10370710784313725,-0.49010494609884486,-0.910758749392664,0.09209098950684153,-0.7459599472403048,-0.5815946343272108,-0.8447270915125098,0.44064229025405044,-0.552835640858778,-0.49772209367752485,-0.6418805620884172,-0.4596484783696304,undefined,1495046655166
903d185fccf839df,-0.11650658051310918,-0.4671540947523497,1.6520440643900958,1.688456212002352,0.593812662303901,-1.6351665999577598,1.7422878018459023,-0.9558926950328639,-0.720950368640548,-0.10774438685912911,0.024515529317346945,-0.00733181556798454,-0.5911179812834225,-0.4891791081772501,-0.9107587567548977,0.09209101777156306,-0.7696070533091904,-0.5809866717286445,-0.8351554546491755,0.4464783001492937,-0.5478662090291675,-0.5004991824241486,-0.6495129783939578,-0.46694779483047205,undefined,1495046656234
903d185fccf839df,-0.11789259381132493,-0.4671540947523497,1.6488541374009333,1.6591641402663668,0.5638607134881303,-1.6354810474102768,1.7377198274681798,-1.0002384990386515,-0.7040618903972595,-0.1064752476229573,0.033134535998883934,-0.053363544878236545,-0.5911179812834225,-0.5104732897185086,-0.9065482069027753,0.09815278301108761,-0.7801087109358422,-0.5849257626959823,-0.8316710428203561,0.45533240687324994,-0.5481764928679925,-0.49913561305052007,-0.6402882864762838,-0.4734838315688142,undefined,1495046656710
903d185fccf839df,-0.047205777580682624,-0.416083789915789,1.630351950935112,1.6415827129403098,0.40180955470855323,-1.6280367993067193,1.7005606689111215,-1.2883609958055202,-0.6936441259924919,-0.24223197274449018,0.06170298475053391,-0.08221020939918897,-0.2342635918003565,-0.5012149364041097,-0.9044429687878831,0.07390552419993866,-0.7748040440870477,-0.5844127946013868,-0.8410747563816937,0.43757799895058624,-0.5532808535476591,-0.4925660786695031,-0.6401492714100074,-0.4779164455389714,undefined,1495046657767
903d185fccf839df,0.066447450894648,-0.4554138532459066,1.5876050994942985,1.5787802334058372,0.33284395677980777,-1.617340932550123,1.6845162201715473,-1.3906983361078218,-0.7135061347368218,-0.3267950621004154,0.0465155798460243,-0.10734937318039879,-0.1298184046345811,-0.5188058180620873,-0.9339166631458304,0.06178188066200341,-0.7830888480227763,-0.595622105469574,-0.8443282734515827,0.4332510358205666,-0.5607841671030057,-0.48715232155219196,-0.6391857915213311,-0.4823405393469058,undefined,1495046658175
903d185fccf839df,0.18148655464655544,-0.44426050982561555,1.2162828071853256,1.1759763280507336,0.1448522781713232,-1.569151302439354,1.703882106495619,-1.241059072803669,-0.7318217959051265,-0.40790403325842806,0.02190354261281457,-0.1840681027996416,-0.3778757241532977,-0.5873175393430623,-0.9318113734953016,-0.03318667922830373,-0.7897104512392772,-0.6062487851484841,-0.8556421157766642,0.4390254533879541,-0.5730719026786464,-0.4849395023151006,-0.6100813405281609,-0.47656446240672834,undefined,1495046659255
903d185fccf839df,0.25494532846280976,-0.45541379478992194,1.114838961083987,1.1113510065396635,0.11734832319017163,-1.5719161094856344,1.72392385911874,-1.1278230768851494,-0.7522589200315768,-0.5391566368451242,0.00956537288338359,-0.20754719095318488,-0.7260263480392157,-0.5688008327142645,-0.9518114411194805,-0.03722788431937497,-0.8060019517038169,-0.6037916030680961,-0.8683973018274519,0.41187799316417634,-0.5818928157486495,-0.47859781671002827,-0.6077186428650381,-0.48341987272543346,undefined,1495046659732
903d185fccf839df,0.20227689214143066,-0.3544471566570586,1.0535896690404027,1.0213202975317779,-0.04869368759073517,-1.5241154637435796,1.7489438354599123,-0.9477474882558224,-0.7266603185448615,-0.7605038099228616,0.028731251755010186,-0.12857873770813147,-0.5127840909090909,-0.6123150207676018,-0.9476009059918256,0.0294521551392689,-0.7851997920848448,-0.6077560264911533,-0.8740157406861558,0.3137744972662718,-0.6020302659220735,-0.4761279326151291,-0.6204623703128755,-0.47683175603148403,undefined,1495046660741
903d185fccf839df,0.27712167925590075,-0.35327312666081584,1.0306210256884654,0.9728591518175438,-0.08329477181198279,-1.5170042969482949,1.7221776675238356,-1.115712353367185,-0.7182121819161604,-0.7549844721064372,0.03400018108129948,-0.0957953728898031,-0.3735238413547237,-0.6243508489944615,-0.9444430156894351,-0.04733093944413536,-0.7947184285217325,-0.6151529049278138,-0.8763736659882984,0.31255801998177907,-0.6062820839923667,-0.4723982147047372,-0.6282841233253583,-0.4725349528340263,undefined,1495046661239
903d185fccf839df,0.3187022162240123,-0.3438807697789043,0.9438518094576822,0.850894378676807,-0.2974224127308141,-1.513736374024377,1.7423535364572758,-1.0677888548989327,-0.6513440639414514,-0.6329793775649991,0.019489503850983456,-0.07180862932418731,-0.33000501336898397,-0.5604683173214604,-0.9244429775141915,-0.029145417607789416,-0.8050528306343939,-0.5973383342027468,-0.8858823317311374,0.31485238842058716,-0.6006992036197606,-0.47641870535648884,-0.6254983854459903,-0.47378585434940046,undefined,1495046662220
903d185fccf839df,0.14267818229651438,-0.36677441316162307,0.9438518094576822,0.8598715866684424,-0.3358806344557776,-1.5062501992678798,1.7343589276426612,-1.120580765827267,-0.659820858067481,-0.6983114468284412,0.0208357589462261,-0.07112301062017712,-0.33870877896613194,-0.5836142006074576,-0.9223377099503641,-0.02106303569036848,-0.7863296811750238,-0.6001438284013215,-0.8884781486153212,0.3001468730866951,-0.6054302216335542,-0.4759185417201982,-0.627715028102525,-0.47129090105965016,undefined,1495046662679
903d185fccf839df,0.07753548826955456,-0.36677441316162307,0.9323673607132388,0.8598715866684424,-0.4667969811920591,-1.48465815230455,1.7493908941923186,-1.0416561828529154,-0.6662048943338726,-0.6558650186361374,0.053571380778875834,0.04002631464338245,-0.5475991532976827,-0.544729124457447,-0.9170745299974449,-0.0028776269129086787,-0.8053376204423799,-0.5788524717800765,-0.8964405192767555,0.2802982750620953,-0.5992698566551877,-0.4854186986512629,-0.6344952157106843,-0.4720898991731208,undefined,1495046663679
903d185fccf839df,0.02348103864995968,-0.38086283157252104,0.8698425553204986,0.7733141079998342,-0.5782116512886923,-1.4615125017423067,1.7634524664064557,-0.9380527698242929,-0.6219867964249793,-0.5717332431891373,0.031355996784194776,0.16923188417049997,-0.5475991532976827,-0.5845399867259542,-0.9233903400511609,-0.04328962129417798,-0.7864363766339767,-0.5756100044400784,-0.9129180091360128,0.2230776511644284,-0.6155404290994994,-0.4816042392285388,-0.6295969326567196,-0.4930259700366195,undefined,1495046664167
903d185fccf839df,-0.16640302474346652,-0.40845253648422625,0.8698425553204986,0.7733141079998342,-0.7643930525958068,-1.4560015215526165,1.7673971736969678,-0.963029803059464,-0.4924439949657388,-0.6102429987845305,-0.016055462789891957,0.36680909393598243,0.5969460227272728,-0.5632458051846957,-0.938127205635719,0.011266689832366028,-0.7797369699410108,-0.5731148246422594,-0.9202786544963644,0.19827075569854619,-0.6182818586201596,-0.4855272928390977,-0.6493033481795972,-0.48311790058410964,undefined,1495046665225
903d185fccf839df,-0.21491355919183733,-0.37323157814095836,0.89344857414159,0.7596357022876581,-0.7996627073706192,-1.4784716923547963,1.7885118871807781,-0.8733867948985121,-0.4861646309510964,-0.5638565151714935,-0.0428124947896963,0.4094758487907856,1.1670426693404636,-0.5373224469862378,-0.9244429627897239,0.013287306510262416,-0.771348222594302,-0.5621081691842787,-0.9177248185202602,0.19762402085517908,-0.6114854084375193,-0.4838573727932573,-0.6479458534811718,-0.48597657444141373,undefined,1495046665688
903d185fccf839df,-0.4408340028442828,-0.35855620318792364,0.9157793337504747,0.8598715866684424,-0.9195322202768329,-1.499132044116627,1.786344932269299,-0.957349590270418,-0.4538136717298338,-0.5499185366057352,-0.031211021839455587,0.3849616706117497,2.0678824086452763,-0.5549133027426661,-0.9265482524402527,0.04763764871089331,-0.7725334624948177,-0.5562438627687372,-0.9281360738449203,0.16870573935122896,-0.6112141702464139,-0.5102554616772355,-0.6595654183113542,-0.4893495320533634,undefined,1495046666726
903d185fccf839df,-0.43528991514601006,-0.3391846497939332,0.9157793337504747,0.8356931505192796,-0.9096270957872457,-1.502388320594838,1.7808538984471196,-0.9897525266343851,-0.47517605267828456,-0.5665219209632586,-0.03518051020722456,0.3490206140553098,1.597879066399287,-0.6299058635732557,-0.9318114103064706,0.04763764871089331,-0.7692679159742644,-0.5688210895432174,-0.9279121758479301,0.17013779414500513,-0.6159587512384417,-0.513077745812557,-0.673752273669586,-0.4872909419834886,undefined,1495046667264
903d185fccf839df,-0.3216366521652697,-0.26815577656526063,0.9412997662115725,0.8498777752408851,-0.8474911994597222,-1.5291559375759265,1.7802095986935695,-1.0173379291419398,-0.5775867256240326,-0.35147258717686,-0.06508781823663153,0.34102014055152174,0.03555314171122996,-0.6113891828460071,-0.9318114103064706,0.013287306510262416,-0.7586817645159977,-0.56037294222357,-0.9278562016361844,0.19540664103570318,-0.6079876570269498,-0.5153965182785093,-0.6663993004357049,-0.48514157397607244,undefined,1495046668236
903d185fccf839df,-0.2620380803419924,-0.275787088452808,0.9202450282257426,0.7898192883570659,-0.8154718257572765,-1.5447362186294311,1.7626293483975521,-1.1505760201022572,-0.5627655175277824,-0.41912872412133867,-0.08647106890849274,0.2825837085072009,-0.4300983177361854,-0.5975017046775069,-0.9223377173125978,0.033493303700897065,-0.7452648793999407,-0.5479857039255114,-0.9238890099241619,0.20347542661110507,-0.5988277529599851,-0.5125100576961373,-0.6612091676446594,-0.48956468783243906,undefined,1495046668690
903d185fccf839df,-0.18442123212568104,-0.2669818050250025,0.980218298646272,0.9608239490900466,-0.7789370319251695,-1.6068966267331917,1.8145154241588979,-0.9314799728276006,-0.5981294807626231,-0.4089802845402469,-0.10559488631244737,0.0119125284739198,-0.9436204879679144,-0.6012050434131115,-0.93075877284344,0.03551400517295806,-0.7245045050918139,-0.5485873341119202,-0.92288846596268,0.20766380350324884,-0.5995749565278846,-0.5082009519296126,-0.6556672441505658,-0.486293373211652,undefined,1495046669720
903d185fccf839df,-0.16501704595066052,-0.22236860671179243,0.9955305581229306,1.0154606955094239,-0.749478799159921,-1.6236415275967686,1.811154533237315,-0.960168765844474,-0.6706704148001889,-0.3516863362917707,-0.12188325218740416,-0.060672785450821685,-0.9436204879679144,-0.5688008068127154,-0.9286535052796125,0.06986434737358896,-0.7276774146068119,-0.5410131330972662,-0.9180956504081661,0.20398357532429495,-0.5958989091909386,-0.5088395390625033,-0.6528204209755561,-0.4801629921859456,undefined,1495046670177
903d185fccf839df,-0.11096252732024617,-0.2100413209792356,1.1103727583348202,1.2566336436324475,-0.6964868840486972,-1.6783716608423491,1.830039168670105,-0.9199070596820396,-0.6740851744175788,-0.3203256940127418,-0.16803115046146141,-0.009669465515592552,-0.8043602384135473,-0.5484325020453753,-0.9191798122857399,0.09815281127580916,-0.7388954521044115,-0.5383849617756651,-0.9169061929383888,0.2065243183786759,-0.5940749996977284,-0.5049625610545417,-0.659733995111246,-0.48666581812051957,undefined,1495046671222
903d185fccf839df,-0.14422674296119503,-0.22941278668924905,1.2449931666355858,1.3310448498053868,-0.6710194977993496,-1.694792797073649,1.842299324987884,-0.8591410461386413,-0.6391981780935327,-0.3022683440595387,-0.1799580702375455,-0.03345317793845906,-0.843527183600713,-0.5734299705191404,-0.9223377099503641,0.06986434737358896,-0.7766290603705648,-0.537219700155635,-0.9191521691625145,0.16830537492319406,-0.6031278344835185,-0.5025635384285646,-0.6542251367691322,-0.4915366834498487,undefined,1495046671771
903d185fccf839df,-0.11373441589503874,-0.21649845673057855,1.3451607369769198,1.3762856021603382,-0.5128871916459642,-1.715700048198915,1.8626671742880188,-0.7102646493577552,-0.7014707670355073,-0.27375520202434706,-0.16785887323526955,-0.015534028133258914,-0.8261196524064172,-0.5595424534983165,-0.9370745755349222,0.03753459358613291,-0.8063694987550614,-0.5224069452430252,-0.9275903230920215,0.1858596009010866,-0.5961912904283554,-0.49524380068596446,-0.6538412763708864,-0.4922093013737389,undefined,1495046672713
903d185fccf839df,-0.16640305924887627,-0.22765180015086958,1.3764233938102395,1.493460381637194,-0.41664392458704774,-1.7458730126582878,1.8507383753017024,-0.8012984707589486,-0.7077777675104499,-0.256620266258488,-0.19546378137260675,-0.019197261039036,-0.8348234180035651,-0.566023293047931,-0.9444429936027338,0.029452070345104293,-0.8186010737251168,-0.5239458501801381,-0.9288007713063989,0.17549644791001215,-0.6006035666192608,-0.49379131888858846,-0.6507338234441007,-0.4926518094103357,undefined,1495046673173
903d185fccf839df,-0.01948551161636758,-0.3074859275793553,1.3764233938102395,1.5062737758392195,-0.31525780991313235,-1.7921549964870387,1.8423466624977514,-0.896288779421692,-0.6783758285000839,-0.23443158932195896,-0.2431058876932426,-0.010181116030639849,-0.8565828319964349,-0.5447291503589962,-0.9349693006088611,0.02339030510557974,-0.7834365717288397,-0.51645397831362,-0.9303120823089517,0.1434060869806847,-0.6016171669367206,-0.4880337723080308,-0.6238027071634784,-0.48329692974585464,undefined,1495046674236
903d185fccf839df,0.017936916446277203,-0.3444678724610027,1.5161476344662752,1.5073064895986046,-0.22522710339332808,-1.8128875542609766,1.8706223397170048,-0.7343852640185652,-0.6170368463640676,-0.33863203320647783,-0.19311875976017606,0.05174379447628908,-0.843527183600713,-0.5512099381055124,-0.9349693006088611,0.001163634707605631,-0.7822511824751119,-0.5194367946029617,-0.9302001333838613,0.14879554339845272,-0.6021246956125195,-0.48717706970674884,-0.6317902909811837,-0.48640733616415266,undefined,1495046674715
903d185fccf839df,0.07476339266230358,-0.38673295232574256,1.581224991379024,1.5603343751151213,-0.13916667674258393,-1.853393024573932,1.8492919865392627,-0.9134471336378953,-0.5816212665637945,-0.3166262466996351,-0.2189149245463126,0.09066121555164051,-0.8217677696078431,-0.5419516754465353,-0.9276008604543482,-0.07764004828897349,-0.725328433653905,-0.5096523974740377,-0.9356016711176225,0.14523850322732532,-0.5994780811007443,-0.4806218530470076,-0.624638691443409,-0.4769104001702191,undefined,1495046675796
903d185fccf839df,0.1634685197913896,-0.4113876553168217,1.581224991379024,1.5603343751151213,-0.11519071785615075,-1.8643078395460977,1.8445372955918602,-0.9490667993225386,-0.561512642369529,-0.2997982434099085,-0.22942306728447734,0.10327023955435752,-0.8174158868092692,-0.5382483237601562,-0.9297061353804094,-0.08572248673583749,-0.7040605005747717,-0.5077018508767676,-0.9398067544973249,0.15338428072032545,-0.596812290532814,-0.48184218586363453,-0.6304798135377875,-0.48385244877031636,undefined,1495046676170
903d185fccf839df,-0.05136374846451042,-0.38673295232574256,1.3764233938102395,1.4417302305313866,-0.08366505687535998,-1.8434774531569145,1.8353934589973062,-0.9948629418162428,-0.5684378339500006,-0.17868570575910803,-0.20093737416900476,0.11657166146482334,-0.669451871657754,-0.49658581155000847,-0.9349693006088611,-0.1140110354322223,-0.7029915708091027,-0.49026725653426756,-0.9490635354523296,0.12817702358618177,-0.5939399470851654,-0.4803097452329464,-0.6463822979407197,-0.4847453318933059,undefined,1495046677229
903d185fccf839df,-0.03195956228948988,-0.40199534227689865,1.4153421803818884,1.4436621897010877,-0.030868574427017938,-1.8394571863058515,1.8629038586947904,-0.7889588538287304,-0.595563095961772,-0.17236222635479573,-0.2072323021229141,0.09823201945756121,-0.44315396613190733,-0.4651073999204326,-0.9339166705080643,-0.1140110354322223,-0.7167017961290599,-0.4857518679414371,-0.9468315529233617,0.13068697039586122,-0.5909034265553909,-0.49197669516239384,-0.6399831946002357,-0.48055491629250763,undefined,1495046677738
903d185fccf839df,-0.023643482500195368,-0.39788623729004896,1.5652745940223631,1.470224620093967,-0.039724559607147256,-1.830512908318143,1.8790745332867718,-0.6826771356402973,-0.6027259656631752,-0.017896147099518242,-0.20127296381012222,0.0540119264069847,-0.6607481060606061,-0.5095474647476883,-0.9265482303535514,-0.10794921366325468,-0.7221169653762306,-0.48510590750916976,-0.9476431828565981,0.1351987151808693,-0.591388528818128,-0.4943745894411835,-0.6325329887251587,-0.48777306917957286,undefined,1495046678726
903d185fccf839df,0.0013047568676881746,-0.3538601124309449,1.3713190531810704,1.3394079704182391,-0.08237934610790605,-1.8268792948447232,1.9081365201703722,-0.5065973179489872,-0.5640608992411559,-0.1868122504164841,-0.1993365175055807,0.03532938344202068,-0.6955631684491979,-0.4873274582356096,-0.9286535052796125,-0.061475199659967,-0.7116282592268588,-0.4787729640089511,-0.9536534432773226,0.14086534256661032,-0.5888032281006909,-0.48460465255569835,-0.6289375545242719,-0.4872336012850945,undefined,1495046679189
903d185fccf839df,0.013778876551629946,-0.32274831753051136,1.22776674765587,1.3310448498053868,-0.0822764885973807,-1.8161927458187668,1.8606422203834019,-0.8028376955739479,-0.5369103015667128,0.007949874334593312,-0.1991832795820524,-0.04945153651754239,-0.673803754456328,-0.5067699639336785,-0.9328640330450336,-0.08370189832266264,-0.7253520316047275,-0.4877340791518974,-0.952072164166003,0.1058030822315668,-0.5991517765372089,-0.4864559426907481,-0.629297318352024,-0.4813955610023808,undefined,1495046680228
903d185fccf839df,-0.030573548991274128,-0.3444678724610027,1.2322329504050369,1.3071217438459328,-0.049557686768129446,-1.8277504306827776,1.8621017639245299,-0.8140637468582821,-0.5055831853581585,0.0588774355369422,-0.1900873704979495,-0.05991975634849241,-0.6520443404634582,-0.49565997362841363,-0.9233903326889271,-0.08774313167845542,-0.721810628142681,-0.4860495160285145,-0.9522330907855813,0.1289315469553314,-0.595493665544685,-0.47838630543638777,-0.6193650222770135,-0.479588305942184,undefined,1495046680671
903d185fccf839df,0.022094956340924458,-0.3526860824347021,1.4115138613757743,1.3394079704182391,-0.03679313174408796,-1.8212355482049027,1.8782119572269345,-0.7018644337280908,-0.5000633423102688,0.0031365146076836135,-0.17053963574064435,-0.09025987743403918,-0.39528325534759357,-0.4854757953431945,-0.9044429540634155,-0.0796606932315914,-0.7348359280458107,-0.4863534967270694,-0.9434380994524274,0.1350139325296699,-0.5919252879937517,-0.4859216007076216,-0.6293872130906553,-0.4826123501161173,undefined,1495046681728
903d185fccf839df,0.07476346167312305,-0.33624966248730326,1.4153421803818884,1.2076979375440802,0.02158848369401175,-1.8150584059495474,1.8610998088048811,-0.7832942884918139,-0.5106287791961451,0.016841932649332755,-0.12876988522790306,-0.11027125678916258,-0.5998217468805704,-0.48825327025565524,-0.9054955841642123,-0.07561945987579863,-0.7350337074540083,-0.49964634540625513,-0.9409472349760764,0.12154029266993287,-0.5996332366002857,-0.48092391924085875,-0.6315288542283645,-0.47317426423190806,undefined,1495046682161
903d185fccf839df,-0.027801522394842623,-0.35386014165893726,1.0561414581495632,1.0630419207774815,-0.05532796001198257,-1.797682281349895,1.8398588668498599,-0.9513704641292455,-0.48124348381675586,-0.06290460372050127,-0.10185407026869868,-0.05957518365466702,-0.7260263480392157,-0.4854757953431945,-0.9023376938618218,-0.06753702142893463,-0.7375998062134704,-0.4909258822227098,-0.9308088562176341,0.12786905419261305,-0.5908339215923984,-0.48372422260711895,-0.6416109153680772,-0.4857650738861723,undefined,1495046683222
903d185fccf839df,-0.027801522394842623,-0.3415327974703958,1.0427433581759615,1.045346144897003,-0.031187430517075565,-1.816129855989309,1.8333842833897107,-1.0084230665605667,-0.4710085277477854,-0.11611858362946728,-0.09593285825850346,-0.05210374769069443,-0.8609347147950089,-0.48269826862763554,-0.8970745065466688,-0.045310322766238975,-0.7212794395458431,-0.4875124256304254,-0.9077963446141855,0.1588815228233285,-0.575672054190547,-0.46049122511792606,-0.6369782358280446,-0.4910076697032994,undefined,1495046683677
903d185fccf839df,0.1149579853430188,-0.3544471566570586,1.0982506799842735,1.0456458208152652,-0.16307063881254555,-1.8028462043887348,1.846538574980173,-0.9418636933994837,-0.48180188993875,-0.15680568415384044,-0.05068611220396659,-0.0807582997373648,-0.8957497771836007,-0.41788991198381426,-0.8581271118326149,0.007225428211851719,-0.6822475621072434,-0.4707301255442,-0.8833914680071848,0.15724928693290685,-0.5571225620997624,-0.44595301772899787,-0.6489703847752566,-0.5053888635370453,undefined,1495046684764
903d185fccf839df,0.10248386565907704,-0.3650134266232436,1.0982506799842735,1.0456458208152652,-0.20868770524417082,-1.7944562848247692,1.8463571190649422,-0.9507962199987189,-0.4908865087199647,-0.14033395321888947,-0.025952378924456516,0.008246770070868256,-0.9001016599821747,-0.4021507709228991,-0.8549692141679907,-0.015001270450843927,-0.6822475621072434,-0.4696281933166504,-0.8843080502197954,0.15991321779317957,-0.5554592454322379,-0.4456806361376923,-0.6512571825094408,-0.5076756228912856,undefined,1495046685166
903d185fccf839df,0.06921933946944057,-0.33918476670590253,1.2303190450389292,1.113235192416528,-0.3192692336026156,-1.7653710757003294,1.8893307767464478,-0.6527316598727465,-0.5138280907268052,-0.16816708315143464,-0.010281991244547912,0.027061217596894047,-0.9479723707664884,-0.48825330910797893,-0.8581271118326149,-0.0230836806329864,-0.7212794395458431,-0.4929334262044795,-0.8807816573666724,0.1387403552641487,-0.5748433076572445,-0.4355295873428072,-0.6189666335726095,-0.5173928718021747,undefined,1495046686244
903d185fccf839df,-0.013941389412685102,-0.33801064902568273,1.1933144179703374,1.1300248989845028,-0.39513653569455137,-1.745001878775042,1.9050254542927043,-0.5297873760469889,-0.5022948837517004,-0.21497508917463343,-0.019511385448127763,-0.019167015445196497,-0.9392686051693405,-0.49103078402043965,-0.8770744978203603,-0.04328976261778566,-0.7252829901929768,-0.4861001799156703,-0.8862321729661992,0.0939154809065664,-0.5788827197800764,-0.42779415114492964,-0.6337384790298418,-0.5165017459019039,undefined,1495046686634
903d185fccf839df,-0.041661655377000145,-0.3468159616814806,1.0561417122865127,1.0122086712979554,-0.5085980609362133,-1.7628322051168595,1.9058801409421504,-0.5834122654048628,-0.4819029417665062,-0.41676153938598165,0.01052321180017037,0.026581492538898077,-0.8913978943850268,-0.4891790952264755,-0.8886534510158267,-0.07157822652000585,-0.7594400144067754,-0.5246741410229012,-0.9033813562108378,0.003742184548122603,-0.6187353778395355,-0.41066714907186735,-0.6095165608637805,-0.5079486456939902,undefined,1495046687792
903d185fccf839df,-0.034731588885921386,-0.35562121588129375,1.135893190795918,1.0303614603430684,-0.5505328473119324,-1.7587723412665939,1.8964128369502853,-0.6619270320415436,-0.4638356973368345,-0.41018229881338153,0.03279653650940626,0.052898645545281966,-0.8783422459893049,-0.4762174161272465,-0.896021876445872,-0.07359881493318071,-0.7594400144067754,-0.529696165342463,-0.9090767603256237,0.009316422041999868,-0.6197635624981428,-0.40853191030830455,-0.6294890819495663,-0.5100182380505961,undefined,1495046688227
903d185fccf839df,-0.1262086045898,-0.3644264116251222,1.0886801366059375,1.0555162414999972,-0.5949567748155976,-1.7762462940719557,1.8470776747387634,-1.0215433764952815,-0.4049901288365659,-0.5995000675780271,0.0904461463951993,0.09015771788369831,-0.517135973707665,-0.48547578239241995,-0.8907587038551865,-0.12411403402753962,-0.8009661288504971,-0.5449078958119452,-0.9099303712281099,-0.021280288130872228,-0.6308497676657391,-0.4130967685444323,-0.6364351098139135,-0.5164886400567599,undefined,1495046689215
903d185fccf839df,-0.17471907002735132,-0.3796888308042706,1.1709836583614528,1.0770670482964704,-0.6229030117306118,-1.768508560796766,1.8298077391564127,-1.125696618639264,-0.43118540919709053,-0.6758466041531356,0.09158749593639835,0.09995971018448199,-0.5301916221033868,-0.4938083107359986,-0.8781271131966896,-0.16654678641031298,-0.8085870519041257,-0.5496259389014322,-0.908545002582772,-0.02254296063054295,-0.6344263476366947,-0.4145461147140831,-0.6200173269824163,-0.5189361948077081,undefined,1495046689703
903d185fccf839df,-0.25926601924015114,-0.391429101538706,1.1339790312928608,1.0694680541738675,-0.6422709783438112,-1.7890035361550796,1.8518507685490413,-1.013382214125283,-0.46211216174234193,-0.7852239907027125,0.11026089267581554,0.022085699580869363,-0.5301916221033868,-0.4891791081772501,-0.8833902784251412,-0.12815521085388934,-0.7959513096574165,-0.5514118292233134,-0.9036332415308564,-0.007329294052547058,-0.6338857558186358,-0.3994464582016746,-0.6128220075881494,-0.5099148484066109,undefined,1495046690730
903d185fccf839df,-0.22322967348654157,-0.38262387656688523,1.1339790312928608,1.0770670482964704,-0.659581805501304,-1.7902450206686176,1.8532445649085345,-1.014989083520109,-0.44160274322237214,-0.757390164055843,0.1257807142096107,0.032368573919800844,-0.6607481060606061,-0.48640160736324023,-0.8865481834519993,-0.14634070442551372,-0.7965924069705034,-0.5568011642983107,-0.9055713581008766,-0.020725941133097624,-0.6385670072211465,-0.40119153807908153,-0.6212459036679523,-0.510733202479238,undefined,1495046691196
903d185fccf839df,-0.27174013892409293,-0.4002343265105268,1.0842144421306696,1.1029187212350124,-0.6955508904514556,-1.7962171896952153,1.8493971645362641,-1.0635294818992314,-0.40272804105836,-0.6249277553693525,0.13791661191953986,0.057600794095822645,-0.7434338792335116,-0.49010494609884486,-0.8760218529950959,-0.16048496464134537,-0.8181767772437387,-0.5531850533643965,-0.8976229809205032,-0.03803379370702523,-0.6379299493417476,-0.401790516570604,-0.614625523378546,-0.5049824930626335,undefined,1495046692226
903d185fccf839df,-0.26758209902944563,-0.4319332240930588,1.1339790312928608,1.1044698669932156,-0.6958183188265212,-1.8155545334544552,1.8589012805390117,-1.0190660778703013,-0.4298729285153538,-0.6822612047799048,0.11702980446556926,0.03263514330758732,-0.8000083556149733,-0.469736576577632,-0.8560218369065536,-0.12007280067174685,-0.7920189775955581,-0.5493599552282251,-0.8929141272433188,-0.03709448901944503,-0.6337519883956365,-0.3984436578240635,-0.6130272172922412,-0.49811734891893417,undefined,1495046692687
903d185fccf839df,-0.23431771086144812,-0.4700891697429566,1.1671553393553387,1.0987652599569757,-0.7217485612585521,-1.8350921919757959,1.8843052008532237,-0.8754651245078234,-0.4289785458611462,-0.7395424598828348,0.12082624027083533,-0.058893373023262426,-0.691211285650624,-0.48084659278444597,-0.831811270965889,-0.1685674030882094,-0.8221091093055971,-0.5546479638632473,-0.8874356246021483,-0.026469560638371862,-0.6352940897639345,-0.38815154847270344,-0.604064463029263,-0.49646027616969063,undefined,1495046693721
903d185fccf839df,-0.2842143276188541,-0.48006845393901254,1.2175583205344815,1.1811699683093249,-0.7530273663906492,-1.832203935025362,1.900210272104268,-0.7788301896352431,-0.4140965949409758,-0.6611419798246845,0.11599352438898947,-0.07151561240845276,-0.7129706996434938,-0.49658575974691027,-0.8297060107642954,-0.1524025544592029,-0.837024534639638,-0.5676368312403816,-0.8858893296124998,-0.05683529633736829,-0.6462874104542452,-0.38781836367236466,-0.618306241541531,-0.49207161630329177,undefined,1495046694156
903d185fccf839df,-0.1996673784060543,-0.5370089672127718,1.1894858448272738,1.207703863227535,-0.7062582992340235,-1.8510148705229406,1.871066763932099,-0.979618602927761,-0.4086716507397397,-0.7065277146219677,0.09694285567709524,-0.06215675803682393,-0.6868594028520499,-0.4891791081772501,-0.8076007123874581,-0.1079491571338116,-0.834237600386414,-0.5725385288936964,-0.87615676570751,-0.04293050046285382,-0.641467234047661,-0.3972411108546971,-0.611728123109799,-0.48207428539867675,undefined,1495046695225
903d185fccf839df,-0.1539289395649345,-0.5763390305428895,1.266685534227519,1.268447307447545,-0.6695280748515849,-1.864687504598579,1.8775492341838345,-0.9500373412056621,-0.400857944015334,-0.7450895936124098,0.11992096449417693,-0.021852079646785743,-0.8087121212121212,-0.46510742582198167,-0.7981270193935853,-0.06955763810683101,-0.8141123414595196,-0.5701320096983276,-0.8735049742200888,-0.0015086825758253617,-0.6324594652616589,-0.40000109364467545,-0.5968570203464728,-0.482794385461637,undefined,1495046695686
903d185fccf839df,-0.1539289395649345,-0.6097989146638009,1.2022460610578227,1.1954284366957924,-0.6500161076916419,-1.8960716732211,1.8342152897614832,-1.2770048907938079,-0.35735132209675313,-0.7145690721508327,0.13289835738901587,0.0007514114319429433,-0.7782489416221035,-0.5206574485775659,-0.7760217357412157,-0.08976369182690873,-0.8445332218048955,-0.5993775434565703,-0.8734280089334215,-0.018970519038798938,-0.651244596733239,-0.39113173866237716,-0.5871968786037021,-0.47741837700204914,undefined,1495046696743
903d185fccf839df,-0.1386827932845612,-0.6227132446224714,1.2622190773414026,1.2289775733069508,-0.6291875707026164,-1.9167157204184913,1.818078799995725,-1.4209336508118056,-0.32860364567347616,-0.6872863190147759,0.14323296847547548,-0.000216684795860289,-0.6999150512477719,-0.5160282783957537,-0.7707585925994653,-0.08370187005794111,-0.8291313619046777,-0.6078510220858475,-0.8711610422399635,-0.023143497902828027,-0.6549012144167612,-0.3875149612554294,-0.5830020266097066,-0.4766296509448219,undefined,1495046697196
903d185fccf839df,-0.1899652163077246,-0.6444328287809551,1.3770610234163427,1.357293673613812,-0.5305683077298402,-1.9152319942869571,1.843164513567075,-1.223093455308369,-0.30367978617302155,-0.7121016287962699,0.1897427606751612,0.006493939265024843,-0.8087121212121212,-0.4993632670363074,-0.7770743952909477,-0.06955758157738794,-0.8079968456757859,-0.6113468064144179,-0.8611276152042431,0.0012938350069666008,-0.6454579054739974,-0.3921226045857345,-0.5962841787231596,-0.4763928687924763,undefined,1495046698283
903d185fccf839df,-0.16363103265244475,-0.6632173087208394,1.4497947642043703,1.4009446622933068,-0.49346779899821086,-1.9205333428972073,1.8230885740226879,-1.3545129149600983,-0.29314766586120655,-0.7569845453974337,0.2236773251745826,-0.01951378444408311,-0.7826008244206774,-0.5002890984825149,-0.7676006875726074,-0.06147517139524546,-0.8246837030617077,-0.6128603801470979,-0.8606308415891796,0.014536498736963787,-0.6422064907907227,-0.39652876227228384,-0.6037515156318236,-0.4840611894267443,undefined,1495046698731
903d185fccf839df,-0.14838488637207148,-0.7189837919983559,1.4536228290735351,1.4473753043601623,-0.4594632823524512,-1.923405295191237,1.8547119936699665,-1.1385978519713527,-0.2924043441035518,-0.6836688190973838,0.2646437357756514,-0.029851477715304883,-0.6259330436720143,-0.47992078723978754,-0.768653325035638,0.04157579867720415,-0.7894804775076012,-0.5976043187618206,-0.8576781873747534,0.05549636334137753,-0.6271854262678476,-0.40010097650380544,-0.5952268456307706,-0.48387777282636685,undefined,1495046699705
903d185fccf839df,-0.14284083317920848,-0.7172227470039918,1.4383105695968763,1.4576203645521397,-0.4289250488635033,-1.9179944722485014,1.8873189566700836,-0.9061382034061971,-0.29527564525908717,-0.7454376588105123,0.26482728271479383,-0.030726658438058718,-0.5388953877005348,-0.5021407937518664,-0.7718112227002621,0.09209096124211999,-0.7917775127847085,-0.6001944930636105,-0.8555091760763883,0.06305699990741874,-0.6252094388538247,-0.4035400743184562,-0.6115437734646794,-0.4900574734759892,undefined,1495046700244
903d185fccf839df,-0.17333312573995502,-0.673196563688903,1.458088523548803,1.567377371868319,-0.3986439578705352,-1.919834571361987,1.9174512782772357,-0.7076112737267878,-0.2820606013494657,-0.7185521759303258,0.30851865897356884,-0.08518102684562212,-0.47361714572192515,-0.5188057792097636,-0.732863769088338,0.0536994422151394,-0.7474610692254291,-0.5958817580926433,-0.8446991039264476,0.07317377880795063,-0.6189821742347961,-0.3970655083861311,-0.5940796115463178,-0.48752857341956324,undefined,1495046701195
903d185fccf839df,-0.16778907254709202,-0.6773056686757527,1.5091296426079481,1.5892861487244239,-0.4253662006689697,-1.9140370956722212,1.9133067069710081,-0.7351560772310182,-0.2933131679290143,-0.695555831578743,0.3009189359578071,-0.10100643860549668,-0.4823209113190731,-0.5151024728510953,-0.7233900908189328,0.04965823712406816,-0.7635102506461181,-0.5939882077614664,-0.841011784625024,0.08490739477651327,-0.6150704093791556,-0.39376469279195847,-0.6013244051424357,-0.49351209127659207,undefined,1495046701708
903d185fccf839df,-0.162245019354229,-0.6362146188072556,1.6239715886828883,1.649011005314448,-0.44028046339527527,-1.910021487976415,1.8746590728446348,-0.9936291553863349,-0.30965223265811354,-0.8813193756277855,0.30839733719302476,-0.1331868913121036,-0.8609347147950089,-0.5391741293048146,-0.7528638219880491,0.021369744957126426,-0.8112158163577174,-0.6179900636233088,-0.8612885428392535,0.08621626208749303,-0.6358431754528537,-0.4106260752296496,-0.5879685199259439,-0.4870820250251552,undefined,1495046702706
903d185fccf839df,-0.17333312573995502,-0.6362146188072556,1.5729307237606927,1.608876682333769,-0.4488998779656295,-1.9081278164782525,1.8791192216140222,-0.9642615060231042,-0.31090061167339905,-0.8474990642387433,0.2934915539329349,-0.071968642152315,-0.8783422459893049,-0.5419516301188244,-0.7665480280228754,0.029452126874547364,-0.8377299782222947,-0.6297630053935972,-0.867732606029814,0.11145431421434342,-0.6397888361928995,-0.4078933649332165,-0.6012001698491559,-0.4841997330692361,undefined,1495046703179
903d185fccf839df,-0.162245019354229,-0.607450825443323,1.5742069995206969,1.6104384865766328,-0.3953422507716169,-1.900480924024093,1.901320047594644,-0.7892436416824345,-0.26616523285360083,-0.8274706696700352,0.32318734006618915,-0.026770510936080343,-0.8783422459893049,-0.5595424664490911,-0.8065480749244275,0.05572000236359271,-0.8497879821634391,-0.6429608597515221,-0.8760658078512241,0.1187377793546933,-0.6491108001405532,-0.4211921333138641,-0.5837309254220459,-0.4783550568608006,undefined,1495046705667
903d185fccf839df,-0.162245019354229,-0.607450825443323,1.5742069995206969,1.6104384865766328,-0.3953422507716169,-1.900480924024093,1.901320047594644,-0.7892436416824345,-0.26616523285360083,-0.8274706696700352,0.32318734006618915,-0.026770510936080343,-0.8783422459893049,-0.5595424664490911,-0.8065480749244275,0.05572000236359271,-0.8497879821634391,-0.6429608597515221,-0.8760658078512241,0.1187377793546933,-0.6491108001405532,-0.4211921333138641,-0.5837309254220459,-0.4783550568608006,undefined,1495046705688
903d185fccf839df,-0.22738771338118882,-0.6027547054583519,1.5359263508290502,1.5947579573790511,-0.3958051066242141,-1.9013380841142522,1.9149292957080777,-0.7037656467298562,-0.2665374577085125,-0.7537190350005879,0.3298280076068657,-0.027695885609876437,-0.8783422459893049,-0.569726664160472,-0.7865480809225865,0.09411163444945946,-0.8465459687166862,-0.650775712111007,-0.8676206570557871,0.15350746817619726,-0.6424855374998671,-0.4272485019480463,-0.5944467710829332,-0.46924893676910495,undefined,1495046706177
903d185fccf839df,-0.21214149808999608,-0.5147023972841591,1.6692704833698115,1.6386814756652675,-0.4344176137507406,-1.8884690381355111,1.9123731194087614,-0.7064038250482445,-0.284376107183532,-0.8901888165142365,0.39493491862975477,-0.005247586154954018,-0.8304715352049912,-0.5521357889778817,-0.754969074827409,0.11027639828430133,-0.8255420826962613,-0.635639976644527,-0.8448180503597595,0.2051846502458094,-0.6185845513191625,-0.4092336262433273,-0.5552777796218238,-0.48907883100257143,undefined,1495046707213
903d185fccf839df,-0.22461561777393785,-0.5147023972841591,1.7305195212764461,1.657299633084353,-0.4606872850712716,-1.8903650386604223,1.9323228283868936,-0.585015926940529,-0.2840573127433345,-0.8776306719819091,0.3958183430831768,-0.0414887822903039,-0.7216744652406417,-0.5604683108460732,-0.7791796260436061,0.15068867531278599,-0.8083399482453981,-0.6353803264132972,-0.8517239025726987,0.23085385889900523,-0.6164276123468238,-0.4111415122553958,-0.536992447108207,-0.4925454486788793,undefined,1495046707680
903d185fccf839df,-0.24817791285442511,-0.607450825443323,1.46255472629797,1.5350931612646275,-0.5027763576487622,-1.897688166496801,1.9425764420431058,-0.5454686736659858,-0.27100019013625104,-0.8331001831729431,0.38482947884793195,0.006733545000009207,-0.6476924576648841,-0.5975016787759577,-0.7665480206606415,0.10421460478005524,-0.8242084080642212,-0.6412762967942391,-0.8354773073377966,0.2870735822810357,-0.6081743219879556,-0.4106689409553258,-0.5221888906742506,-0.5167140819003706,undefined,1495046708710
903d185fccf839df,-0.2523359527490724,-0.5722299255560397,1.46255472629797,1.5537113186837128,-0.5177111878681288,-1.8914993778537261,1.9614505577382804,-0.4134865570934463,-0.2868219803159119,-0.89397327353885,0.38451198372158935,0.06006076598791419,-0.8217677696078431,-0.5826883303089264,-0.7718111932513271,0.09815281127580916,-0.8441466468460734,-0.6392750862489099,-0.8315381031751339,0.286149676577394,-0.6049761847728404,-0.4241658854225237,-0.5411672134494108,-0.5226419684575629,undefined,1495046709167
903d185fccf839df,-0.24679189955620937,-0.5193985172691302,1.3898214937838411,1.5161635961608937,-0.4754163989892541,-1.886223651521794,1.959946316442206,-0.40347390057885074,-0.27155160019603897,-0.8841347363524031,0.35188124714029984,0.022307787926926538,-0.9740836675579323,-0.5975016787759577,-0.7539164373643784,0.07996737423362782,-0.849187470017513,-0.6408583216256647,-0.8209169445212544,0.31860959979356285,-0.5951506083840059,-0.4269811252326169,-0.5443917998510345,-0.5289560320499902,undefined,1495046710256
903d185fccf839df,-0.2370898064686991,-0.5452271771864712,1.3936498127899553,1.5079156580762387,-0.47858439418123355,-1.8860047029003137,1.9355601264020985,-0.564565441141084,-0.2638977374721347,-0.8544075644790646,0.3410876112288121,-0.04930673701449697,-0.9914911987522282,-0.5688008262388772,-0.7560216828415045,0.10219407289632346,-0.84893271453997,-0.6362289398362478,-0.8184820541648931,0.34273896352518546,-0.58863148266329,-0.42887857270279084,-0.5494874057676549,-0.5252941142557608,undefined,1495046710750
903d185fccf839df,-0.2079835272061683,-0.5235076222559799,1.3936498127899553,1.4458411254731025,-0.5127020505996626,-1.8885691954997996,1.9391419239571934,-0.550414824580003,-0.3115690417039144,-0.831784066923391,0.28748026742884597,0.026601072465631825,-0.8826941287878788,-0.5669491439203004,-0.7518111624383171,0.1304825650632652,-0.8236020778851272,-0.6279771138868695,-0.8154734257264873,0.3547959467808086,-0.5817764337368985,-0.42013484228063996,-0.5519906905673405,-0.5368397743908612,undefined,1495046711758
903d185fccf839df,-0.1941233942240108,-0.5205725472653729,1.3477127802230298,1.339111552447944,-0.5166723271718643,-1.8856762802471572,1.9163967318021622,-0.6803868805544135,-0.3332521692678224,-0.7215787763881281,0.21446928063922782,0.04964143882881221,-0.9914911987522282,-0.5512099640070616,-0.7528637925391141,0.09613216633319123,-0.8357625673654918,-0.6207448922183612,-0.8149556614646966,0.3702867829266974,-0.5753388337111386,-0.4171654860284497,-0.5643753406513105,-0.5404853340219045,undefined,1495046712202
903d185fccf839df,-0.16778900353627255,-0.5481622814050705,1.4198081289941058,1.4630677486256949,-0.4909477984805506,-1.8967983968732103,1.8953793278553985,-0.819032902472786,-0.3475992969422825,-0.7236755345728755,0.1433403427104031,-0.003185476128283035,-0.852230949197861,-0.5530616268994766,-0.7612848554321899,0.1304825650632652,-0.8174959037694128,-0.6128983751460259,-0.8199094040302808,0.37162644730357974,-0.5723624288171458,-0.4136000651703216,-0.5672206793310772,-0.5497841093006047,undefined,1495046713236
903d185fccf839df,-0.20382548731152106,-0.5076581880787101,1.3981155072652232,1.4630677486256949,-0.5384882905644492,-1.8957665440152207,1.9084021208925042,-0.7436808573476407,-0.3183825238742904,-0.6623331292457767,0.16770838841840016,0.009424197197879782,-0.852230949197861,-0.5428774486142575,-0.7560217049282059,0.09815281127580916,-0.8093722060517985,-0.6175720875024278,-0.8086305448726089,0.3689933130380285,-0.5718669472304221,-0.41098208103147066,-0.5638757539729486,-0.550714095375811,undefined,1495046713663
903d185fccf839df,-0.22461561777393785,-0.5364219668286466,1.3438847153538651,1.4255200261028758,-0.575516799710886,-1.9021835979666437,1.9480622251622934,-0.49844628521104256,-0.33212676308279315,-0.561487865072149,0.14183394817606984,0.026950106380390398,-0.7956564728163993,-0.5160283107726901,-0.7549690601029414,0.11835892152532995,-0.8032428557525423,-0.6089022880454749,-0.812667704387545,0.3729199179192134,-0.5687454609157665,-0.42589193924788826,-0.5476822184210905,-0.5560167142651027,undefined,1495046714725
903d185fccf839df,-0.22184359117750635,-0.5217465918756119,1.3725953289410748,1.40587999664339,-0.5435899965435942,-1.8913013920798667,1.9147715101190634,-0.6852169073393205,-0.2955468264755066,-0.5922235691073454,0.1257737759583638,0.014440220208012264,-0.7956564728163993,-0.5104733091446704,-0.7549690601029414,0.1224002114105658,-0.7860900259313968,-0.6017713932100448,-0.8067553989459533,0.4021307691058288,-0.5578516189448091,-0.40072727194184304,-0.5205117057361244,-0.5385758683122814,undefined,1495046715192
903d185fccf839df,-0.2149135246864276,-0.49533087311816093,1.387907334280784,1.4547111913590656,-0.5674939561969263,-1.86844223843839,1.9437151605606482,-0.46118209991462794,-0.3178398259869785,-0.5144021430837651,0.08793953982923736,0.008122964792900136,-0.8304715352049912,-0.5225091697484664,-0.7581269504053318,0.0961321380684697,-0.7909217415818692,-0.5902644338007738,-0.8039426813527868,0.37658474751809795,-0.5558037312076739,-0.41841345843163624,-0.5559468026923148,-0.5635433901574113,undefined,1495046716176
903d185fccf839df,-0.15115691296850298,-0.5088322180749528,1.4217220343602133,1.4547629753677909,-0.580135079583654,-1.8646432498371752,1.9054751470186613,-0.7035948702327035,-0.3682465155186106,-0.5567378137507334,0.10137797036404543,-0.07909508300948881,-0.7477857620320856,-0.5280641713764861,-0.7760217136545143,0.10219407289632346,-0.7939712654722144,-0.5884658774863412,-0.801619739945984,0.3875792385764196,-0.5547431767759045,-0.412262548624274,-0.5551780211354012,-0.5556306736454021,undefined,1495046716722
903d185fccf839df,-0.17887717893281804,-0.4806554397091416,1.3713193073180199,1.4458411254731025,-0.5643979627026897,-1.8519069694006993,1.9158681418297303,-0.6260732790455754,-0.36253865178152256,-0.4238859129277577,0.016711351466701184,-0.10202208496547772,-0.4605614973262032,-0.5271383205041168,-0.8002322722329452,0.06986423431470282,-0.8152995076485535,-0.5938362141123361,-0.8058248232951011,0.38246695484980026,-0.5613625111659225,-0.4053738846865543,-0.568328129973869,-0.554069941087265,undefined,1495046717734
903d185fccf839df,-0.13729664196470653,-0.49533087311816093,1.3483506639660825,1.3997533516066913,-0.5680288143234166,-1.8416862673883705,1.8770679827687917,-0.8705394912907858,-0.3667045211152443,-0.3884942637352481,0.005296946668835348,-0.07683960856853037,-0.1820409982174688,-0.5215833059253225,-0.8128638849781435,0.029452070345104293,-0.8198612576534033,-0.5995231979443474,-0.8033129683677689,0.3847459242912076,-0.5628005091741957,-0.4048288948775083,-0.5620903575973439,-0.557951613399913,undefined,1495046718187
903d185fccf839df,-0.06799604606473839,-0.42136692489888145,1.3145359638866532,1.399701567597966,-0.5009763567760168,-1.8310859004630924,1.892817890901633,-0.7330120509810126,-0.39132685193782885,-0.4107740865365407,0.000670164852079322,-0.04056349296083334,-0.3430606617647059,-0.5206574680037277,-0.8076007197496918,0.06380255386934287,-0.8160292796938091,-0.5812969860906434,-0.8016337340876876,0.35270176013868615,-0.5610078575925113,-0.4010793337793763,-0.5610497912297093,-0.5567531155714577,undefined,1495046719217
903d185fccf839df,-0.09571624301823396,-0.42312796989324564,1.3713193073180199,1.4458411254731025,-0.45543129072979266,-1.8344050663100333,1.9259376671484438,-0.507754993876588,-0.39891673517719234,-0.3729625345764296,-0.002027109114195404,-0.02136940670845209,-0.3430606617647059,-0.5299158213181266,-0.8065481117355965,0.035514033437679594,-0.8138699936072851,-0.5889155179657258,-0.8043694873545655,0.33266838206111266,-0.5697424415357537,-0.4009910113336743,-0.5529829733781003,-0.5587309534655136,undefined,1495046719704
903d185fccf839df,-0.11512056721489343,-0.35562115742530903,1.2526490422369656,1.3253469859549212,-0.4785226828357419,-1.8156570203356666,1.9093094015161796,-0.6098909898008745,-0.3771207760836378,-0.24165725123474685,-0.018776070554671218,-0.011740484088026809,-0.4649133801247772,-0.5447291892113197,-0.802337561883474,-0.0028775421187440704,-0.7947051810970819,-0.600872115888865,-0.8005142446226869,0.3163768264827708,-0.5795235031082885,-0.3848232564074437,-0.5593851340073946,-0.5522336412450377,undefined,1495046720743
903d185fccf839df,-0.11512056721489343,-0.3391847374779102,1.2067122638069896,1.2961737354102763,-0.4786461114642721,-1.807483719750317,1.8931255752880756,-0.7036657291438948,-0.3890793044690908,-0.18962156790349974,-0.016515981165954003,-0.010406612574858705,-0.49537655971479505,-0.5493583399669701,-0.8107586100520823,-0.008939363887711695,-0.7967273397716842,-0.6077560253063069,-0.8086095547641831,0.2981296681308158,-0.5875172450469317,-0.3847586924512212,-0.5614546887404654,-0.5515320313063128,undefined,1495046721247
903d185fccf839df,-0.15392887055411503,-0.3403587967021453,1.0287073744593072,1.086443381691818,-0.5232757496358543,-1.7949570710201288,1.911492140486049,-0.582017386384861,-0.3971800218862322,-0.12073711514263157,-0.03989794220967084,0.09277235114913282,-0.4475058489304813,-0.5336191730045058,-0.800232279595179,-0.09582554186059788,-0.7959283193758369,-0.6164701557510316,-0.8145148631685669,0.2624668699042211,-0.5991255450244337,-0.3776664498652367,-0.5476577566649369,-0.5436766360055768,undefined,1495046722270
903d185fccf839df,-0.1400687375719575,-0.32861849673971755,0.9629918796665562,1.0104936039976136,-0.5649328241260386,-1.7944446380207182,1.9486407793054912,-0.3644662459785023,-0.3736892748589756,-0.22783217153991736,-0.01003263208112544,0.03869639819812495,-0.6650999888591801,-0.5484324761438262,-0.8023375545212402,-0.09582559839004097,-0.8298094974663079,-0.6215935070753084,-0.8257727316305751,0.24846968264352645,-0.6078334839118262,-0.3688330564666177,-0.5502506721612164,-0.5525254749110622,undefined,1495046722722
903d185fccf839df,-0.0915582031235867,-0.36031721895429547,0.964267901289611,1.0261683954962018,-0.5308974491408384,-1.7774272165496467,1.9413877677349725,-0.3772970289084377,-0.39165111303838773,-0.07748499362464728,0.002934182237424428,-0.1069052695781089,-0.6650999888591801,-0.5632458310862448,-0.8076006976629905,-0.08572248673583749,-0.8126390205885218,-0.6217201667239893,-0.8225262110412415,0.25478304627271486,-0.6063303216041759,-0.37910430836912007,-0.5505363878069425,-0.550750809102504,undefined,1495046723704
903d185fccf839df,-0.1081904317129952,-0.3456418440012608,0.8800504741679883,0.9646825901443151,-0.5336128756396401,-1.7773410344634653,1.926873867230045,-0.4795373406175628,-0.3794651112846781,-0.09417548725629232,0.010058649066006824,-0.0961236844037098,-0.5998217468805704,-0.570652482655905,-0.8086533277637873,-0.0776401330831381,-0.7987601261893542,-0.6204345792516022,-0.8199443877726941,0.27155195213865085,-0.6011083324544415,-0.3813594823735418,-0.562943275140543,-0.5586979453611729,undefined,1495046724175
903d185fccf839df,-0.1456127907648205,-0.35855629087190066,0.8551681795868926,0.8363581975219186,-0.46564498893726486,-1.7746600800743304,1.9214775136652087,-0.49939439154326914,-0.42797439934628884,-0.23409017882758687,-0.020527591202660754,-0.10903341965086612,-0.08194769385026737,-0.5734300093714639,-0.8065480822866613,-0.031166090815128878,-0.7849121109656028,-0.6185980259284317,-0.8114222716722386,0.2806524336666524,-0.595118493465626,-0.38770573862663016,-0.5400596995422772,-0.5648772250829381,undefined,1495046725236
903d185fccf839df,-0.16917508584530777,-0.369709575836207,0.8258194281196808,0.8117699361208088,-0.4522838671379436,-1.773560678898934,1.9100273389092761,-0.5682026674461893,-0.43731880497944287,-0.21421770559430184,0.014728875062854006,-0.02121882173680818,-0.22991170900178254,-0.5734300093714639,-0.8086533572127225,-0.02914553066667556,-0.797207206240232,-0.6181863846558413,-0.8116671600712735,0.257600960860486,-0.5990495721001698,-0.38437665076340155,-0.5393790180797923,-0.5668535286520746,undefined,1495046725107
903d185fccf839df,-0.17471907002735132,-0.42958510564458857,0.7958330470463656,0.7936024765579204,-0.3936759647285715,-1.807842421639418,1.9130936887003658,-0.5958616694049216,-0.4488674482107502,-0.09807393979279631,0.029081333910528254,0.04160354343367042,-0.08194769385026737,-0.5863916755199183,-0.8139165077167065,-0.025104269046161254,-0.8297051182218248,-0.6292057065880633,-0.8289982606433882,0.21684127585840166,-0.6209814650882848,-0.39195492068052107,-0.5695341283205227,-0.5562184165128846,undefined,1495046728049
903d185fccf839df,-0.17471907002735132,-0.42958510564458857,0.7958330470463656,0.7936024765579204,-0.3936759647285715,-1.807842421639418,1.9130936887003658,-0.5958616694049216,-0.4488674482107502,-0.09807393979279631,0.029081333910528254,0.04160354343367042,-0.08194769385026737,-0.5863916755199183,-0.8139165077167065,-0.025104269046161254,-0.8297051182218248,-0.6292057065880633,-0.8289982606433882,0.21684127585840166,-0.6209814650882848,-0.39195492068052107,-0.5695341283205227,-0.5562184165128846,undefined,1495046728079
903d185fccf839df,-0.22045764689011008,-0.42371492643538233,0.769674730842215,0.7420887522463397,-0.42355591328697395,-1.8220694147476661,1.8983404734614417,-0.7316920797774018,-0.44752152812554075,-0.08445880550433585,0.012222641371063743,0.011626165001021635,-0.16898534982174687,-0.598427503746778,-0.8233902227972807,-0.002877485589300998,-0.8461832999933222,-0.6421375774167344,-0.8293760885836553,0.18228716616165813,-0.6331378770590664,-0.3942039389680221,-0.5805321255934197,-0.5487651832154865,undefined,1495046729131
903d185fccf839df,-0.15392887055411503,-0.42371492643538233,0.7869008956849813,0.6599673412188937,-0.4209022036631045,-1.8209490506281543,1.8831612342514938,-0.8231495809385397,-0.465104271426083,-0.11602306402897011,0.009167621120224168,0.03302923305493086,-0.16898534982174687,-0.585465824647549,-0.8212849552334532,-0.006918747209815308,-0.8423993779865121,-0.6506933843415009,-0.8286484205216317,0.18826176287365642,-0.634742762664378,-0.3943684004872347,-0.5765161969685537,-0.5452692347959192,undefined,1495046729555
903d185fccf839df,-0.13868272427374176,-0.4460216132759644,0.7881769173080362,0.7130827595682999,-0.40680051498987624,-1.8326441608492936,1.8909691306865155,-0.7821050327776519,-0.470975363150226,-0.10882708361564608,0.0161268204828648,0.14368769208348425,-0.44315396613190733,-0.6150925345323862,-0.8170744053813308,0.045617003768275384,-0.8520158247439302,-0.6684572912956821,-0.8286554173447425,0.1489341339577299,-0.6478469417538965,-0.4021068124121384,-0.5784754944630491,-0.5499425086009251,undefined,1495046730633
903d185fccf839df,-0.24540588625799362,-0.45013071826281414,0.7983850902924754,0.7602599056687093,-0.42983018990080973,-1.8342513361732773,1.8887916513235734,-0.8102339894763724,-0.43632366676611,-0.0958208362324365,0.017436575197955897,0.1437814310071632,-0.6172292780748664,-0.6067600320903567,-0.825495490361108,0.023390361635022814,-0.8486840738317326,-0.6686536130147612,-0.825982635112721,0.15212161220549816,-0.6483562352157359,-0.39955922926810855,-0.5686292028577806,-0.5494004276357896,undefined,1495046731061
903d185fccf839df,-0.36183114132975575,-0.5352479514464,0.7722265199513754,0.6471937629593383,-0.5044323521032344,-1.8494589383829232,1.8962944874142469,-0.7983435605201169,-0.49259558662230885,-0.2151922143264157,-0.013563812078505834,-0.009332970781185513,-0.8043602384135473,-0.6058341941687618,-0.8139165077167065,-0.03318670749302526,-0.8639238997981838,-0.6632896105726568,-0.8221623760987875,0.07161853900844306,-0.6609700384578467,-0.3875316398179805,-0.5664471011155222,-0.5514592077802744,undefined,1495046732107
903d185fccf839df,-0.2786702054151717,-0.536421922986658,0.7983850902924754,0.7091881529972446,-0.4902175180238697,-1.8444673790412216,1.8815307592465984,-0.8817059503766342,-0.4996167176577893,-0.31252379376966105,-0.02731935330601872,-0.009847272075870267,-0.8043602384135473,-0.6113892087475561,-0.8170744053813308,-0.10390792377801883,-0.8757456741238855,-0.6689069319411667,-0.8216446120816792,0.05988492355144793,-0.6658136698272585,-0.38973352096672464,-0.5569782533855473,-0.5437063270408834,undefined,1495046732551
903d185fccf839df,-0.2869862852044662,-0.5440531471902285,0.8609098956852156,0.8089566337270994,-0.4529215812705673,-1.8722272513700835,1.8911847777131,-0.8283137414368282,-0.4853191840677138,-0.36486932226519597,-0.03426371769177049,0.022241773931538943,-0.7564895276292335,-0.6224991796266591,-0.8370744435565745,-0.11401095063805769,-0.8861658386455258,-0.6787863246094181,-0.8299008488794559,0.06307240081646756,-0.6733793587774032,-0.38729458785763493,-0.5532022634685492,-0.5361028965234765,undefined,1495046733669
903d185fccf839df,-0.32163661765986,-0.5381830264370069,0.851340114717728,0.7602599056687093,-0.4407330303540013,-1.8667814900252737,1.868655228918327,-0.9716856499986621,-0.48355145037623176,-0.3878518581241435,-0.01970290773357827,0.04999622048062166,-0.7216744652406417,-0.6419417112262772,-0.8360218134557776,-0.12815523911861088,-0.9074848127501902,-0.6936624093131484,-0.8341619064892553,0.05230888724757867,-0.6830104906031439,-0.39517933836859737,-0.5668313861537629,-0.53593911266491,undefined,1495046734126
903d185fccf839df,-0.2703541256258772,-0.5188114730430164,0.9355575418393508,0.8610927048381976,-0.3962576765917238,-1.8805146851822325,1.8278090869527588,-1.2338512130308166,-0.48138688336177543,-0.34635741910271484,0.03228532208592783,0.08410074322092398,-0.6650999888591801,-0.6317575523672199,-0.8433902388858229,-0.11805218399385047,-0.9098960956447185,-0.6811991756245211,-0.832587624060354,0.08181230786107598,-0.6698295476461116,-0.405165097619862,-0.5151734773307992,-0.5380890353509491,undefined,1495046735133
903d185fccf839df,-0.2703541256258772,-0.5628376563581052,0.9042948850060313,0.8564981669255212,-0.39874681618326974,-1.8945204007219842,1.8316880517754848,-1.2290197689164482,-0.4762041187398117,-0.4375353209002573,0.048606479271044244,0.006651102421589403,-0.7260263480392157,-0.6484225702020535,-0.8465481365504471,-0.08976369182690873,-0.9117586219449385,-0.6799072554465332,-0.8391856168822213,0.11173148578812048,-0.6656016212350727,-0.40793164602445514,-0.5182083378964554,-0.5567109932083311,undefined,1495046735577
903d185fccf839df,-0.37014722111905024,-0.5370089672127718,0.9087613418921475,0.8325407792536775,-0.4006290995015075,-1.8816513547287463,1.8668801204843009,-0.9763501350129328,-0.4720302479338241,-0.4922100217025197,0.04531239996188726,-0.07741243638387812,-0.5563029188948306,-0.6808267226224151,-0.8528639318796957,-0.0938049251827015,-0.921503607069322,-0.6980891373810421,-0.8440484005455019,0.08997348248021596,-0.6815361199750032,-0.41629682631160664,-0.5481413893619508,-0.5591047168668236,undefined,1495046736765
903d185fccf839df,-0.3632171546279715,-0.528203742240951,0.9145030579904704,0.8230190032692095,-0.3891296882719942,-1.8687007845143648,1.8409528619481712,-1.1107990737144031,-0.4602461105909912,-0.4106214860137367,0.015578731770619412,-0.05353492177637211,-0.517135973707665,-0.6808267226224151,-0.85391657670496,-0.11603159558067562,-0.9230928557257467,-0.7008756329755879,-0.850604412392002,0.07663842891220418,-0.6872919845513834,-0.41885046323553016,-0.5466772393744977,-0.5614142710429495,undefined,1495046737085
903d185fccf839df,-0.37014722111905024,-0.43956436061265214,0.9145030579904704,0.8216084974270015,-0.46435927879997546,-1.7991892987528206,1.836637348702958,-1.0489128937656784,-0.4944593551235591,-0.4682271542636377,0.0011232323388266077,-0.046429656020933484,-0.504080325311943,-0.6928625832262111,-0.8465481218259796,-0.1079491571338116,-0.9277488101361355,-0.7059039906430036,-0.862757872560586,0.022328112038548675,-0.700153135355664,-0.4339501181335289,-0.5501777987127913,-0.5455096879741166,undefined,1495046738170
903d185fccf839df,-0.3812353275047763,-0.40082137073664054,0.9004668201368665,0.8142165836829197,-0.49486665657216583,-1.7654595856630253,1.8480612285668192,-0.9266398920373361,-0.5016293998385198,-0.45105683946274916,0.02256618551010402,-0.07645440815550601,-0.3822276069518717,-0.693788401721644,-0.8381270589329036,-0.10188733536484398,-0.9267676280777779,-0.7018635726598775,-0.8691109768733113,0.012565496952487485,-0.7012443509531119,-0.43460905411155676,-0.5492852809798437,-0.5409067656439004,undefined,1495046738542
903d185fccf839df,-0.4810284229979494,-0.2523064008439755,0.8334755578580101,0.7174551769307222,-0.5418517224283549,-1.705486333181663,1.8584121496650348,-0.7685671274586423,-0.5390752195366021,-0.5069325025918258,-0.011647752118343057,-0.15083484507554276,-0.678155637254902,-0.7261925865189419,-0.8707587098533457,-0.08168128164476626,-0.9114928477252415,-0.7060749801444399,-0.8829646621889179,0.00662169676789918,-0.7081391526933751,-0.4444859532406341,-0.5560552392557205,-0.5400045768191586,undefined,1495046739609
903d185fccf839df,-0.4810284229979494,-0.2564155350588176,0.8570820849530003,0.7187823788136203,-0.5439602908313739,-1.6863073769770798,1.8543701370275631,-0.770350308921635,-0.5643447495471742,-0.5036108085484369,-0.004831720869368961,-0.1207868038601107,-0.7521376448306596,-0.7197117534447147,-0.8791797653841877,-0.10188733536484398,-0.8925600120445585,-0.7084371681416438,-0.889625625874364,-0.009023123509356953,-0.7134602744015798,-0.44371437684568915,-0.5553406099988911,-0.5385977144119585,undefined,1495046740078
903d185fccf839df,-0.4574661279174621,-0.2476103393149891,0.9361954255824035,0.673573594162274,-0.5654985380813154,-1.6576950024448418,1.8399377630488127,-0.8308117427726147,-0.5567382136474617,-0.5544765864947734,0.007205733259170158,-0.009016866617198057,-0.8000083556149733,-0.6845300807841815,-0.8612850242217067,-0.05743399456889576,-0.9005533801830953,-0.7033454814637773,-0.8946143520967225,0.023529192237288263,-0.7020853414787026,-0.44900440118736135,-0.5670276384314986,-0.536063018600917,undefined,1495046741117
903d185fccf839df,-0.36876113881001504,-0.27930917844153635,0.8558063174668948,0.661511397109823,-0.5497614236009765,-1.6515318351473038,1.830791297174556,-0.8775762802764299,-0.5805485345480031,-0.5314244044019584,0.015718668727276425,0.0032168842583878967,-0.8217677696078431,-0.6882334000936243,-0.865495544624894,0.0031842796502235537,-0.891028295431924,-0.6952773110083866,-0.8966714142803685,0.06787671458410126,-0.6900028686745212,-0.45200819853455965,-0.5535037578927583,-0.5462703889791575,undefined,1495046741607
903d185fccf839df,-0.4214296441422136,-0.3016156899141644,0.8826027715510475,0.757013811749841,-0.5353305884294252,-1.6320500777945663,1.8326952811673665,-0.8076730154751953,-0.5308117450258736,-0.7389066377879404,0.018560996342961503,-0.03839766043144057,-0.8826941287878788,-0.6761975459652156,-0.8770744830958928,0.14664735716282862,-0.8841700690638657,-0.6681343152043645,-0.8921094935276043,0.1248509627892106,-0.6644651086647395,-0.4692353402970017,-0.5277881705441834,-0.56193070426252,undefined,1495046742615
903d185fccf839df,-0.46716829001579185,-0.28165717997803724,0.8717564606866063,0.757013811749841,-0.5225351801852763,-1.609631150089372,1.8223522531458682,-0.8236188574713594,-0.5249569246374803,-0.65265223914459,0.02712645153433877,-0.03198988276911146,-0.9349167223707665,-0.6623100742721028,-0.8781271352833909,0.14866800210544653,-0.8757947368046693,-0.6572099870452734,-0.890206360871275,0.1169669588822595,-0.6604145097819182,-0.4687631260739303,-0.5368555190861916,-0.559998759101865,undefined,1495046743074
903d185fccf839df,-0.4242016707386451,-0.25582857851668084,0.8717564606866063,0.7250476073511928,-0.5238414659917564,-1.5919638707111634,1.8447476845828001,-0.6546662851349552,-0.5129014369724055,-0.6581938388414881,0.00014178192689436443,0.06467559278843255,-0.8957497771836007,-0.6160183595032065,-0.9139166323328206,0.1809977417605418,-0.8535276486137543,-0.6323975136397384,-0.8945653738578161,0.08419906713410957,-0.651800407811242,-0.477976136602415,-0.5271283999423648,-0.5649878417708961,undefined,1495046744158
903d185fccf839df,-0.36876113881001504,-0.286353358418993,0.962353741786554,0.8526568405334055,-0.5010895032224241,-1.5992101340180394,1.8673587567611856,-0.5052261573853305,-0.5155462487998305,-0.6190224555512215,-0.022302640484180857,0.020629036486314003,-0.9088054255793226,-0.5984275231729399,-0.9276008604543482,0.1587710289654854,-0.8772192954984138,-0.6269385165773932,-0.8958457903644722,0.061301579145888394,-0.6532952778294399,-0.4742570141716405,-0.5334617715753897,-0.5602301534905303,undefined,1495046744622
903d185fccf839df,-0.47132626089961965,-0.2616987284978947,0.936833817599355,0.8166202016758822,-0.5837145072663729,-1.5932775615484909,1.9036974187326294,-0.30095179394891286,-0.46032032565551906,-0.6512640439925275,-0.10736765767959658,0.00845883111419575,-0.9088054255793226,-0.5975016917267323,-0.9265482524402527,0.033493402627422446,-0.8751625781262243,-0.6214161893418974,-0.9062010706882857,0.006991263093433702,-0.663142280764197,-0.4744313691548386,-0.5489020269168893,-0.5509101262126902,undefined,1495046745624
903d185fccf839df,-0.4976605825765384,-0.29457145148072306,0.942575533697678,0.7832040209090257,-0.5788699436791808,-1.5904149256803852,1.8889783956525807,-0.3958451367888416,-0.45857017755596446,-0.5700619940897921,-0.1061116166138065,-0.05466989129771112,-0.9436204879679144,-0.5975016917267323,-0.929706150104877,0.059761292248828556,-0.8751625781262243,-0.621840496546136,-0.9053404628831666,0.02517682717896037,-0.6593838176599791,-0.47504379713921296,-0.5546806544031468,-0.5541146905069362,undefined,1495046746139
903d185fccf839df,-0.5101347022604802,-0.3063118098991355,0.8960008715246491,0.7269769529151903,-0.6079784630852098,-1.591043819976552,1.8581912524592192,-0.609357141358138,-0.41218194272903746,-0.5611804924552265,-0.10000126517760101,0.07173814195522182,-0.9218610739750446,-0.5706525150328414,-0.9044429540634155,0.07996734596890628,-0.8607108746989263,-0.6245953277046647,-0.9154578512946178,0.03515502021856097,-0.6611696135931457,-0.47432234533682177,-0.5528312516342239,-0.5422054352292018,undefined,1495046747114
903d185fccf839df,-0.49073051608545964,-0.29281052339832825,0.8960008715246491,0.7167553570152857,-0.6561258128167746,-1.6127802798484034,1.8634508620053158,-0.6224091290050419,-0.4220503188277931,-0.6671608071415407,-0.08762445021013203,0.10503535734935922,-0.8565828319964349,-0.5734300158468513,-0.9023376938618218,0.13250315347644004,-0.8598944302451808,-0.623594721989067,-0.9175149140349163,0.07169553127606129,-0.6535255348581159,-0.4793750572994165,-0.5627715414672695,-0.5378832576540793,undefined,1495046747563
903d185fccf839df,-0.45053606142638336,-0.3474029182236173,0.862824309325222,0.7261009976902308,-0.6620915151945903,-1.6237836065786087,1.868426458538708,-0.6112579202723805,-0.3818884490004418,-0.6329824689345815,-0.1025359383294847,-0.004659703208124485,-0.843527183600713,-0.563245837561632,-0.8907587333041217,0.12644135997219397,-0.8212013082634643,-0.6057041555356947,-0.9309208037725027,0.06682962343047186,-0.649258046858982,-0.4728765501282191,-0.5695818651731641,-0.5400526121526572,undefined,1495046748626
903d185fccf839df,-0.4436059949353046,-0.37029656160633606,0.8334758119949596,0.6935653632892951,-0.6300001429632271,-1.643183840293701,1.8534681207246633,-0.7383087332090961,-0.3816294869045491,-0.6461592255937015,-0.11380899473530437,-0.08146289647417085,-0.7826008244206774,-0.5595424858752529,-0.8981271513719332,0.13048257919562598,-0.8090179014493324,-0.6032026431097882,-0.9299692374810405,0.0492599970012488,-0.6515803713661144,-0.4711309194492931,-0.5648671293376437,-0.5382631303709644,undefined,1495046749072
903d185fccf839df,-0.40202559598883203,-0.32627037829124733,0.8896207634093747,0.8177262188941776,-0.6736114983423169,-1.680032405127942,1.8974305866035428,-0.524808109508173,-0.3426573744384886,-0.712281798295025,-0.0404786079562362,-0.06927558448790568,-0.7129706996434938,-0.5512100222855469,-0.894969253707309,0.10421464717713755,-0.7930288175662692,-0.5707716388202339,-0.9325580582761609,0.049106013381449244,-0.6358958976996445,-0.44871898881850175,-0.5710312834093451,-0.5213165817098462,undefined,1495046750135
903d185fccf839df,-0.4228157954620683,-0.3661874858474787,0.9106749931213057,0.7610316193294586,-0.6423738355742636,-1.7054816727470592,1.877793823713824,-0.6855184120026395,-0.3239640743373233,-0.6852673005013281,-0.05842224235043352,-0.005284702751519758,-0.5824142156862745,-0.5641717078601632,-0.898127158734167,0.055720073025396555,-0.8016986514393597,-0.5630707794524786,-0.935874546650057,0.04736598865561174,-0.6335722728112931,-0.4532608047222784,-0.5746242198068733,-0.5270716725566778,undefined,1495046750599
903d185fccf839df,-0.2800562877242069,-0.4348682113996887,0.9208831661057448,0.8870729100677588,-0.5780470865877572,-1.7377765749461767,1.8943800119669094,-0.6061426663174209,-0.31052214707465803,-0.6543348979922181,-0.07588156277401845,0.04510878166854147,-0.45620961452762926,-0.5215833188760971,-0.9128640022320238,0.09411163444945946,-0.7541608712877877,-0.5498602588196323,-0.9400446464402727,0.07505239399882899,-0.624808632259207,-0.4513023260442237,-0.5587259829803713,-0.5150899549891645,undefined,1495046751622
903d185fccf839df,-0.2869863542152857,-0.4348682113996887,0.9661818066557187,0.9531341434009567,-0.598145339093053,-1.7352144118047208,1.9000893210478547,-0.5646779444906487,-0.3278343414918588,-0.6364392200333783,-0.07917993789824383,-0.00959492205101381,-0.45620961452762926,-0.5206575068560514,-0.9139166323328206,0.06784370243097103,-0.744358271164228,-0.5463644734667786,-0.9428853516256184,0.07074082838535631,-0.6242837897522299,-0.4512662576207899,-0.567570655431299,-0.5170234793624887,undefined,1495046752080
903d185fccf839df,-0.3812353275047763,-0.33155345481835513,0.942575533697678,0.9519509904994417,-0.6236127250003115,-1.707417271336691,1.8722212638892273,-0.7007400139236327,-0.31501074245917793,-0.6429311470933963,-0.083582586584322,-0.06474711234392373,-0.6259330436720143,-0.5039924890212177,-0.9328640183205661,0.015307923188158802,-0.7627687331014643,-0.550132574373477,-0.9520931548494326,0.0195255994637359,-0.6385098376848304,-0.4527648531563071,-0.5577377481356979,-0.5076254408124976,undefined,1495046753117
903d185fccf839df,-0.3895514072940708,-0.30807285489349967,0.916416963356578,0.8483185586574342,-0.662811515679724,-1.70003591172118,1.8616941496252741,-0.7851863185399749,-0.30978712429179783,-0.519414137055571,-0.08819306647018575,-0.05021634928350427,-0.6955631684491979,-0.4882532896818171,-0.9370745681726885,0.011266718097087564,-0.7475736860732235,-0.5517411419678745,-0.9553886528641036,-0.005758648039840463,-0.6434415373762989,-0.45306267536001477,-0.551427769622323,-0.5054919053220046,undefined,1495046753588
903d185fccf839df,-0.1941233942240108,-0.35855620318792364,0.8896207634093747,0.8126954130113808,-0.6686949356900678,-1.7040095955148227,1.8891966583410842,-0.6404725883344478,-0.3129339036373405,-0.5444581633367288,-0.048834064042098994,0.00914950213095122,-0.6563962232620321,-0.5363966543923538,-0.9539166902777234,-0.025104269046161254,-0.7788629738786322,-0.5789917988165487,-0.9730625970529512,-0.0727264861952935,-0.6746250183139418,-0.4400971653623222,-0.608858928522201,-0.5070272587616655,undefined,1495046754685
903d185fccf839df,-0.3313388487690092,-0.33624963325931095,0.8851545606602079,0.7269946654090345,-0.7089222954571665,-1.6923890208761703,1.8886365107270884,-0.6374328179572579,-0.3037608533832595,-0.5305257934104002,-0.03993115044597963,0.0007143004185604406,-0.6520443404634582,-0.5215832994499353,-0.9676009110370172,-0.057433966304174223,-0.7780969416979845,-0.5770412521860587,-0.977022792168194,-0.08413673406905715,-0.6770561896447889,-0.437365466872559,-0.609990154503943,-0.5017622159383481,undefined,1495046755177
903d185fccf839df,-0.37984924519574104,-0.33448858826494676,0.8022129010246906,0.7119767280142759,-0.7639713481676131,-1.645487458626297,1.8337682326003597,-0.9265620078267772,-0.3468733391524444,-0.46593263101313165,-0.03251533683915893,0.05128382069199511,-0.6215811608734403,-0.533619153578344,-0.9676009220803679,-0.12815523911861088,-0.8080532730779645,-0.587078967665575,-0.9819625406899476,-0.11755136004130805,-0.6912788555321244,-0.4339510026310033,-0.5925907182171165,-0.4926848705906067,undefined,1495046756061
903d185fccf839df,-0.2911443941099329,-0.2511323416197404,0.82837172550274,0.7262298667140602,-0.752266225437966,-1.6429625630876254,1.8484188807903532,-0.8186809317826377,-0.34639026209147883,-0.560738161331126,-0.05838581818389991,0.05751040471541183,-0.5954698640819964,-0.5021408131780282,-0.9665482882984542,-0.04531029450151744,-0.7841177157869961,-0.5805623684166821,-0.9896520359474058,-0.11248527185296221,-0.6881663057002427,-0.4452515557298521,-0.5908510559110439,-0.507092621817687,undefined,1495046756578
903d185fccf839df,-0.2994604738992274,-0.24291413164604098,0.8621859173082704,0.9127604607535844,-0.7230754164705913,-1.6580164373219046,1.8395853610045094,-0.8803327031132923,-0.3800644094423934,-0.55597570349724,-0.05760171537799746,0.01993214958251836,-0.5432472704991087,-0.49751165594699054,-0.959179855506175,0.04359641535510054,-0.7814052242757942,-0.5793401103699953,-0.9817736273345786,-0.07882427173631933,-0.6803164606403852,-0.4392560996087265,-0.604180477320433,-0.5134191991242252,undefined,1495046757607
903d185fccf839df,-0.27035419463669663,-0.2751999565427173,0.9272632742210193,0.9127604607535844,-0.7217999907660108,-1.6536654186350954,1.8485319607680075,-0.8130366485055854,-0.3661493768793597,-0.5905678223186899,-0.06231848954362335,0.011394841368918683,-0.6215811608734403,-0.504918313992038,-0.9591798739117595,0.03955526679347237,-0.7755390952754404,-0.5788778056476457,-0.9711104873811278,-0.06331803680842647,-0.674467073651237,-0.4222950942394129,-0.6088473754499443,-0.5141942643130962,undefined,1495046758050
903d185fccf839df,-0.31886466007424796,-0.3063118683551202,1.1652416881261805,0.9944872864988847,-0.7090354425277365,-1.661671013666956,1.8423598020873737,-0.8523875788380518,-0.4185475972514205,-0.5125061576496861,-0.07152893816559341,0.07204283107890153,-0.6389886920677362,-0.49288247928979106,-0.9391798283742822,0.041575841074286454,-0.764037250396434,-0.5633684271519894,-0.9557314970619574,-0.04236075213869895,-0.659771254650531,-0.42388707027136757,-0.5931110933097367,-0.49567366779165306,undefined,1495046759117
903d185fccf839df,-0.3646030989153678,-0.33918470824991787,1.1690694988583956,1.0213199991916309,-0.7160297147694408,-1.6961321077542777,1.8779778947672132,-0.689938649109163,-0.41289806808806573,-0.6124937523894413,-0.04477744761428756,0.04260197449074891,-0.6955631684491979,-0.4956599865791882,-0.9360219086229565,0.0395552102640293,-0.7564867385296188,-0.5623931535709844,-0.9508967005565444,-0.025961407832639925,-0.6549881984901607,-0.42404122887916396,-0.5959851090322837,-0.496329669334526,undefined,1495046759623
903d185fccf839df,-0.4172716732583858,-0.2863533876469853,1.2130921177853147,1.1407612832528282,-0.7011668809664415,-1.7245907526331385,1.8674797099126428,-0.7917433586100517,-0.42248963315333493,-0.6015057690888573,-0.07101852119456264,0.06895831607177162,-0.9523242535650625,-0.5289899510195955,-0.9360219380718917,0.019349156543951574,-0.7773869695552489,-0.5720825568990943,-0.9421157026738661,-0.03178202144986872,-0.6612334171070742,-0.4230955256250105,-0.5878910694234508,-0.48126230514726487,undefined,1495046760659
903d185fccf839df,-0.3853932983886041,-0.3016157775981414,1.2277664935189205,1.1496137345551773,-0.6796800585987541,-1.7308727106093538,1.9014305061490089,-0.5592005177439219,-0.4247620826878618,-0.6416419069761145,-0.1112028017667163,0.015035085115091966,-0.9523242535650625,-0.5354707970445972,-0.9433903340530018,-0.00893932149062939,-0.7908593246538849,-0.5647996718361934,-0.9466076550731812,-0.04434715347253091,-0.6642893091480778,-0.415940499727774,-0.5820934115515086,-0.48819494948037384,undefined,1495046761088
903d185fccf839df,-0.4020254579671931,-0.28400529842650746,1.0127569771026463,1.0310920064902493,-0.6669463660132205,-1.7410398398093492,1.9059642909866603,-0.5451241025518969,-0.39685283795781034,-0.607711460375722,-0.09480776019164176,-0.057323064275650364,-0.8870460115864528,-0.5715783335282744,-0.9276008604543482,-0.1079491571338116,-0.8387894460483566,-0.5880035772542276,-0.9318653747762365,-0.1299471104833675,-0.6886870408802135,-0.4101473053537421,-0.6230164943036783,-0.4684659994554097,undefined,1495046762121
903d185fccf839df,-0.3881653249850356,-0.2857663434208716,1.1703457746184,1.0221700464926284,-0.7070091545636873,-1.7372804480333746,1.8894543691290648,-0.6597195885860204,-0.39101392351944286,-0.6625538764458748,-0.07196861859254776,-0.03544661538814836,-0.9131573083778967,-0.5697266576850848,-0.9160218925344142,-0.06147518552760623,-0.8441140448321836,-0.5900997815283944,-0.9296963635635102,-0.10834309099719744,-0.6850303420845765,-0.4129627372446324,-0.626833555337573,-0.4680606551948354,undefined,1495046762577
903d185fccf839df,-0.33826881174385875,-0.2822441949761586,0.9929782607398714,1.0138745978920056,-0.6983794575711475,-1.7647561542803238,1.9150213435431531,-0.5107053639781741,-0.3926151885892677,-0.7480202163789985,-0.03561334350764554,0.05312156138664003,-0.8870460115864528,-0.5863916884706929,-0.9097061119296334,-0.07157822652000585,-0.8498932118665474,-0.6061981242566647,-0.9232942815685311,-0.07788496555442274,-0.6888480270211631,-0.40307824625220545,-0.6190485815943818,-0.45052479291237807,undefined,1495046763615
903d185fccf839df,-0.40063944466897733,-0.3967122365217985,0.9566120256882311,0.9645251677253176,-0.6557349561332618,-1.790787732210389,1.9138905270062636,-0.5507314977002401,-0.42568823708475173,-0.7954507250485362,-0.019892089213091043,0.07517556016419476,-0.7086188168449198,-0.583614161755134,-0.9076008222791045,-0.08168125338004471,-0.8288253340899062,-0.6024110240815376,-0.9183825203086355,-0.049905989734263745,-0.6814400022619478,-0.4042784178701114,-0.6190110525589149,-0.4461568046075466,undefined,1495046764097
903d185fccf839df,-0.26342409364020813,-0.5082452323048238,1.1486531528895174,1.142055546218612,-0.6749383530982375,-1.8457833988509345,1.9284254638438572,-0.5517902436741867,-0.44180512037914865,-0.7754824181125582,0.027601809232329726,0.07841540201425835,-0.4300983177361854,-0.6206475491111805,-0.9076008370035721,-0.15644373128555258,-0.8399464995275409,-0.619769622435509,-0.918781338516372,-0.04601018313058958,-0.6903161518579188,-0.4073150908826252,-0.6191243983557398,-0.44300904851145,undefined,1495046765179
903d185fccf839df,-0.26342409364020813,-0.5792741055334963,1.181829969225894,1.1721850839394579,-0.6750206391706742,-1.8562603166381264,1.930721284886425,-0.555992460445852,-0.4357363347266874,-0.7876515984728648,0.061500135811395185,0.10972993545401058,-0.3996351381461676,-0.6252767257683799,-0.9076008370035721,-0.15644373128555258,-0.8467811107923543,-0.623550390126502,-0.9203976018655868,-0.04097489164466383,-0.6927653183674802,-0.4051918414653942,-0.6134957117086155,-0.44636730075135816,undefined,1495046765650
903d185fccf839df,-0.31332060688138497,-0.6303444249840533,1.2577531287291852,1.2658933475945666,-0.6857074776194416,-1.888834727286068,1.9259797455751448,-0.6359077645878703,-0.41412408290101077,-0.8118116834835936,0.04845435201970968,0.13711934374947155,-0.34741254456327986,-0.6160183724539811,-0.9065481921783077,-0.1705879632366627,-0.8272516444633039,-0.6175024285436361,-0.9174939250887322,-0.018077402794854935,-0.686010128506091,-0.40209940652216025,-0.613587672167158,-0.4345411215421496,undefined,1495046766632
903d185fccf839df,-0.3410408728457,-0.6373886488034984,1.286463742316395,1.3110119477241975,-0.6896468985709107,-1.9107668440332373,1.9512232546869661,-0.5070004916679428,-0.40484149978714423,-0.8779416036035982,0.08805949079344508,0.1474631510487003,-0.5737104500891266,-0.6224991990528209,-0.8981271440096994,-0.16654681467503454,-0.8215686176204257,-0.6174644306102751,-0.9147511754085865,-0.04346943918769608,-0.6900113129882909,-0.40049775148738737,-0.6115223815650083,-0.4341739208757771,undefined,1495046767063
903d185fccf839df,-0.2842143276188541,-0.7107655820246565,1.4147040425018862,1.4177815447777673,-0.6518881065091529,-1.947932186531861,1.9521173878646059,-0.5618657463654471,-0.3485152660623583,-0.8505354280344676,0.1416947327382214,0.08750325476198852,-0.517135973707665,-0.6002791795899676,-0.8970745286333701,-0.18473225171721586,-0.8078456865633206,-0.6060334670400426,-0.9060961200849861,-0.024359968846573037,-0.6792418817825802,-0.3958261840873093,-0.6113100056433594,-0.43926067731539237,undefined,1495046768121
903d185fccf839df,-0.2675820300186262,-0.7324851369551478,1.2596672882322424,1.2820021843166145,-0.6550972447053426,-1.9539858789677786,1.975627852827558,-0.41892796169151997,-0.3149921123136847,-0.8985544433385858,0.14525188653819612,0.058899069992928016,-0.5432472704991087,-0.6030566545024284,-0.8960218838081058,-0.17664981327035187,-0.8106154373795864,-0.6155708803621482,-0.9011913552995289,-0.019278481283881394,-0.6815367618636989,-0.3893652143821271,-0.6123386726888426,-0.43658054059685825,undefined,1495046768575
903d185fccf839df,-0.2537220350581076,-0.7336591669513907,1.320916326138877,1.3059056046144393,-0.6604663790675556,-1.956909073742678,1.959488732734575,-0.5326639577694299,-0.3232726801136399,-0.888305393600786,0.13705159150846752,-0.012697906674546377,-0.6607481060606061,-0.6150925086308371,-0.8802323733982832,-0.17260857991455908,-0.8322756000415248,-0.6238923689798844,-0.8864210873247661,0.0030030695461413966,-0.6790692971659164,-0.3871285134189812,-0.6101546939588213,-0.43452492959395184,undefined,1495046769624
903d185fccf839df,-0.2162995034792336,-0.7230928969852056,1.3272964342541516,1.351538856011364,-0.6468789736898453,-1.9584510302870166,1.9655767366568506,-0.4919874096828549,-0.33935556859631694,-0.7836135444205603,0.15857359784431269,-0.036080132279138546,-0.6607481060606061,-0.6132408327876475,-0.8707586730421767,-0.16856737482348785,-0.8391145892999666,-0.6207892266776224,-0.8857353998955542,0.0032648430783414834,-0.6772992012268042,-0.38740930259168554,-0.6142917446947923,-0.431786246103677,undefined,1495046770070
903d185fccf839df,-0.21907166809730405,-0.7336591523373944,1.3081558557713786,1.3445071377335662,-0.6503246824317934,-1.9651522512191568,1.9609745785004267,-0.5380909163852976,-0.30672833379633024,-0.8165522010671864,0.15572181867788526,-0.0512453383632988,-0.5084322081105169,-0.6521258830361091,-0.8791797506597202,-0.16250552478979868,-0.8596431437080178,-0.6621180168948158,-0.8892058181332053,0.008577306366903346,-0.6970296797333442,-0.4050719468494586,-0.6179776578441949,-0.4366451527508242,undefined,1495046771119
903d185fccf839df,-0.2814423010224226,-0.7160486877797566,1.3738713505641298,1.371038125873883,-0.6434332660361809,-1.9669387777214524,1.9366515006008815,-0.6991451104833244,-0.2956024169142365,-0.7749713724654465,0.14854575926202282,-0.0641692199545669,-0.4605614973262032,-0.6262025507392002,-0.8728639479682379,-0.13825829424337127,-0.8441927020681147,-0.6529415817000581,-0.8904302600243897,0.03259888115541176,-0.6885128242482378,-0.4092293881627964,-0.6136993636470098,-0.4425673312615357,undefined,1495046771590
903d185fccf839df,-0.19828133060242883,-0.7365942273280014,1.3834413856685666,1.380832900103956,-0.5989167702939598,-1.9658160843794843,1.9120286261540025,-0.8441053004539133,-0.28990077276930143,-0.7411804265616129,0.16542424285009827,-0.06582347947854252,-0.6825075200534759,-0.6447192314664488,-0.8654955004514913,-0.11401100716750076,-0.8435023626235267,-0.6619786921449865,-0.8830626173821478,0.05566575273011984,-0.6857662954398918,-0.4058810594213555,-0.6163417661070965,-0.4382716079842574,undefined,1495046772614
903d185fccf839df,-0.17056109914352352,-0.7013733420547144,1.3834413856685666,1.380832900103956,-0.5599236935153065,-1.9583392261213959,1.9063955777071768,-0.8632760499610092,-0.30001617520109825,-0.6528519340047287,0.17258923480503668,-0.05660879190507246,-0.6825075200534759,-0.6586067355364981,-0.8654955004514913,-0.16250552478979868,-0.850216266923677,-0.6660127774059018,-0.8866449846488795,0.03715682181525103,-0.6921796466335275,-0.405245835213133,-0.618353575446536,-0.4349539921750089,undefined,1495046773213
903d185fccf839df,-0.2398618330651306,-0.6966772220697433,1.4242743317432724,1.3979812800755036,-0.5677922531881093,-1.954013828693142,1.9222874962745773,-0.7617114291985109,-0.2997359513668101,-0.745242204691839,0.17328583683688614,-0.05688373093582861,-0.8565828319964349,-0.6345350531812297,-0.8570744596451167,-0.11401100716750076,-0.8537973499989374,-0.6626943148525084,-0.8843710211506618,0.04336239604360694,-0.6892402957741443,-0.4031318585995402,-0.6132750696426813,-0.4338086971694784,undefined,1495046774135
903d185fccf839df,-0.20521143159891733,-0.7060694620396855,1.3955634640191135,1.3621314226031103,-0.5875922207053486,-1.954314300434006,1.946292363241173,-0.6075851428830231,-0.30937730123778445,-0.7759845100635391,0.1758889424708356,0.08456888428021346,-0.865286597593583,-0.6549033968008934,-0.8307586261406246,-0.06349581633786339,-0.8345226833000527,-0.6535875416340254,-0.869810657367624,0.0982270569264043,-0.6715409387371961,-0.40474037430029347,-0.6092399509287014,-0.42831599585435914,undefined,1495046774554
903d185fccf839df,-0.2052115006097368,-0.6561731141293866,1.479143261534633,1.414588928489813,-0.5812459456906284,-1.9555394796727592,1.9248594461570663,-0.7544760925062362,-0.261323216440287,-0.7489165294488488,0.15168755869712733,0.15074007029558217,-0.6346368092691622,-0.6234250240236412,-0.7833901611712609,-0.12815523911861088,-0.8758857440043512,-0.6293830302124868,-0.8495828773250134,0.2107742923104838,-0.6339769932981717,-0.3911363060767845,-0.6052948463498151,-0.43572859763706673,undefined,1495046775579
903d185fccf839df,-0.2052115006097368,-0.6397366941819878,1.4600029371888095,1.4633506168691983,-0.5293648875960116,-1.9480602932504845,1.9544789545175247,-0.5289543137084295,-0.2549127564605878,-0.8104578035327863,0.15345157281341676,0.05906301864850275,-0.4126907865418895,-0.6067600191395821,-0.784442783909824,-0.09178428024008359,-0.8560388391197853,-0.6171667810670546,-0.8398643068949675,0.24930120281709262,-0.6200275510713764,-0.3806827156956933,-0.5984156210438611,-0.43826921884848613,undefined,1495046776091
903d185fccf839df,-0.19828136510783856,-0.6526510533686506,1.572930977897642,1.5494120799606028,-0.48986780744737535,-1.943248085092531,1.9762590129914857,-0.36360741499867866,-0.2868247471311149,-0.8159595769531814,0.12912508172158768,0.1040924824845186,-0.3909313725490196,-0.5900949754031994,-0.8191796950318596,-0.017021830599297242,-0.8185697431610933,-0.6033799620335822,-0.8210918632822573,0.3115417217880479,-0.5988747898308423,-0.395769592770854,-0.5774920968711226,-0.40384341760746373,undefined,1495046777060
903d185fccf839df,-0.20243933599166636,-0.5998196012397526,1.6112116265892886,1.6268703008294596,-0.39599025250377456,-1.9232492379589843,1.934581846846275,-0.5999003438312075,-0.27663937439358066,-0.5748114335618875,0.16015326247528106,0.1258606783199103,-0.47361714572192515,-0.5984275166975526,-0.7823375163459966,-0.027124772665171496,-0.8054865159413727,-0.6233730647414187,-0.824842153881571,0.2711362010446905,-0.610504079968539,-0.40453548322780614,-0.590198155553901,-0.41473289510916495,undefined,1495046777532
903d185fccf839df,-0.0763121258540329,-0.5375960114388855,1.5831391508820811,1.5732204619697545,-0.31774695216137033,-1.9039677960913775,1.9331091542878287,-0.549125138737334,-0.341192079994083,-0.7040578594503071,0.18488965204202748,0.09356576469504387,-0.7477857620320856,-0.542877487466581,-0.7939164769036967,0.17695657906655288,-0.7983762735424544,-0.5843051352620278,-0.8163690163625774,0.37957204981182263,-0.5667126742479487,-0.3883809131610346,-0.5478652022342582,-0.4089943779635449,undefined,1495046778551
903d185fccf839df,-0.008397336219822091,-0.5375960114388855,1.4006678046482823,1.451456133743616,-0.40172966769426144,-1.9108972830689397,1.9067532461672985,-0.7487573289502958,-0.3150114278620475,-0.6815934559409238,0.15142427631013464,0.16212178010663023,-0.8000083556149733,-0.5289899833965318,-0.8160217900050015,0.19716257625718753,-0.793108173933888,-0.5942478573781265,-0.8313841725161607,0.3446483747319063,-0.5842352039615665,-0.39040685770466893,-0.5441006502946141,-0.4167700622721874,undefined,1495046779029
903d185fccf839df,-0.11096238929860723,-0.512354293449685,1.163965412366176,1.1866385587051316,-0.41301307524091313,-1.907182147416166,1.8952241773074567,-0.8150318093974909,-0.4157738205937386,-0.620131501481903,0.1669581074171947,0.006935770640188982,-0.8609347147950089,-0.5530616268994766,-0.8086533792994238,0.16887405582552426,-0.8033933648889295,-0.5942225258802502,-0.8396683969367019,0.39276851641499383,-0.5773987287646133,-0.39430774300030313,-0.5517875408311034,-0.42674284092435616,undefined,1495046780095
903d185fccf839df,-0.16917508584530777,-0.5035490830918604,1.2392511964003134,1.223562347378511,-0.4177856382346501,-1.8961112734666898,1.8886943643082454,-0.8381358212384481,-0.4468116335838424,-0.5930026887247252,0.15656629035421119,-0.01712610524454689,-0.7913045900178254,-0.5604682914199113,-0.8149691599042047,0.2254510966888508,-0.8004434803035414,-0.5914233650073828,-0.8476517580062982,0.3617868437058845,-0.5838971792855441,-0.402272285287185,-0.5511219958610224,-0.4231540242162226,undefined,1495046780538
903d185fccf839df,-0.148384817361252,-0.4407384490648796,1.0255171933331952,0.9428186399812027,-0.4236690624860984,-1.8267302240467,1.8647631229346964,-0.8694340997084591,-0.45909597172524996,-0.3478048736094003,0.01757392603369202,-0.022137697774726624,-0.7956564728163993,-0.529915782465803,-0.8276007358382341,0.21736862997726525,-0.7294001019881613,-0.5236165368874471,-0.8511081824937379,0.4274150156670437,-0.5414804198102785,-0.3680478601730174,-0.49722077089873923,-0.41891239974661226,undefined,1495046781548
903d185fccf839df,-0.13729671097552598,-0.3192261690857984,0.8449600066024535,0.7246231554240178,-0.4645547105126096,-1.7138972184069963,1.847490557025121,-0.7419835490272276,-0.47127375549521744,-0.3170801947579292,-0.033401116318242594,-0.04699827389636884,-0.7782489416221035,-0.5706525344590032,-0.8381270515706699,0.2779869324611061,-0.7256480300278187,-0.5245158141587968,-0.8628908118143163,0.3495604741174633,-0.5623837406437844,-0.36850187721656624,-0.4954910218684227,-0.38123669765748297,undefined,1495046782028
903d185fccf839df,-0.19966744741687378,-0.11318372937723734,0.7211854008922304,0.5702072282230781,-0.6821383435318181,-1.6273939321140054,1.790452696802254,-1.0072742117259759,-0.35518837408560383,-0.39291384081359637,-0.18359770380971002,-0.04183233244847028,-0.5519510360962567,-0.5345449979753261,-0.8802323733982832,0.3487081770108212,-0.7045104353850054,-0.4968598518934958,-0.8915147651536222,0.2229082605910028,-0.5706714726922792,-0.39214159883025007,-0.5168629656406506,-0.4161946269164396,undefined,1495046783112
903d185fccf839df,-0.21075548479178033,-0.10437850440541653,0.5980494413359082,0.44468294383145335,-0.5972402024608938,-1.6249552182701006,1.8264731452219445,-0.7570596512294618,-0.32529482346038624,-0.32746709559496723,-0.14885864788276473,-0.05196685952564327,-0.6825075200534759,-0.5400999737017966,-0.872863977417173,0.3870997243025233,-0.6875399240560804,-0.4861318449607205,-0.8653536893407797,0.21168279465493606,-0.559872167023042,-0.3972807552435796,-0.49693852301773267,-0.42536829277344884,undefined,1495046783537
903d185fccf839df,-0.16085907506683272,-0.19653994679445136,1.0006346446151502,0.7626326304944688,-0.5938459224401997,-1.6162205708529425,1.881885788999322,-0.4124654386024578,-0.28402808307355293,-0.1613812299257162,-0.14055754847141871,-0.09223092278489198,-0.8739903631907309,-0.5308416462889469,-0.8276007358382341,0.27394572737003486,-0.7043934276184513,-0.48596719031864805,-0.8602390201433833,0.2253412172601088,-0.5562001599915298,-0.36689013284775074,-0.4496286224336574,-0.41410627948737744,undefined,1495046784552
903d185fccf839df,-0.1317525887718435,-0.21121532174748606,1.1556716530217435,1.1282267115556732,-0.5734699571531358,-1.6135698961296743,1.886148699890131,-0.37359756392015214,-0.29400488262178315,-0.19268107984843985,-0.16371496582104203,-0.057557456778895365,-0.865286597593583,-0.5604683432230095,-0.8412849713219955,0.20524504296877308,-0.7641884140241375,-0.4957769208777448,-0.8878694262892644,0.14218961071932743,-0.5812811861101768,-0.36450892821490866,-0.4550296226875767,-0.45183637822907585,undefined,1495046785024
903d185fccf839df,-0.1941233252131913,-0.16484113689589644,1.2041604746978294,1.1988103954023925,-0.6419006982997413,-1.6805099019650411,1.8501650681951705,-0.7280782290944484,-0.24890180162804887,-0.2938502958277882,-0.08616194682651711,0.017821875413658508,-0.9088054255793226,-0.5956500676866409,-0.8328639010666858,0.17089470076814217,-0.779364139586267,-0.5022238581226798,-0.8892058178640547,0.16002101202698119,-0.5854750620289019,-0.3436088060260266,-0.45413471791538734,-0.4082617816131343,undefined,1495046786051
903d185fccf839df,-0.20243940500248583,-0.3221612440764053,1.2609433098552971,1.2470817560048924,-0.6327978549183053,-1.7655015117070976,1.917096258999731,-0.5115031406030902,-0.24005676924385344,-0.4574693420043552,0.08250854569788933,0.01691735631258415,-0.9175091911764707,-0.6317575523672199,-0.8370744509188083,0.18908025086920965,-0.7722061673879147,-0.5294681811694933,-0.8968883159252614,0.19957961954971232,-0.5922517841495737,-0.3768161803705263,-0.5230629471010081,-0.436940802119471,undefined,1495046786603
903d185fccf839df,-0.1317525887718435,-0.4642190489897351,1.2475452098816955,1.2470817560048924,-0.6010664778761927,-1.8265345665380515,1.931160458922288,-0.4999763309235745,-0.26262336918795137,-0.5298940453959288,0.044777343797160564,0.05952134152112132,-1.0480656751336899,-0.6271284016115695,-0.8381270662951374,0.15270929199068237,-0.7604278676532121,-0.535015839808742,-0.8913188542716806,0.18371922216704195,-0.5971579687714192,-0.3793513428078961,-0.5161827007030043,-0.423842791730584,undefined,1495046787706
903d185fccf839df,-0.08878624553797466,-0.528203742240951,1.2060746342008863,1.2470817560048924,-0.5586894051654646,-1.8383717596334337,1.9403279621767322,-0.45058079471662693,-0.2315323951560068,-0.525839107984368,0.07189503091975474,0.022942681512007138,-1.0654732063279857,-0.6252767257683799,-0.83602179873131,0.17089470076814217,-0.7631130428593144,-0.5384102975755308,-0.8949711896165936,0.1943287508506742,-0.5969357351849299,-0.3810233742714413,-0.5203023677370215,-0.42219275141311763,undefined,1495046788103
903d185fccf839df,-0.14145468185935378,-0.5804480916877507,1.1824681071058962,1.254327254058874,-0.5533305581227127,-1.8974645587345604,1.9191212060954554,-0.6844983790617317,-0.2722616089400758,-0.4930811996251587,0.070759892142086,0.04767286033746027,-0.9784355503565063,-0.632683351436491,-0.8318112783281227,0.22343056480511903,-0.7660638433056002,-0.544540586761803,-0.888016359758103,0.21162120507339152,-0.5935533866199748,-0.3820970049138467,-0.5286930171837507,-0.41593042324781204,undefined,1495046789135
903d185fccf839df,-0.14145468185935378,-0.5886663601174348,1.2475452098816955,1.1988103954023925,-0.5544928415259653,-1.9130611449106327,1.9703866450968157,-0.38377734333982855,-0.27390077487380154,-0.541089857312553,0.1283045724249753,0.046004128300131765,-0.8870460115864528,-0.632683351436491,-0.8276007284760003,0.22343056480511903,-0.7703197454986936,-0.5417224266426535,-0.887505592606925,0.21020454830773028,-0.5910077370054327,-0.3823287163266088,-0.5373666572478357,-0.41836690265947485,undefined,1495046789564
903d185fccf839df,-0.08047009673786068,-0.5916013912660532,1.158223442130904,1.2064155920942,-0.536667727712079,-1.881791109580147,1.9196261273129538,-0.6583669367034259,-0.24447057400620334,-0.5551879165258424,0.1402374478451241,-0.03295632515161707,-0.7956564728163993,-0.6317575394164453,-0.8191796582206906,0.22949238657408663,-0.7703197454986936,-0.5258330705076072,-0.8812014656950687,0.18707608351665395,-0.5867957569727283,-0.3821364758123501,-0.5227297928781239,-0.417658232222503,undefined,1495046790626
903d185fccf839df,-0.06383800617009112,-0.5745779563205329,1.1307891043036984,1.190367786995624,-0.5228848932564207,-1.8707505161024707,1.9415508223586107,-0.493559823960166,-0.24019678395675825,-0.5298001698646737,0.1548073377610317,-0.05922950112864187,-0.7782489416221035,-0.6317575394164453,-0.8191796582206906,0.24565723520309313,-0.7622868208270781,-0.5253011033937328,-0.8820410829452164,0.17414138901867796,-0.5888197441415204,-0.38223005809498906,-0.5209127270193316,-0.41185513795346573,undefined,1495046791080
903d185fccf839df,-0.19828136510783856,-0.5064841873104596,1.1314269880467511,1.1820120529971478,-0.6048001844467781,-1.8427297690102025,1.9165650360812698,-0.6359788260068584,-0.3156158901334082,-0.5887536955368121,0.11549287479883048,0.00003676948355944196,-0.5345435049019608,-0.6187958732679909,-0.8212849699579208,0.17291541637256394,-0.748283115781865,-0.5307474353881498,-0.8977909042408508,0.14279015476315401,-0.6006784298633001,-0.3783581230048019,-0.5129212775052157,-0.40264962213811806,undefined,1495046792151
903d185fccf839df,-0.24124784636334637,-0.4718502439653131,1.075282036632336,1.130552918102996,-0.578036799636392,-1.834787063347072,1.9342084027079365,-0.49951773860568294,-0.3205289043776729,-0.6088889651691162,0.10525434268493314,0.062325753998488456,-0.4300983177361854,-0.6150925345323862,-0.8244428528980775,0.1304824802691006,-0.7371537816790332,-0.5315263875047624,-0.8925712832412108,0.11267079555099135,-0.6041454876544469,-0.37994152660000424,-0.5085217362510537,-0.39863581641429385,undefined,1495046792600
903d185fccf839df,-0.18996528531854406,-0.33390163172281007,1.0044627094843148,0.9019400160924559,-0.6053864674555219,-1.7884887760157753,1.9081180958332995,-0.6079530764069742,-0.329684188504313,-0.5180613030140422,0.07140680058358588,0.002780476233373522,-0.36917195855614976,-0.6178700353463961,-0.834969175992747,0.1264413034427509,-0.7324100020617553,-0.547859049420393,-0.8931660124471132,0.10401686974867072,-0.6150709419200018,-0.37421859948143243,-0.48529676290382445,-0.39752924587144034,undefined,1495046793628
903d185fccf839df,-0.17056109914352352,-0.2728519550062164,1.06060766089873,1.0636546227860595,-0.626492715433849,-1.7698478742431205,1.8955949612641996,-0.6696612410802733,-0.3280720825274755,-0.4841697387258172,0.08140675144756669,-0.10082410583531475,-0.3343568961675579,-0.6271283627592459,-0.8391796963959343,0.10421470370658062,-0.7332674846781736,-0.5510065225664734,-0.8989663685476545,0.07723897340028704,-0.623719178301132,-0.3651470261018346,-0.4815563667669488,-0.390661356624461,undefined,1495046794085
903d185fccf839df,-0.17471910453276104,-0.24350120510014703,0.9948924202429285,0.8844103317049716,-0.6984308817492179,-1.7451276583120934,1.8759187528938084,-0.7790399707602511,-0.3436788303686963,-0.5494881057631331,0.030219347921918913,-0.019544841803084967,-0.6172292780748664,-0.6919367323538417,-0.8760218456328621,0.03551399104059729,-0.8008623189708668,-0.6229740938408824,-0.9232173153153682,-0.034291967034477955,-0.6835936560338368,-0.40157837813862635,-0.547534276219471,-0.3906970108772687,undefined,1495046795111
903d185fccf839df,-0.17471910453276104,-0.26404667157841094,0.9017428417599215,0.9631813190648545,-0.6962914553888578,-1.726321381005732,1.8268544609628028,-1.0793314985809828,-0.3482745456749709,-0.4843792573069449,0.0491737501983585,0.03530406413255142,-0.6172292780748664,-0.7002692477466458,-0.8686534128405831,0.04965823712406816,-0.8023529274394096,-0.6375968607532239,-0.9303050850515295,-0.07295746340201781,-0.6981305485590481,-0.3990528932204928,-0.5418772639541773,-0.3788114112130634,undefined,1495046795576
903d185fccf839df,-0.17471910453276104,-0.3027897491383995,1.0267929608193007,0.8638714708364353,-0.6825086202610245,-1.6914386939572001,1.855193254512705,-0.8452786795844084,-0.3614149433518652,-0.38882985546436943,0.0330409059178094,0.10719495589481504,-0.6389886920677362,-0.7187859090477327,-0.8697060650280812,0.05976127811646779,-0.798109490606016,-0.6550631192604442,-0.9356296580858615,-0.06832253149769558,-0.7076675926003526,-0.3969725317089466,-0.5331441350867808,-0.3771908533999584,undefined,1495046796732
903d185fccf839df,-0.1733330912345453,-0.3427067982386462,0.9093989714982508,0.9188773119318239,-0.6885051819485336,-1.687080687233354,1.850898781790245,-0.8719842794469018,-0.3591543791208896,-0.40211767877422616,0.03942793072753305,0.07967543158871253,-0.6346368092691622,-0.7104534066057031,-0.8802323954849846,0.023390347502662046,-0.7976600337729042,-0.6592871927098747,-0.9421996637131584,-0.07723823139763325,-0.7125289387571667,-0.39713362275373026,-0.5313418002682893,-0.3829637962710928,undefined,1495046797102
903d185fccf839df,-0.15115680945227378,-0.307485898351363,0.8883447417863198,0.8533665921745504,-0.7647941960366346,-1.66494126870545,1.8653101173412865,-0.7684635552674804,-0.3297243598308616,-0.41926887083810266,-0.006067410115534266,-0.015762128769212163,-0.7826008244206774,-0.6993433903988892,-0.8823376556865782,0.027431552593733283,-0.7923089797617706,-0.6713641164355412,-0.9429063416300539,-0.06946201693190181,-0.7178157456104624,-0.3884082017847146,-0.522327864101382,-0.38354820030596865,undefined,1495046798107
903d185fccf839df,-0.20936950599897433,-0.32392237675474644,0.9566117715512817,0.841984491332589,-0.7804387413021633,-1.6532880850104024,1.8333711265159793,-0.9705392228499372,-0.31430260160595364,-0.3647507235859714,0.00710927195775526,0.023070537080535056,-0.8304715352049912,-0.7289700743821773,-0.8802323954849846,-0.0028775279863833022,-0.7935056148992847,-0.6782353600652881,-0.9444736272358444,-0.08053349919431955,-0.7244166504298215,-0.38675865567666734,-0.5100285273632091,-0.38062171625945324,undefined,1495046798570
903d185fccf839df,-0.162245019354229,-0.4477826582703286,0.7766924685635928,0.822705566472142,-0.8104626911595058,-1.624955218448593,1.8196619505847749,-1.0368949312750244,-0.27042052715258924,-0.34010392574945625,0.011286744409661638,0.09018455042969073,-0.9305648395721926,-0.7400801229659275,-0.8854955533512024,0.019349170676312345,-0.7992003324749996,-0.7186078751449421,-0.9537094175196535,-0.08041031223655296,-0.7495746329582228,-0.39617036909914116,-0.4672605634996487,-0.373558459360836,undefined,1495046799615
903d185fccf839df,-0.21768558578826883,-0.488286751596689,0.8360276011041199,0.8887073135033827,-0.81909239047265,-1.6056528125260499,1.8139131939281146,-1.0574661258510523,-0.2706183586268356,-0.30509150550199715,0.03862854869143848,0.03630240068947616,-0.9784355503565063,-0.7511901067958051,-0.8854955533512024,-0.033186693360664495,-0.8152821611625334,-0.7494049796224558,-0.9527718448744129,-0.12552775634411253,-0.7732479826761892,-0.3833168837823618,-0.5285251158769952,-0.3567181675338831,undefined,1495046800082
903d185fccf839df,-0.2772841576115462,-0.5645986428964846,0.82837172550274,0.8976482819120695,-0.8869574225772586,-1.5625921673170677,1.8121933024628898,-1.0423808228040967,-0.24299732938302637,-0.32083473662453854,0.050288250779498465,0.005130287221037882,-0.9871393159536542,-0.7604484536348167,-0.9360219527963592,-0.06349574567605955,-0.8536481532494737,-0.7675235319540908,-0.9837397299246934,-0.17044502242443263,-0.8006800045643474,-0.38732491897718624,-0.531500249326638,-0.34573675230076667,undefined,1495046801090
903d185fccf839df,-0.35212901373683575,-0.5839701962904751,0.816887530895246,0.8506857298937205,-0.9080122464735401,-1.5549452753268072,1.7891772384560594,-1.188913972251198,-0.2397735518546831,-0.3148738665026108,0.07248759002450852,-0.014398385268058485,-0.9914911987522282,-0.770632586592325,-0.9486535434548562,-0.07966063670214833,-0.8525874095391348,-0.7718995963839786,-0.9876159632237771,-0.1921260332897086,-0.8071199048211917,-0.3898805401927344,-0.530675001431649,-0.34342383244496616,undefined,1495046801581
903d185fccf839df,-0.3964814047743301,-0.5804481647577315,0.6803529630914232,0.7508901426758035,-0.9596875874665642,-1.5800847520247354,1.833941800152721,-0.9697853854236841,-0.27145571190007634,-0.3332483847794209,0.09241974633752899,0.0007744491562313139,-0.9871393159536542,-0.7724842559601273,-0.9886535793130576,-0.21302075801651837,-0.8535820557035418,-0.7709623200110314,-0.9964109543550679,-0.22606420703986188,-0.8155170155460029,-0.3930260729104363,-0.5345951573270096,-0.3326119441273274,undefined,1495046802639
903d185fccf839df,-0.38400728509038834,-0.5487492964031919,0.7269276252644521,0.7508901426758035,-0.9540304549876389,-1.597160404709562,1.8393013448492403,-0.9581755984775144,-0.27615050039823424,-0.37119322767882745,0.06492883774929173,0.027170143931164854,-0.9784355503565063,-0.7761876141218937,-1.0149693870497314,-0.24130923605109933,-0.8598725889924478,-0.7713359638153408,-1.0053318883635238,-0.252441743887416,-0.82361303901927,-0.3910282833660239,-0.5264231472795721,-0.339042522686429,undefined,1495046803144
903d185fccf839df,-0.3798492797011508,-0.5311388464595502,0.707149417175576,0.831479612670704,-0.926176788247685,-1.6069269046462986,1.8554325750080711,-0.8700754884039104,-0.24368635060881014,-0.33519198310184095,0.08304726675599347,0.07771968239899714,-0.8348234180035651,-0.7826684601468955,-1.0254957175066348,-0.30596872949365067,-0.8704206820962704,-0.7928806379843617,-1.0227749379341335,-0.31577555144845976,-0.8511055082457808,-0.43373887448006826,-0.5927667452677495,-0.3811528533329275,undefined,1495046804135
