UUID,iqrAccX,iqrAccY,iqrAccZ,iqrAccXYZ,meanAccX,meanAccY,meanAccZ,meanAccXYZ, covarianceAccXY, covarianceAccXZ, covarianceAccYZ,pressureDerivative, pressureIQR, iqrGyroX, iqrGyroY, iqrGyroZ, iqrGyroMagnitude, meanGyroX, meanGyroY, meanGyroZ, meanGyroMagnitude, covarianceGyroXY, covarianceGyroXZ, covarianceGyroYZ, class, timestamp 
903d185fccf839df,0.06921946023837464,-0.521453069762555,-0.6435206144442978,-0.704899374355625,-0.9406538847365751,-1.8537488186334703,1.9856842197012572,-0.36790666318576976,0.049829003631794086,-0.9977314732968021,0.09015861657314028,0.027514428378002356,-1.1285755069073085,-0.664161717738356,-0.8433902462480567,0.4477180126540034,0.2132255331718174,-0.6314327927852615,-0.5137755964724954,-0.02632068954153294,-0.49039544998578893,-0.9867492083404867,-0.4397533365878839,0.11783094808802018,undefined,1498153661711
903d185fccf839df,-0.027108550251144482,-0.3538601124309449,-0.22689917331145193,-0.3290178329073307,-1.1183944217687078,-1.6910660157512027,1.9367604681576185,-0.48525363447945935,-0.13172012114500875,-0.40560623493275777,-0.03223266939230775,-0.20252037705790985,-0.7934805314171123,-0.2632756654685339,-0.4907582127529641,-0.06349575980842032,0.17319224498669997,-0.2902190632625168,-0.47850001263549957,-0.2525495223837779,-0.3785380505918865,-0.4292767753513471,-0.6748296715333953,-0.22918624011057875,undefined,1498153662465
903d185fccf839df,-0.7020976993377057,-0.4046369097684449,-0.25241985990949917,-0.31783743040201645,-1.3059675801919932,-1.8123999670778848,1.9593752297327034,-0.5233924003609713,-0.09231812715955465,-0.48431253236204286,-0.044731399899485894,-0.07555898637662112,-0.7216744652406417,-0.5539875295749441,-0.872863977417173,-0.48580286481130835,-0.4301074864503705,-0.4853528906817023,-0.6919667420759806,-0.47649362700239023,-0.6031331171207649,-0.3367594339452472,-0.584003772278126,-0.250239343488565,undefined,1498153663233
903d185fccf839df,-0.3729191787046623,-0.423714984891367,-0.0980207352459586,-0.121272883471719,-1.1628173976263199,-1.8322658647428716,1.9896560287529075,-0.29914966198865367,-0.22531249841747855,-0.6961986448402138,-0.10883401734546384,-0.059027046637921125,-0.7826008244206774,-0.552135866682529,-0.8570744596451167,-0.5524829042699523,-0.5626490494803464,-0.5021518568214205,-0.7979688753901742,-0.5382514755162628,-0.6592871141251636,-0.3623510367260905,-0.5667929482324289,-0.3204111552202463,undefined,1498153663954
903d185fccf839df,-0.03473162339133112,-0.47507882645498073,0.11730797717879149,0.032294291668398416,-0.9746026351625559,-1.8466932355217187,2.0009259972112705,-0.19659458071096547,-0.26015003743391296,-0.7459322213610903,-0.12216373710714863,-0.04435263770759907,-0.845703125,-0.49751162357005413,-0.8865481760897654,-0.38073123566388006,-0.4605125403148634,-0.49295242211215207,-0.7922195208792436,-0.30240199579854155,-0.616031547182886,-0.4104777166613866,-0.5316304588013241,-0.3469109553757541,undefined,1498153664763
903d185fccf839df,-0.1400687375719575,-0.4518917048011936,0.11379885418115318,0.051494778942934825,-0.9250556403146801,-1.84234544088288,1.9765193745333653,-0.3295250571910949,-0.30001706294409264,-0.7961940074119737,-0.14428443935168836,0.07354109939457007,-0.8870460115864528,-0.430851584607656,-0.9012850416743237,-0.36456635877015203,-0.5938748457576832,-0.5152308137770965,-0.7971547722239366,-0.29286045903459296,-0.6285416187997691,-0.40901931665937064,-0.5695405462142107,-0.3581140369967311,undefined,1498153665507
903d185fccf839df,-0.12482257403887936,-0.46950215474483525,0.2717065935684332,0.2582016330952915,-0.9010305911813508,-1.8430171088442924,1.928463553593255,-0.6356254902064516,-0.339539568972162,-0.7575758423138476,-0.15326281311129275,0.07196438627136671,-0.8413512422014261,-0.4901049590496194,-0.8918113634049185,-0.3463808934632492,-0.6268167362051499,-0.5207455570160492,-0.825662655230886,-0.2967406873907104,-0.643545556112158,-0.42232299306083776,-0.5353030452952415,-0.3816595175894111,undefined,1498153666217
903d185fccf839df,-0.2052115006097368,-0.47830737971665604,0.33965493559881815,0.35717194303502614,-0.9322816459410669,-1.8559179176942955,1.9505221904360215,-0.5203016221742128,-0.3561479250857835,-0.7121953986695004,-0.11710438937408436,0.05368523628672503,-0.4083389037433155,-0.4252965829796363,-0.9076008590902735,-0.26151533216825934,-0.6064094204171548,-0.5144109223583241,-0.8300647732544688,-0.24647264566151103,-0.6362292061996668,-0.44282192438508894,-0.47960147272658765,-0.39142469313209316,undefined,1498153666956
903d185fccf839df,-0.20659751390795256,-0.4747852897279277,0.5489224817798202,0.4582934279234318,-0.8880818075340183,-1.8553754503759763,1.940915253258151,-0.5741864211571188,-0.3756018301516641,-0.6738572211196693,-0.10917822353422621,0.09604029414940578,-0.47361714572192515,-0.38641157805888565,-0.9097061266541009,-0.25545351039929176,-0.6186559111652302,-0.5247907852467502,-0.8456745933822195,-0.2543998285554812,-0.6431588902667262,-0.45354603998372794,-0.5021132140490334,-0.3935711014893526,undefined,1498153667749
903d185fccf839df,-0.20936954050438406,-0.4835905146997485,0.5029857033498442,0.4891019313217077,-0.8796927782156582,-1.8539630204008621,1.9382725933022422,-0.5958094695389099,-0.38618808503277263,-0.6210630940596634,-0.10181997614137243,0.04069507856845327,-0.5084322081105169,-0.39104072881453605,-0.9897062057327376,-0.2655565513916914,-0.6452600325245268,-0.541137861902073,-0.8618263830846141,-0.23693349939784863,-0.6564892043020493,-0.45080399034670476,-0.5037311608386988,-0.4091087792394747,undefined,1498153668483
903d185fccf839df,-0.24124786361605122,-0.4841775296978699,0.595178456218272,0.49519289841020653,-0.8995073314196641,-1.8616999114281767,1.966117322879676,-0.42347471071644344,-0.37632354107369714,-0.6799216725814623,-0.12022494588808101,0.11550484943811665,-0.5258397393048129,-0.39011491031910306,-0.9244429848764253,-0.3059687153612899,-0.6285022283778414,-0.5319574035579969,-0.8563078451472502,-0.21434020255324854,-0.6487693753270933,-0.452205690044699,-0.5167584482503745,-0.40548672602360236,undefined,1498153669230
903d185fccf839df,-0.20936954050438406,-0.4806554397091416,0.559768538507312,0.4582934279234318,-0.8615086349524568,-1.8601903161307975,1.9578821471744965,-0.4527122931769523,-0.42375416689338746,-0.732684934002089,-0.10347638811067246,0.22915918156760456,-0.6563962232620321,-0.4141865797235969,-0.9476009133540594,-0.30798930377446476,-0.6489529281870924,-0.5361272652486656,-0.8592620901219327,-0.19086913500346267,-0.649659317654353,-0.44345207880609916,-0.5415145631132218,-0.42076134665604636,undefined,1498153670002
903d185fccf839df,-0.22322967348654157,-0.45423976479367917,0.7224619307891841,0.6213501904408555,-0.8467094912160308,-1.8498595662109942,1.9276970149623784,-0.6044095051448433,-0.45652960076772076,-0.6444228049472741,-0.13838423170901193,0.14648824124702964,-0.10370710784313725,-0.41140908538497434,-0.9518114484817143,-0.18877342854356557,-0.648454263378509,-0.5050294562531187,-0.8644385795556792,-0.19065183563857188,-0.6339478284774438,-0.46298371039850167,-0.4854979391114372,-0.4362719185802367,undefined,1498153670772
903d185fccf839df,-0.2384758542723246,-0.48476457392398364,0.80986903076302,0.7580597859303838,-0.8289666646588898,-1.8591648764772553,1.9532140236344193,-0.4491219913687224,-0.4550198713428212,-0.5900158750094519,-0.13493480214873074,0.1698366930086018,0.39240753119429594,-0.4188157628561836,-0.9349693079710949,-0.18877342854356557,-0.6774432633280992,-0.5019742706190201,-0.8644572945836961,-0.19089895524727404,-0.6329596270269925,-0.45977552897269164,-0.5090744901539452,-0.45320336695532104,undefined,1498153671485
903d185fccf839df,-0.2800562532187972,-0.38086280234452874,1.1027166285964909,1.0739550649820333,-0.8254489543792405,-1.8304080889785086,1.883900224606665,-0.8345690469712971,-0.48336053025646586,-0.5715469622645397,-0.16350480351153054,0.15014125144375873,0.4446301247771836,-0.4280741161705825,-0.9728640652221181,-0.2978862769144259,-0.6937649134079388,-0.5089479024689209,-0.8796452057457251,-0.21023880580591497,-0.6450389066868991,-0.4539223763299238,-0.5202663132269949,-0.4569346823460226,undefined,1498153672223
903d185fccf839df,-0.29807446060101167,-0.3614913074065229,1.2086264233100468,1.072921500341376,-0.7697827622391091,-1.8189295984173368,1.9072713105098051,-0.64195825362936,-0.5353411416166127,-0.6278951946646737,-0.1748396980825287,0.10957210403388587,0.4054631795900179,-0.42992579201377207,-0.9728640652221181,-0.31000994871708265,-0.7024006493384946,-0.508594792801527,-0.8793623046011062,-0.2361281927242216,-0.650230110144257,-0.44998971653589614,-0.5215034832670731,-0.4593540483533887,undefined,1498153672993
903d185fccf839df,-0.30916256698673766,-0.3785147423520432,1.016585041971811,1.0714099188437407,-0.7859621631344781,-1.8249693158900007,1.8885996849674829,-0.7842000573810293,-0.5475194081203171,-0.4524654444118156,-0.16245954684739447,0.1778698841982064,-0.5954698640819964,-0.4289998893383046,-0.9739167026851487,-0.267577153937227,-0.6980827813732168,-0.5046825039873972,-0.8870013227465285,-0.21883793702670906,-0.6485491074007281,-0.4552197797888384,-0.5020205330929268,-0.4568277448725638,undefined,1498153673772
903d185fccf839df,-0.2869863197098759,-0.3720575773727079,0.9598019526773937,0.8414980247295991,-0.8012981388772145,-1.821328714836194,1.8842263149985485,-0.8102235344002815,-0.5581882072696087,-0.4017698360298533,-0.1495517835737763,0.09210525214203984,-0.7564895276292335,-0.43270324102468377,-0.9739167026851487,-0.2514122911758597,-0.6967103339207625,-0.5115353989117621,-0.8894943389072664,-0.23360713316860623,-0.6541852959823081,-0.45752485626517786,-0.5047191880355366,-0.4545317588209268,undefined,1498153674495
903d185fccf839df,-0.2925304074081487,-0.34564190245724546,1.0606079150356795,0.9316940056171223,-0.817621541359598,-1.8168123202460087,1.9001445316005847,-0.7006279539699877,-0.5679398110155952,-0.4083515505259443,-0.12449276556014864,-0.007716781563838144,-0.8957497771836007,-0.4336290918970531,-0.9707588050205245,-0.24535046940689212,-0.6930414826194241,-0.5098513828218071,-0.8941396179712232,-0.23896056105187258,-0.655486410138086,-0.44892819070363393,-0.5133739967096487,-0.46434031981041457,undefined,1498153675244
903d185fccf839df,-0.30916256698673766,-0.33331458749669635,1.016585041971811,0.9291488594788299,-0.784491311728829,-1.817613578538764,1.8904352856900641,-0.745776223117299,-0.6174109844647183,-0.4740027914311642,-0.08978476621683328,-0.03431396896864184,-0.8304715352049912,-0.43177744195541257,-1.002337781666767,-0.15644375955027412,-0.6937264567526855,-0.511406325963686,-0.8962136938660744,-0.21988155269813736,-0.6552539813167928,-0.4493999100125907,-0.5086650454440134,-0.4707683797230264,undefined,1498153675980
903d185fccf839df,-0.3216367211760892,-0.3597302624121588,0.9687338499018284,0.8040210693043961,-0.7308925437711896,-1.8230919495923268,1.895650191719844,-0.7169834848647322,-0.6043832940487067,-0.4621962954798901,-0.08296570139807029,-0.045631931406551515,-0.8870460115864528,-0.4336290918970531,-0.9833904251279566,-0.15240252619448136,-0.6937264567526855,-0.5139492860528251,-0.8913563953831432,-0.22601562602668435,-0.6566982711828243,-0.4364720054364103,-0.515161662970388,-0.47709166063813285,undefined,1498153676767
903d185fccf839df,-0.29807446060101167,-0.34857700667584474,0.9687338499018284,0.7855857501401311,-0.7379999623472719,-1.808003137564841,1.890169677111519,-0.7362122310713297,-0.6006636145428849,-0.3433437605883027,-0.07994609394969546,0.0349520755759307,-0.8870460115864528,-0.44196156843753354,-0.9823377803026923,-0.21504133229733244,-0.7656703861020764,-0.5168013078234854,-0.8903066826712405,-0.24344601659609708,-0.6609943700301507,-0.438858768450202,-0.5246146920422547,-0.4833305676194474,undefined,1498153677475
903d185fccf839df,-0.2814423010224226,-0.3356626767171742,0.9687338499018284,0.776031543333045,-0.7370022511849185,-1.795958641772705,1.8617782927299522,-0.8908756695770103,-0.6116361195353469,-0.3521602307713219,-0.0825411036895258,0.09890634032296833,-0.9044535427807487,-0.4391840935250728,-0.9549693240596371,-0.16250552478979868,-0.7656703861020764,-0.5166977630737377,-0.8885785082974244,-0.2514490894348083,-0.6614746543196676,-0.44151855013437896,-0.5189787146084592,-0.4878052552952885,undefined,1498153678253
903d185fccf839df,-0.0818560755306667,-0.32568342174911064,1.1894860989642233,1.0391502832907626,-0.7376605352832468,-1.80190519007713,1.8950926754805946,-0.6800328818968923,-0.6081346864156266,-0.3711072095949198,-0.0594524709289128,0.004247184195276465,-0.9218610739750446,-0.44473908220231795,-0.9539166645099051,-0.158464347963449,-0.7556132484809567,-0.5085377968842436,-0.8971471989003112,-0.24146265322657545,-0.6613019915404138,-0.4271947829541047,-0.5130114305254098,-0.5054945015678063,undefined,1498153678984
903d185fccf839df,-0.09987431741829095,-0.3802758165743997,1.104630279825649,1.0522866819423333,-0.6601989491400854,-1.80097582415245,1.8671641317947818,-0.8438623564155812,-0.6133765258264795,-0.32912850026723794,-0.038104139866965744,0.019358801831464864,-0.9001016599821747,-0.44844243388869715,-0.9854956853295502,-0.15846436209580975,-0.8113464690465472,-0.5287145555511478,-0.9237490736209896,-0.19924011535513936,-0.6725359992803687,-0.4623028846752283,-0.5132340566425175,-0.5008041477300779,undefined,1498153679778
903d185fccf839df,-0.045819833293286344,-0.38614596655561356,1.202884198937825,1.0950625578802307,-0.6431761189470045,-1.80558771703004,1.8818253040434185,-0.7831861085187554,-0.6069164706904001,-0.37506497856721166,0.0245172910323048,0.02691059162166454,-0.8696384803921569,-0.4438132313299486,-0.9886535829941745,-0.12613459417599293,-0.7949025234784494,-0.5111343037919743,-0.92244766683463,-0.17343232086793683,-0.6584834452048157,-0.46355447667023897,-0.5072109232631449,-0.49685096052099165,undefined,1498153680492
903d185fccf839df,-0.012555376114469349,-0.32040019908204115,1.0644354716309452,0.9388992051915868,-0.6032881867240558,-1.8327839142279054,1.8592852381298348,-0.9427733714994673,-0.6143398595055799,-0.42198433364963117,0.02203614749152839,0.009975557470195224,-0.843527183600713,-0.4539974096151677,-0.9802325201010986,-0.08774307514901235,-0.7666418982084657,-0.4994880211720671,-0.9151359993339271,-0.12529677982396584,-0.6430760179377745,-0.4671032088482941,-0.505082084990441,-0.496584800108688,undefined,1498153681293
903d185fccf839df,-0.007011322921606339,-0.4237149556633747,1.0695398122601143,0.9204638860273218,-0.5887442098913434,-1.866755868033268,1.870338315705322,-0.9401474339230821,-0.5774918674066828,-0.33730412649931757,0.049652758444575874,-0.03678893049339681,-0.843527183600713,-0.4595524112431874,-0.9676009073559003,-0.04531036516332128,-0.7688837541036372,-0.5063782637823362,-0.9098394133473559,-0.10243008910358192,-0.6421684807111151,-0.4676134713170255,-0.5060898353937552,-0.49862577558804244,undefined,1498153681996
903d185fccf839df,0.05397326219988676,-0.5334868479960512,1.0019106662382051,0.8808375580571572,-0.5380151507292601,-1.8625422743411668,1.8908613218385284,-0.7998814703468554,-0.5779421530666006,-0.34882065591322153,0.09824916226037027,-0.01817537125481607,-0.7608414104278075,-0.4595524112431874,-0.9833903956790215,-0.0796606508345091,-0.7640875716270423,-0.4960998967475957,-0.9165773425825027,-0.14100319512153991,-0.6450651956871833,-0.4691718396573475,-0.4938984180725396,-0.5148010532226238,undefined,1498153682773
903d185fccf839df,0.07337751738572676,-0.5604895671376273,1.0695398122601143,0.9204638860273218,-0.447490731103701,-1.8841296631060314,1.8819830948700422,-0.8601491713173376,-0.578963325234944,-0.34573756012768025,0.11497696624208022,0.014750344022563923,-0.7826008244206774,-0.474365766185606,-0.9560219394359664,-0.08572247260347672,-0.7640875716270423,-0.4888930072801202,-0.9179697080631855,-0.13310379271529327,-0.6426013454995366,-0.47391023110259456,-0.4690534097856715,-0.5209814028405504,undefined,1498153683481
903d185fccf839df,-0.005625378634210056,-0.5604895671376273,1.1512054502725766,0.9694526477445857,-0.4436438800712252,-1.8922866589475429,1.8769522792728048,-0.9034989625131171,-0.5827492253211519,-0.40447784842123,0.14381957993868447,0.006362957714345593,-0.7826008244206774,-0.4706624533515505,-0.9612851120266518,-0.0230836806329864,-0.7674257303124661,-0.47762670099294985,-0.9159406326336813,-0.11519539969197568,-0.633169561043033,-0.47840771792856696,-0.46519383845788737,-0.5276523056957628,undefined,1498153684240
903d185fccf839df,-0.0014673387395627991,-0.5687077771113267,1.080386377261505,0.9472509623810945,-0.4456598763946878,-1.8972246462959823,1.8985272088865137,-0.7821056435551678,-0.5577438239070699,-0.3599255642307662,0.16071081260911402,-0.04956786797544603,-0.7260263480392157,-0.4780691178719852,-0.950758796294216,-0.00893939215243323,-0.7621723454675668,-0.48382032023056576,-0.9115186481412701,-0.09531600620348829,-0.6304147299817704,-0.47095961331796415,-0.4755458561352884,-0.5304756520131009,undefined,1498153685012
903d185fccf839df,-0.04027567658419413,-0.5775130166971437,1.1333408934128588,1.1663311642625003,-0.4721044043148077,-1.8921585512286372,1.9275760462290348,-0.6019211055598161,-0.5174430953848775,-0.15468494747997608,0.15457832338647093,-0.05502127908048916,-0.7695451760249554,-0.5030666381488484,-0.9539166718721389,-0.04126914593988927,-0.7791551020176501,-0.4754861666445613,-0.9058232439224942,-0.1007208610936273,-0.6275552283819343,-0.46389380258295954,-0.4786049911639597,-0.5330852892990016,undefined,1498153685790
903d185fccf839df,0.01932289523908322,-0.5587285221432632,1.0248793095901425,0.9556106098469678,-0.4260656266992289,-1.904668894934111,1.9255589833060922,-0.6111253691194141,-0.5108922791970031,-0.18534543309207346,0.15489082911354132,-0.016686325807951558,-0.7608414104278075,-0.5206574550529531,-0.9476008765428905,-0.00893939215243323,-0.780197623891123,-0.4766007651968622,-0.899840970586233,-0.0770996452136066,-0.6229293821965333,-0.45865499671872634,-0.4778461861273643,-0.5288432463859272,undefined,1498153686474
903d185fccf839df,0.017936916446277203,-0.581035106685872,0.973837936394048,0.9472588526574599,-0.38415140984109797,-1.930879824370479,1.928349208447347,-0.6181421528230834,-0.46779409231962155,-0.34311320809400714,0.1809502360296145,0.0003504808798873425,-0.7608414104278075,-0.5317674842105417,-0.9518114190327791,-0.006918789606897612,-0.7887259370337719,-0.48208509476475697,-0.8979448345756198,-0.08743200198690412,-0.6267639311260187,-0.46076105505887827,-0.4792392011767339,-0.5265534109322688,undefined,1498153687238
903d185fccf839df,0.09000967696431579,-0.5904274051117989,1.0063766148504225,0.9653322297119266,-0.41872163616101943,-1.943802443247629,1.9397730862161646,-0.5836911522980421,-0.4375548077872576,-0.3167629105927487,0.21649013820805574,0.005694317603198011,-0.7608414104278075,-0.5326933609844601,-0.950758796294216,0.02339033337030128,-0.8058332137927027,-0.4723703587317777,-0.8946353428535567,-0.07976357731241207,-0.6194871096348541,-0.4601002037541015,-0.4536271294456381,-0.5152119473467894,undefined,1498153688008
903d185fccf839df,0.14545027790376536,-0.5986455712435098,0.895362733644647,0.867189070743722,-0.3707388608149123,-1.9397751884682553,1.9255747631743956,-0.6626714691949915,-0.45365406581886175,-0.2755635159784086,0.2094380380475382,0.006821722339103426,-0.7521376448306596,-0.5447291374082216,-0.9412851106625771,0.0011636205752448628,-0.80869879889659,-0.4832630220119185,-0.8922844142583007,-0.08222732774915484,-0.6267479432622721,-0.4456116077995207,-0.4832097627532081,-0.5107140074002919,undefined,1498153688771
903d185fccf839df,0.0983257567536103,-0.6456068295492055,0.8857924444032607,0.8664259274265443,-0.46757869749785036,-1.9499073789399974,1.9118471796664682,-0.8063513588903712,-0.42992267369239284,-0.08869330140472448,0.18111091780462155,-0.04634094141660417,-0.8174158868092692,-0.541025824574166,-0.9497061588311855,0.021369702560044123,-0.7819165185708649,-0.49228746708993876,-0.8874006402419118,-0.08867927659308336,-0.6307221091207286,-0.4458877154437684,-0.46070535459839274,-0.5015222670711281,undefined,1498153689485
903d185fccf839df,0.10386987895729279,-0.6503029495341766,0.8468739119685612,0.8358327305022208,-0.5470665643071604,-1.9465625920410807,1.929046111079061,-0.7071686067899818,-0.4163444798759296,-0.16586072507740382,0.1547451721638789,-0.008513801524030501,-0.9175091911764707,-0.5354708229461463,-0.9444430156894351,0.04157579867720415,-0.7819165185708649,-0.4943140086736009,-0.8836573465207626,-0.08215033552192326,-0.6295172376315668,-0.4522105493719906,-0.45131285782587177,-0.5036358748928457,undefined,1498153690246
903d185fccf839df,-0.00146726972874333,-0.6638043237189608,0.8105074227799716,0.8827706456885082,-0.5648711040382697,-1.9462830833154576,1.9288620237890841,-0.7264907258685913,-0.4044664083810508,-0.09166498350182652,0.1704461259174993,0.032278528506881156,-0.8696384803921569,-0.5336191859552804,-0.9444430156894351,0.017328511601333654,-0.8119322476226949,-0.5002163121809301,-0.8853085936674442,-0.06357980990983235,-0.6301511723099533,-0.4542947864036791,-0.4545744811809129,-0.49723502793026625,undefined,1498153691046
903d185fccf839df,-0.08601414993072369,-0.6614562491124791,0.7090635766786331,0.7801744278637414,-0.5834573574124764,-1.948253619836016,1.9133224978382906,-0.8374643798954261,-0.39816914115178,-0.0773087422606515,0.1499967106471236,0.048556660463365674,-0.7913045900178254,-0.5502841908393394,-0.943390363501937,0.02136973082476566,-0.8112542068155362,-0.5160360055424219,-0.8781368629348103,-0.05090688999411654,-0.6332302899778458,-0.44772973022317625,-0.4776473480761078,-0.4947158643253299,undefined,1498153691795
903d185fccf839df,-0.018099429307332358,-0.6503029495341766,0.7920052363141503,0.7881414049864574,-0.5971579071400479,-1.941703798798414,1.9303662724178112,-0.7255807809049907,-0.38242326824211753,-0.007286118251389804,0.19442149732166297,0.03676870887778598,-0.8174158868092692,-0.5363966738185156,-0.9465482538043274,-0.01095999469796885,-0.8171440422077765,-0.5144084391225289,-0.8669069813859873,-0.01145607262610729,-0.6221681982740987,-0.4434775022432376,-0.49788591856988296,-0.49175045714795446,undefined,1498153692479
903d185fccf839df,-0.06383797166468139,-0.6902200132484194,0.8315619066288519,0.8477799592288856,-0.64555211227219,-1.9330250533449205,1.9163757022783883,-0.8218396114976909,-0.3717358525693725,-0.005347051317839719,0.17587391796062,0.023304474507805376,-0.8696384803921569,-0.5447291762605452,-0.9412850885758758,0.0031842372531412496,-0.8171440422077765,-0.5136864836208195,-0.861288542209196,-0.015182496881827065,-0.6209890859200068,-0.4463288080800609,-0.4902904856861656,-0.4980547249091912,undefined,1498153693234
903d185fccf839df,-0.08601421894154317,-0.6902200570904079,0.823267384873571,0.8762436289914888,-0.653996669330718,-1.9386455074031974,1.8935042800808624,-0.9917890665978133,-0.32282344215943237,0.048733713626006724,0.18643881018487135,-0.038934587303575054,-0.9218610739750446,-0.5660233578018038,-0.9139166396950544,-0.017021830599297242,-0.8338662096608356,-0.5141107904762482,-0.8601900429871967,-0.014289386803620971,-0.6209932594234132,-0.4517339720053308,-0.49035510788087006,-0.47866659346297646,undefined,1498153694085
903d185fccf839df,-0.06383793715927165,-0.7172227177759994,0.8832406552941002,0.900430677446564,-0.7252456942305843,-1.9279775920554103,1.8896831698868155,-1.02735117624858,-0.3153402282087179,0.17757338344205695,0.13695623318537628,-0.035912720728271216,-0.8304715352049912,-0.5706525085574541,-0.9202324497487705,-0.0028775845158263745,-0.8338662096608356,-0.5205830585989528,-0.8640242953292646,-0.019001310921712235,-0.6249898462745184,-0.46238798744716225,-0.4878453459536888,-0.4655659995272456,undefined,1498153694737
903d185fccf839df,-0.20243943950789556,-0.7095915228004214,0.964267901289611,1.0151167767333804,-0.7201851307035054,-1.9218353883833394,1.868287069003678,-1.1520397471408015,-0.2896743562403135,0.22966646433144303,0.12079254470590005,-0.0280850049447966,-0.7913045900178254,-0.5863916884706929,-0.9276008530921144,-0.025104269046161254,-0.8194784386653242,-0.5341862212857907,-0.8665711348003452,-0.0038492408314256044,-0.630408913964759,-0.4602692651155822,-0.48040534485184483,-0.46124314168420283,undefined,1498153695491
903d185fccf839df,-0.21075551929719008,-0.6978512228379936,0.9968065797459855,1.056652804274987,-0.7801198858922828,-1.9232119683791924,1.9154026718542734,-0.8612073542179866,-0.303594558757839,0.17791890719699852,0.1080900917113559,-0.08812406158736566,-0.5214878565062389,-0.5873175134415132,-0.9286534831929112,-0.017021816466936474,-0.816521158685238,-0.5494866134318364,-0.8671378764874731,-0.007390883687940792,-0.6392729031926453,-0.46073243451993307,-0.4776980551311143,-0.4486713960630579,undefined,1498153696273
903d185fccf839df,-0.31609256446699696,-0.6878719678699301,1.0121188392226441,1.1250986613814122,-0.8396329293049527,-1.915802658268173,1.8933990827047076,-1.0114627504343199,-0.3030403201186282,0.1864763044024362,0.11956382209366928,-0.08366525989584073,-0.4083389037433155,-0.6447191926141252,-0.9486535213681548,-0.004898172929001225,-0.8351839353667599,-0.5554712455834652,-0.8699366009482512,-0.017615451814295118,-0.6455143880606568,-0.46019177794358807,-0.4838685717743248,-0.4549471060842313,undefined,1498153696992
903d185fccf839df,-0.36044509352613024,-0.6878719678699301,1.00829052021653,1.1120326687344992,-0.8808682899864999,-1.9110230596631317,1.910219322418536,-0.9013390003806045,-0.31018192905681796,0.18395706337960496,0.09879939957475263,-0.07825001384657161,-0.4083389037433155,-0.6391642168876546,-0.9149692697958512,-0.01095999469796885,-0.8524714550416878,-0.5622284966035123,-0.8598402028348547,-0.044501139286686996,-0.6516983544929003,-0.46119758937488103,-0.4789293059034601,-0.44966616911154234,undefined,1498153697762
903d185fccf839df,-0.3354968541582467,-0.7060694328116931,1.0669875148770551,1.1120026195405124,-0.8970991198211793,-1.9213159678035425,1.9179693589872702,-0.8605695228731068,-0.31388415820819887,0.20647198603514963,0.06294904146068267,-0.1554656871927314,-0.9175091911764707,-0.6363867160736447,-0.9118113500445256,-0.053392803610185294,-0.8700470012509071,-0.5831208777232517,-0.8578391149363592,-0.07127903500234224,-0.6663884869797894,-0.4593974749660405,-0.4878313325547566,-0.4587150782350972,undefined,1498153698485
903d185fccf839df,-0.4089555244582719,-0.7119395827929069,1.3202784423958243,1.286490327092475,-0.9909458194001144,-1.9213276140354207,1.899231988882118,-1.0118083425186062,-0.29818218818806275,0.1445617496845438,0.06874790963864563,-0.15520517419707028,-0.6085255124777184,-0.6465708684573148,-0.9139166176083531,-0.05945456884970984,-0.875524469837644,-0.6068947476514646,-0.8577341629995404,-0.09506963430730202,-0.6801999083921227,-0.45803110358840665,-0.49470821067891635,-0.45957951245811757,undefined,1498153699228
903d185fccf839df,-0.45053595791015416,-0.7084174928041787,1.1052686718426006,1.1606029517792325,-0.9839309742479382,-1.9264635869669957,1.940130731107046,-0.7461445829420327,-0.2907637610840976,0.06177180392015875,0.07382726071736523,-0.11531558205756667,-0.6389886920677362,-0.6465708684573148,-0.901285026949856,-0.11401096477041846,-0.8794051775687054,-0.6190983302838988,-0.856026941243504,-0.10801972634874954,-0.6879761702788287,-0.44685273456010915,-0.5151090854821713,-0.4536198923898031,undefined,1498153699981
903d185fccf839df,-0.4657822767175761,-0.7031343578210861,1.1052686718426006,1.1606029517792325,-0.9867595431120845,-1.9242973944554274,1.9339769847169836,-0.7852323224217971,-0.2739715348306587,0.09663369062719052,0.06386789426569778,-0.09282519964460648,-0.4866727941176471,-0.6789750532546127,-0.897074499184435,-0.05541333549391707,-0.882716081643299,-0.6321821920210506,-0.8516049567449759,-0.07594476506301405,-0.68766220773111,-0.4464883726497767,-0.5124167240476836,-0.44972586198718784,undefined,1498153700753
903d185fccf839df,-0.46301021561573485,-0.6837628628830803,1.2181964584144835,1.1665237541865474,-1.0006555216815427,-1.91451226071005,1.9145479789196973,-0.9047350419909875,-0.2882200503124829,0.12013055780852491,0.05268596371695414,-0.08072413748017207,-0.5214878565062389,-0.7058242364238909,-0.9054955620775109,-0.05541333549391707,-0.8817167363911995,-0.6481222109968229,-0.8464063264226483,-0.07548281129575617,-0.6945063626650917,-0.439448345318028,-0.5362027991716651,-0.43505036256816093,undefined,1498153701521
903d185fccf839df,-0.4657822767175761,-0.6773056979037451,1.225852588152813,1.1780064471987437,-1.001169809362203,-1.9171512887651758,1.9339980210496492,-0.7788850001661637,-0.30065782088544746,0.0630953810960076,0.04017003281132524,-0.08493646619678773,-0.8696384803921569,-0.6984175719034562,-0.891811348680451,-0.004898158796640457,-0.8783841747127427,-0.6437714783416447,-0.8409558105111513,-0.059745599861179166,-0.6864157278610703,-0.4274119189053151,-0.5361339313166408,-0.4198332622928639,undefined,1498153702250
903d185fccf839df,-0.5752773272766205,-0.6720225336926603,1.0969741500873196,1.1041214099206678,-1.0059526590832466,-1.9354940483456016,1.9517202807327036,-0.6788915404549054,-0.29906568368522357,0.0022248403869527533,0.014614458047477274,-0.058526025327738686,-0.9479723707664884,-0.707675899316306,-0.9065481995405416,-0.017021816466936474,-0.8774184924060534,-0.6500664239915523,-0.8379891624853432,-0.0469340924421302,-0.688550314440325,-0.4249633613052039,-0.5461169687047669,-0.4151174801074191,undefined,1498153702968
903d185fccf839df,-0.5655753031999298,-0.6555861137452614,1.1129248015809299,1.1041214099206678,-1.0628942800007588,-1.9334559641853637,1.9499399053590978,-0.6978419531615772,-0.32172986690655525,-0.02295506758430953,0.0036322088733464378,-0.03746406532182016,-1.013250612745098,-0.709527562208721,-0.892863971419014,-0.019042404880111323,-0.8707559603944287,-0.6561460501654619,-0.8333922577454832,-0.030026599369032094,-0.6883927220756998,-0.42634395679393317,-0.552417773434476,-0.4048995711269324,undefined,1498153703754
903d185fccf839df,-0.46301021561573485,-0.6585211887358684,1.1467392475234097,1.1477765884597138,-0.9989480998101562,-1.9322494179651735,1.9650691840646062,-0.5785716389765317,-0.3090337143639118,-0.03483692688607186,-0.008631603992376568,-0.021367767643452617,-1.030658143939394,-0.7086017242871262,-0.8749692155320653,-0.04328970608834259,-0.8878385983539883,-0.6581915907019629,-0.8310413296395922,-0.044947693019946056,-0.690274892890613,-0.4235814567638345,-0.5554395832631009,-0.412729527873206,undefined,1498153704455
903d185fccf839df,-0.4283597451387021,-0.6784796986719955,1.0963365204812163,1.0479171482217966,-0.9932703939086257,-1.9480509768481173,1.9689954822071118,-0.5695952885304078,-0.33672221324509477,-0.05652298658371208,-0.029367767481748023,-0.021820891939209927,-0.9827874331550802,-0.7058242364238909,-0.8728639479682379,-0.039248444467828277,-0.8708313482451758,-0.646279323240612,-0.8300687731846506,-0.021064704253916485,-0.6821406097773941,-0.4117812526756591,-0.49825616090287816,-0.40135724451283317,undefined,1498153705270
903d185fccf839df,-0.39648147378514953,-0.679066713670117,0.9719242851648898,1.0426758144681139,-0.9588647362366675,-1.9493646677361836,1.9561646601090048,-0.6470614316537574,-0.3283385638924869,-0.16891112139852876,-0.04616179070140323,-0.012420357773506495,-0.9610280191622104,-0.694714220217077,-0.8770744757336589,-0.019042390747750555,-0.8568320590767493,-0.654347493540976,-0.8292431498070558,-0.012811136740817441,-0.6836185881866,-0.4173126266500504,-0.5169488720758824,-0.41147611099829157,undefined,1498153705974
903d185fccf839df,-0.4172716732583858,-0.6802407436663597,0.9999967608720974,1.0764303890028526,-0.9422739080999267,-1.951221071675052,1.9601461888380958,-0.6200821574939305,-0.3151354873720007,-0.12562927055199416,-0.06086174285051308,-0.02230255131203048,-0.9305648395721926,-0.6743458895481879,-0.8654955372626602,-0.015001242186122392,-0.8157445711481608,-0.6553227667454877,-0.823281867062468,0.009347227791092016,-0.6779454954411571,-0.4130408281228607,-0.5055376588697046,-0.4001003556998795,undefined,1498153706754
903d185fccf839df,-0.43251788854957857,-0.6872849382578124,0.9719242851648898,1.0069610146593944,-0.8685563166150114,-1.9485564218177391,1.9578792992999547,-0.615043155426456,-0.31044846168043877,-0.20732784385645286,-0.03823163613886511,-0.04790465898389996,-0.8217677696078431,-0.6743458895481879,-0.8654955372626602,0.049658265388789695,-0.8101070976705725,-0.6631882832025218,-0.8263394732381812,0.04942938181280589,-0.6774210800945298,-0.40830893691681636,-0.4821001612217204,-0.388998546008524,undefined,1498153707485
903d185fccf839df,-0.45746616242287186,-0.7313111069589051,0.9795804149032192,1.0255058983160412,-0.8465037813323182,-1.9527560398344295,1.982065628466912,-0.45575708244891544,-0.29284053882378686,-0.2745471893809254,-0.01972026013423373,-0.056164281063500895,-0.7173225824420678,-0.666939225027753,-0.8433902315235892,0.10219407289632346,-0.8184054437434098,-0.655132778800586,-0.8127726567831435,0.0796411320207416,-0.6644837589518274,-0.39540876564620314,-0.47937075492026704,-0.38884477862887445,undefined,1498153708222
903d185fccf839df,-0.4643961253977214,-0.6690874733160495,0.9400234904515682,0.9051525672944857,-0.7887495929954561,-1.9418435541282102,1.9521095052631066,-0.629639062756612,-0.29338275608480985,-0.23906618414788877,-0.02004351986468712,-0.02379952141581319,-0.7956564728163993,-0.6567550596933085,-0.8507586643158682,0.13048253679854366,-0.8260859377213124,-0.6526375989806201,-0.8094421749159522,0.10149152592055005,-0.6591252939646866,-0.3888082326829317,-0.48336018773190126,-0.381554939478525,undefined,1498153708980
903d185fccf839df,-0.4643961253977214,-0.6591082183479859,0.9636302716835078,1.0228324548823169,-0.7768284697497727,-1.9271437252571402,1.9757882807902973,-0.4508520181857814,-0.3310384593436014,-0.25018659939823823,-0.01980519957739549,0.012243320909482994,-0.8826941287878788,-0.6373125539952396,-0.833916516443015,0.11229707149164078,-0.8377703124399354,-0.6480462150525876,-0.8057268683710219,0.10560291016813081,-0.6553309658329965,-0.38815552164322004,-0.4625066018017163,-0.3860027287596494,undefined,1498153709773
903d185fccf839df,-0.46578220770675666,-0.6591082183479859,0.9770281175201599,1.014317042465531,-0.7357576794686452,-1.9340336145419161,1.9836803298886339,-0.39345530928081135,-0.33826718655638327,-0.27858913388090395,-0.03860557027572249,-0.010950267134875255,-0.8783422459893049,-0.6373125539952396,-0.8412849639597617,0.14462676874965377,-0.8335364743007003,-0.6404530162754779,-0.8052720752419608,0.12703754499082903,-0.6481322825202588,-0.38923281356978273,-0.46008325894167373,-0.3778784541076435,undefined,1498153710462
903d185fccf839df,-0.2939163516955449,-0.6690874733160495,0.9291771795871269,0.949317450000785,-0.7605564962947227,-1.9299597743566328,1.9599095107164548,-0.5470503825802411,-0.3503726215135941,-0.2946396455541356,-0.033959755314420234,-0.04430248230721712,-0.8783422459893049,-0.6326833773380401,-0.8276007211137666,0.09613225112735584,-0.8472465230104153,-0.6482932003709159,-0.8037397731767205,0.12743790450512107,-0.6516730083700446,-0.3915899978636345,-0.4510753828126963,-0.38133524183124856,undefined,1498153711270
903d185fccf839df,-0.27174017342950263,-0.6761316679075023,0.8857924444032607,0.8580159385469359,-0.7434308089432082,-1.915627965933436,1.970867913795968,-0.44823372943264045,-0.3735247287184612,-0.3345126238431618,-0.04611574373501784,0.01924445290048011,-0.9392686051693405,-0.6271283498084713,-0.8581270676592121,0.039555238528750834,-0.8360743518052632,-0.6398007232040499,-0.801444819166351,0.12529752006305706,-0.6465151014752657,-0.4035079760086008,-0.4567292885911131,-0.3983771284319995,undefined,1498153712021
903d185fccf839df,-0.3895514072940708,-0.6561731287433828,0.8972766390107546,0.9281535833069829,-0.7682501948067489,-1.9089523664700563,1.9718462038270093,-0.441353444281528,-0.3717721297344282,-0.3276709475635455,-0.06411357185667022,0.026052734308746345,-0.9653799019607844,-0.6187958732679909,-0.8676007753775524,0.03753462185085445,-0.8459072951194954,-0.6352600023991131,-0.8013608573807773,0.14565426583156016,-0.6407120349855914,-0.4067549140804244,-0.45853113589484823,-0.40042394187038377,undefined,1498153712810
903d185fccf839df,-0.2897583463063074,-0.6761316679075023,0.7639322523330438,0.6849607939918912,-0.7392959568452521,-1.9150363395444876,1.9649166669864546,-0.4887096707452525,-0.3738849665120453,-0.3192628361105631,-0.06513103411139802,0.06691648999050265,-1.0088987299465242,-0.6178700223956215,-0.8760218309083946,0.021369744957126426,-0.8604132484665057,-0.6277301327597974,-0.7919921277147796,0.15749567012397064,-0.6346043768521409,-0.4002772489862547,-0.455059842487654,-0.40607401053700437,undefined,1498153713473
903d185fccf839df,-0.27174017342950263,-0.6614562637264753,0.7122532495308461,0.7379921354746563,-0.7419290945188999,-1.8978162740526172,1.9461898181902002,-0.5949478754672964,-0.3920125002127297,-0.3519116954325035,-0.033981284067561075,0.09443552734929318,-0.9566761363636364,-0.6224991990528209,-0.8570744301961816,0.04157574214776108,-0.872913484713434,-0.6236010536371644,-0.7897741381958592,0.1683669731744661,-0.6295160408048619,-0.39972513174572166,-0.45925000836668556,-0.41838599123333536,undefined,1498153714236
903d185fccf839df,-0.4477640003245421,-0.6503029787621689,0.7122532495308461,0.7379921354746563,-0.7602067757456306,-1.9013613759419599,1.9489695209750348,-0.5844519856101378,-0.3985644671001193,-0.4159714160569159,-0.02747006446964573,0.04508224173206683,-0.7477857620320856,-0.6252766998668308,-0.8370744214698731,0.06380244081045672,-0.8646162406805779,-0.6045135609505718,-0.7822245792660415,0.17868393166386481,-0.6168358989901209,-0.3918144990054383,-0.4558226215301435,-0.4136854068349775,undefined,1498153714974
903d185fccf839df,-0.4214297476584428,-0.63386655881477,0.6911987656819657,0.579352567547657,-0.7732798992201853,-1.901005002412753,1.9505973708903146,-0.5778192644127502,-0.37147662176880675,-0.5073941146528903,-0.007933113641037763,0.06894432297384616,-0.6650999888591801,-0.6160183595032065,-0.8528639245174618,0.07794675755573142,-0.8297933313651518,-0.5992192200805655,-0.777529719051567,0.19634594908886094,-0.6088669411614406,-0.39702060685060087,-0.4571525979261272,-0.42271629624987556,undefined,1498153715755
903d185fccf839df,-0.4242017742548743,-0.6051027654508374,0.6650404494778152,0.5636088696363959,-0.7824958842467783,-1.8979234185157252,1.9272736209257593,-0.7245725680373843,-0.3625100555344419,-0.5549369740880715,-0.0020257956892756604,0.02191573356055451,-0.6302849264705882,-0.5891692151862519,-0.8570744890940518,0.09613225112735584,-0.8199156915414159,-0.5911700486167702,-0.7659010191849006,0.22067549263820993,-0.5975235702386273,-0.39204419383981726,-0.45045133381624564,-0.42015666356529063,undefined,1498153716457
903d185fccf839df,-0.4061836013780696,-0.6174300804113866,0.818801690398303,0.7447804108189396,-0.7714799012682007,-1.8979583569286718,1.9493561041792347,-0.5774092567427093,-0.37180820974190376,-0.5059992287292985,-0.00786427359007933,0.0021441181317739828,-0.6302849264705882,-0.5780592119302125,-0.8612850094972391,0.12240012661640119,-0.8092871577883177,-0.5730831616070188,-0.7563223859450011,0.24175596445417621,-0.5816688454962655,-0.39911117139942437,-0.46302090850231514,-0.42761719927169795,undefined,1498153717240
903d185fccf839df,-0.44360596042989486,-0.6180171246375002,0.8698425553204986,0.898594924751918,-0.8020489932906397,-1.903497287911056,1.9124651876705117,-0.8362692665965785,-0.3803199068440903,-0.441967341189702,-0.035931861640691294,0.05143719278628735,-0.6999150512477719,-0.5613941422922807,-0.8518113165033664,0.10017345621842708,-0.8023855922367207,-0.5680611370715271,-0.7614160642020514,0.24318802045956003,-0.5822103168655773,-0.3970502127597367,-0.4619397380589357,-0.42548636828380987,undefined,1498153717977
903d185fccf839df,-0.3923234338905023,-0.6168430654132652,0.818801690398303,0.750662478735624,-0.7906935843043122,-1.8905094505795343,1.9174565588345993,-0.7910001016217902,-0.3848875764370966,-0.4029542267575283,0.0035361172449164323,0.04564903314415954,-0.6955631684491979,-0.5410258116233915,-0.8623376616847374,0.09007042935838822,-0.7860004446093809,-0.5727791797236175,-0.7569171147410603,0.2834241580202999,-0.574459560125871,-0.3914503134586486,-0.46562180811228887,-0.42160373841011833,undefined,1498153718774
903d185fccf839df,-0.34658496054397275,-0.5927754504902882,0.8347518336180144,0.8620804044486229,-0.7835655973629416,-1.885671620731744,1.9059117111539754,-0.8591276016693146,-0.3989767601812813,-0.35516801297184125,0.04064309288032872,-0.11148288712637702,-0.7086188168449198,-0.5141766802572114,-0.8581270971081473,0.10825586640056956,-0.7949551014950781,-0.5642677026460694,-0.7676992002592005,0.27433907668784474,-0.5744814365664127,-0.39453469481314596,-0.4738807096484309,-0.4228273197858163,undefined,1498153719466
903d185fccf839df,-0.22600166557756335,-0.5663597755748259,0.7913665901602494,0.7447804108189396,-0.7683016220536186,-1.881772474207659,1.898203750393138,-0.8994512542253996,-0.3897331046158349,-0.34820707019067515,0.013865752492438087,-0.14975525610310636,-0.6128773952762924,-0.5002891761871622,-0.8528639245174618,0.10421471783894139,-0.7910001720730552,-0.5528050742245699,-0.7687557186159398,0.27934357168674717,-0.56899683211387,-0.3924690770924309,-0.4731930707712747,-0.43174327597420453,undefined,1498153720243
903d185fccf839df,-0.2440199074651876,-0.5763390305428895,0.8156110009982922,0.8561983365319386,-0.8157906869846722,-1.880470429620331,1.8907982102217273,-0.9552086154160061,-0.35286647673576843,-0.3552240780608093,0.01816942811163197,-0.16773339658566952,-0.3038937165775401,-0.4901049849511685,-0.8591797198467104,0.11027659613735208,-0.8166848783849495,-0.5560095439357235,-0.7748779282859589,0.2565384732672944,-0.5765242932092377,-0.3980341818502565,-0.46870965285699895,-0.4379863837486759,undefined,1498153721093
903d185fccf839df,-0.25510804835632334,-0.583383210520346,0.7932810038002558,0.7738250878638712,-0.8258398119249781,-1.8697652464088161,1.893520060472927,-0.9252891465229532,-0.34273205817236174,-0.45162471480162975,0.03598544697556232,-0.10457047195186894,0.057312555704099835,-0.4688107516068118,-0.8570744596451167,0.16281231885072123,-0.8049633855865425,-0.543090339631124,-0.7752977367428135,0.2700891061216144,-0.5677341641776833,-0.40175674087801105,-0.4689370983557558,-0.436478947629435,undefined,1498153721797
903d185fccf839df,-0.22600159656674387,-0.586318285510953,0.8424079633563437,0.7023703692813322,-0.8168809686901817,-1.8879263239050281,1.9393417989718877,-0.6393342911943687,-0.3636914652228003,-0.4809112513110716,0.027982523688979223,0.014218172148329997,-0.1863928810160428,-0.46232991205719726,-0.8465481365504471,0.15068867531278599,-0.7953540283661961,-0.5409624702676137,-0.7783063657501061,0.25724680183859755,-0.5690728178329768,-0.40118598965284014,-0.45655020322063505,-0.4479591793277601,undefined,1498153722540
903d185fccf839df,-0.14145478537558298,-0.5939494804865311,0.8666523741943867,0.8620804044486229,-0.7739690391012888,-1.8923192690798756,1.9103850042268329,-0.8179679092132246,-0.38500924773089307,-0.4732406376453816,0.03335111900181771,-0.05101238512485633,-0.1863928810160428,-0.46232991205719726,-0.8633902402498976,0.14462685354381838,-0.7878290281932558,-0.5444455892791059,-0.7821616086165599,0.27048946400696683,-0.569917833988059,-0.40455301784253506,-0.4551433903252562,-0.44927251060623535,undefined,1498153723244
903d185fccf839df,-0.15531495286315025,-0.5951235104827738,0.9419373958176758,0.9235000479665452,-0.7546627852219431,-1.884772533814683,1.9174670675732357,-0.7570852190320442,-0.3952451527349319,-0.6000417852621261,0.04596074598838884,-0.15874270065751228,-0.3822276069518717,-0.46232991205719726,-0.8539165472560248,0.1365444433616759,-0.7992282627590553,-0.5489356462744001,-0.7751088230326552,0.29686700144686257,-0.5649500918038715,-0.39877946780866164,-0.4788900796277553,-0.4377356016971666,undefined,1498153723996
903d185fccf839df,-0.07631209134862316,-0.58925336050156,1.052313647417348,1.0651758922271943,-0.7097965747121359,-1.8888580191989446,1.936683055623641,-0.620694873854555,-0.3673567816522564,-0.4575582852281865,0.032797366738422346,-0.11427750425972173,-0.6302849264705882,-0.4614041000371516,-0.8528639392419294,0.12037956646794787,-0.8102448152309432,-0.5422480580445175,-0.7721561690139751,0.30094758885740003,-0.5578626577918557,-0.4141460982842132,-0.5212017076409804,-0.4383129561361167,undefined,1498153724761
903d185fccf839df,-0.06383797166468139,-0.5798610913036254,1.0389150391698474,1.0372793129601252,-0.7062068662236526,-1.8929994069659202,1.9305713818989094,-0.6638775510189482,-0.4006976056778696,-0.4075224925399281,0.03419693186875731,0.050488796423731316,-0.7651932932263815,-0.46973660247918114,-0.8465481291882133,0.08602922426731698,-0.8102448152309432,-0.5306904357613005,-0.7697422694756185,0.3108795861164055,-0.548746707534868,-0.411562511840866,-0.5039518270399106,-0.43419150529995043,undefined,1498153725460
903d185fccf839df,0.02070894304270871,-0.5757520155447681,1.0082907743534795,0.8753030208245244,-0.6060036034943237,-1.8780619959782228,1.9453351153041665,-0.518360097734951,-0.4024841681094308,-0.46799092939065035,0.04450078296996532,0.08534716247679056,-0.9392686051693405,-0.4678849395867661,-0.8465481291882133,0.08804984094521337,-0.8027354183064799,-0.5290692015763916,-0.7626754904779405,0.3120190703524661,-0.5462877468653252,-0.4153818233497141,-0.5232836420938187,-0.43838362490477917,undefined,1498153726248
903d185fccf839df,0.09278177257156676,-0.5581415071451418,0.9744760742740501,0.9129472249763434,-0.6118047353997011,-1.8725719792780917,1.9352419217542802,-0.5743615782351519,-0.41737233672417046,-0.46488844437062427,0.023281653247434763,0.05291979976925543,-0.9305648395721926,-0.4586265862723672,-0.8412849860464631,0.1325032100058831,-0.7748635690943655,-0.5204373994382296,-0.7595409188626338,0.3096631065971693,-0.541403880998663,-0.41209132006773386,-0.500779404148895,-0.443599497020003,undefined,1498153726977
903d185fccf839df,0.08446555476063332,-0.5346608779922939,0.9074848119951937,0.7764445776442868,-0.5870676331119471,-1.8498176413031122,1.9395232449356612,-0.5025487641462361,-0.43773070842388245,-0.4591489542578507,0.03265641054850893,0.028131575391860807,-0.7956564728163993,-0.4521457596735272,-0.8402323338589649,0.1749359623886565,-0.7516484254440607,-0.5167199623024171,-0.753565642245493,0.32655520209987127,-0.532445014785602,-0.4329531731799969,-0.5219693909835771,-0.4384013744183724,undefined,1498153727765
903d185fccf839df,0.10664190555372428,-0.539356997977265,0.8366654848471726,0.7842422776717579,-0.5720402307490078,-1.8590181359717364,1.9288488569638953,-0.5650836049960767,-0.45049898926745313,-0.43899403819554633,-0.012230319051627584,0.017287954125524477,-0.8391753008021391,-0.45029408383033764,-0.846548143912681,0.16685352394179248,-0.7487131089974831,-0.5123882282955611,-0.750144201231316,0.31885597953827555,-0.5275318525578231,-0.4298440013014636,-0.5143045820779693,-0.4369717151669057,undefined,1498153728490
903d185fccf839df,0.10664190555372428,-0.5510973271676851,0.870480184926602,0.7790555039755489,-0.5777487929434457,-1.8462818560209047,1.928688442618939,-0.5470683722539549,-0.4485510401370215,-0.5333655303392247,-0.022196240103959985,-0.006311573322569379,-0.7913045900178254,-0.4410357434667133,-0.846548143912681,0.21534818288769808,-0.7238953634691582,-0.4984557514633855,-0.7500952241730025,0.3392743194655087,-0.51597646815106,-0.43756469487907246,-0.49674113869225056,-0.4375566320156193,undefined,1498153729248
903d185fccf839df,0.09278177257156676,-0.5839701962904751,0.8857924444032607,0.8008684235924086,-0.5589259679992141,-1.8623466186505133,1.9584262863738924,-0.3585270791815532,-0.4319692113482559,-0.487353783149767,-0.05320322515898498,0.07176423799283711,-0.8565828319964349,-0.4401099055451185,-0.8402323485834324,0.26384275703943905,-0.7247514579267743,-0.4897352869344303,-0.7438400755551061,0.34738930088881714,-0.5076757814711569,-0.42864680155515433,-0.5020342822869469,-0.43071706471036403,undefined,1498153729979
903d185fccf839df,0.09000974597513527,-0.6133209754245368,1.0555035744065104,1.0731495840640888,-0.5287785905696165,-1.8754998325812597,1.9327067854539557,-0.5365610534181623,-0.4060231770965265,-0.48220924340777416,-0.043637415908030136,0.09232449049440719,-0.7390819964349377,-0.4410357434667133,-0.847600766651244,0.27798690419638455,-0.7036127288449969,-0.4864991527429663,-0.7492066298217217,0.368639154096914,-0.5042550296016667,-0.4201185619573646,-0.4981511172211724,-0.4299687374231326,undefined,1498153730779
903d185fccf839df,0.1343621370126296,-0.5857312705128316,1.0503994879142908,1.080689409587486,-0.47944838562261327,-1.8774098091729967,1.9421530499705897,-0.458103057915803,-0.3891874322350731,-0.5416701027319973,-0.0546417177947984,0.06987762168425196,-0.6650999888591801,-0.4484424209379226,-0.8212849625956871,0.29617245429745204,-0.6612586976474456,-0.4779053480786221,-0.7350940622773467,0.407227658735328,-0.4909345140817771,-0.39695512340253325,-0.4631105483364329,-0.4195156148960844,undefined,1498153731469
903d185fccf839df,0.14406423010013986,-0.5716428521019337,1.2233005449067031,1.334301290919071,-0.41536849273686666,-1.8766225265320953,1.94164812770557,-0.436866599394279,-0.40502215146641574,-0.5470309830858221,-0.07528418099297038,-0.03109865758565415,-0.6520443404634582,-0.44473913400541615,-0.8170744274680322,0.34870820527554275,-0.6272308224687523,-0.46504947275678976,-0.7374939679859699,0.470299690690976,-0.4719402504324599,-0.4092468781154064,-0.4596507585564398,-0.4209361616819685,undefined,1498153732233
903d185fccf839df,0.15515233648586588,-0.5757519863167757,1.2609430557183479,1.392173090966536,-0.400258807822407,-1.8694112020404534,1.949608546456352,-0.3697926870747081,-0.4151240066322096,-0.5823728665257681,-0.05338917059822473,0.006997824615906213,-0.6520443404634582,-0.4419616072898572,-0.8033901993465046,0.2921311644122162,-0.6268706371875195,-0.45874186100913394,-0.7303432276492635,0.4529302445237356,-0.4678814709536177,-0.41471537697214167,-0.46693239896498584,-0.4389738919592685,undefined,1498153733032
903d185fccf839df,0.11911599073225633,-0.589840346271689,1.2915678288086145,1.2509164346455666,-0.4079627950302529,-1.8628078089679108,1.9074816865376625,-0.6434331849957436,-0.37326732635089727,-0.5054264989923024,-0.09967341231449656,0.11377148391693813,-0.6128773952762924,-0.43085161698459234,-0.8233902375217482,0.31839903990126156,-0.631237420316815,-0.4434794669459393,-0.7299444094476442,0.47331778699465904,-0.45676765506775413,-0.39255229484552995,-0.4219940776827113,-0.4142030159625884,undefined,1498153733799
903d185fccf839df,0.11911599073225633,-0.5634246713562265,1.2118163502992092,1.2430299268304426,-0.43490103517589845,-1.8697466124968853,1.9164282904912477,-0.5952203498490206,-0.36004982999875407,-0.6906057014711405,-0.1028779429811642,0.1257476276098542,-0.5780623328877006,-0.4002990821289349,-0.7981270267558191,0.36891425899562047,-0.6415493238542055,-0.4381661270732641,-0.7313507690272111,0.5096581183959807,-0.4486380696581976,-0.3903198398503044,-0.4182670018067256,-0.4270518265727115,undefined,1498153734482
903d185fccf839df,0.12743207052155084,-0.5493362529453286,1.3879075884177334,1.4271426840938173,-0.4788415352608447,-1.8523588417704566,1.9340558866773063,-0.4757949797539688,-0.37930778424413136,-0.6094613596119312,-0.08373142835960952,0.03309511989919389,-0.673803754456328,-0.39752158131492504,-0.7876007110233834,0.39922345263462317,-0.6440673187149253,-0.42789409265000095,-0.728195207144435,0.5473535121753748,-0.4373155672257502,-0.37619122921962267,-0.39353811184712434,-0.4197434879959132,undefined,1498153735253
903d185fccf839df,0.10941389764474606,-0.568707806339319,1.5104059183679523,1.7093923070200456,-0.45131701191440515,-1.8607371150626775,1.9172856121817659,-0.5802621341830754,-0.3541250831646482,-0.5672845693899966,-0.12528743104566248,0.02006163740146414,-0.6868594028520499,-0.3160481938854956,-0.8307586703140273,0.4396355600747786,-0.6202121540226643,-0.4074703488640886,-0.7427905550124414,0.5483698103825682,-0.43087426812079743,-0.3639832026695769,-0.3648124760420176,-0.412164776723017,undefined,1498153735960
903d185fccf839df,0.013778807540810477,-0.6027547054583519,1.669908875386763,1.7231715382038326,-0.46516155898788675,-1.8751644229185298,1.9526512405865304,-0.37067204592225295,-0.3295934995259622,-0.5976816308758001,-0.11399907646613447,0.07073976127875906,-0.6650999888591801,-0.31327070602226026,-0.7907585939635401,0.46994458412545215,-0.6274298678456128,-0.40015579896653086,-0.7350870654725872,0.6061447770373819,-0.41472208026637536,-0.34745098277900216,-0.34385642706808484,-0.3841472074610553,undefined,1498153736732
903d185fccf839df,-0.04166168988240988,-0.5152893830542882,1.5531525156718164,1.637797460867433,-0.5372025828137813,-1.8453222096026791,1.9085599117191272,-0.6444987606292054,-0.3903139107921516,-0.42254660538528727,-0.12266868713511966,0.08610351501950522,-0.9044535427807487,-0.29475401234423704,-0.7907585792390724,0.4719653986563993,-0.6252992787817431,-0.37578029883529923,-0.7302522691017497,0.6279335781920029,-0.400065318654449,-0.35390529406247295,-0.2941440927035374,-0.39298282124907374,undefined,1498153737500
903d185fccf839df,-0.06660996375570316,-0.4888737081388257,1.4657451615610313,1.4271426840938173,-0.5435180008954269,-1.8197890895619904,1.9011675210887964,-0.648053400210844,-0.45808996551119036,-0.35089213687507664,-0.1510859195874318,0.0781754577034218,-0.9088054255793226,-0.2706823170381941,-0.7897059417760419,0.5346040917003643,-0.5643521943010121,-0.37452637675123557,-0.7494235309650158,0.5469377538386918,-0.4169876508578243,-0.3533543173724748,-0.2722667665975928,-0.34273956256792143,undefined,1498153738193
903d185fccf839df,-0.04166168988240988,-0.49004773813506847,1.379613320799402,1.4027978221706274,-0.5438574293358107,-1.8198310154792152,1.914014123055207,-0.5696897015634896,-0.46336321641497724,-0.3598009686333572,-0.13419338169729494,-0.026828176606387942,-0.9262129567736186,-0.2595723267329293,-0.8307586555895597,0.5265216249887786,-0.5677865719150191,-0.3775155261448178,-0.7503541072214569,0.5357276839383182,-0.4198080194536746,-0.3632031834940923,-0.26551662063780745,-0.3582825981052316,undefined,1498153738967
903d185fccf839df,-0.047205743075272893,-0.5205725472653729,1.2698757153536309,1.347424195682286,-0.582500793267378,-1.8131740500346805,1.8781356782611835,-0.8114145796138471,-0.47526354260900006,-0.25753862872009575,-0.11735842315064027,-0.024261677448352784,-0.9175091911764707,-0.25216564926171997,-0.833916553254184,0.5346041199650857,-0.5694574099151345,-0.39290457851128374,-0.7501931807976246,0.5154171336003898,-0.4303598593066314,-0.35570439063310866,-0.26342507133449844,-0.34791380497502383,undefined,1498153739753
903d185fccf839df,-0.05413580956635165,-0.5334868772240434,1.2520111584939129,1.3604555256792554,-0.594082490441295,-1.8204296302313796,1.906377165416605,-0.6470679073985985,-0.4977482204139889,-0.21153301015363646,-0.1351772461018983,0.07964564776901295,-0.8783422459893049,-0.27345983080297853,-0.8486534041142746,0.4881301907559627,-0.5865466953298174,-0.4029486275047541,-0.7554827698448608,0.4722090967820193,-0.44416524506640803,-0.3536186017225623,-0.2622265734551786,-0.33758273075823125,undefined,1498153740504
903d185fccf839df,-0.23293180107946157,-0.5381829972090145,1.2366986448803048,1.2771004764578904,-0.6648480876343673,-1.8292294955715094,1.8579256234539987,-1.007402922536821,-0.459459926266263,-0.1692892474612822,-0.08506047060491685,0.03680453157033906,-0.7956564728163993,-0.27345983080297853,-0.8518113165033664,0.49419201252493034,-0.5898911962190977,-0.3930059061637886,-0.7610032535470374,0.45283785219519374,-0.4438263663014269,-0.35515228749710975,-0.2428056827028061,-0.34268947841733244,undefined,1498153741214
903d185fccf839df,-0.29391638620095467,-0.5064841580824673,1.0944223609781594,1.2114197027359344,-0.7496330852316587,-1.8293972004726404,1.8761186247659374,-0.9154684586640259,-0.43792323961921487,-0.10862388962398574,-0.09240753555076406,0.04698677857189886,-0.8261196524064172,-0.31419650509153146,-0.8497060268528376,0.4194295063547009,-0.593491888004992,-0.4108838058716228,-0.7557766356080624,0.46015211360716995,-0.45023024020122626,-0.3591080905468581,-0.23772831604970732,-0.3455964914894567,undefined,1498153742003
903d185fccf839df,-0.2772842266223656,-0.5023750530956176,1.0880422528628848,1.170847768463784,-0.7175314237283257,-1.841169176026046,1.8962918665147186,-0.7938833110067571,-0.43823590361950987,0.004777385292720077,-0.08513447623193028,-0.015995738385976243,-0.7651932932263815,-0.31419650509153146,-0.8507586790403358,0.3931616308656556,-0.5981043372953446,-0.40984520308638395,-0.7684758473675827,0.4386712826538564,-0.4579234296911077,-0.34747040234496257,-0.2407183528926615,-0.3527112488258392,undefined,1498153742828
903d185fccf839df,-0.2689681123276614,-0.4929828131256754,1.083576050113718,1.1325351942073922,-0.7248856984091688,-1.845475939152766,1.8877791858940052,-0.854494659959831,-0.4496128987494928,0.0371958413975731,-0.07542293443296369,-0.06912836618065588,-0.7129706996434938,-0.34752652781042415,-0.8697060503036137,0.38507910762462694,-0.5998474227957112,-0.4228530688903737,-0.775409686371366,0.4163743333245381,-0.47015872704842787,-0.35167494568241925,-0.2567159940798886,-0.35609171166913983,undefined,1498153743495
903d185fccf839df,-0.31886466007424796,-0.4929828131256754,0.9623539959235035,1.0035018149404855,-0.7730947600223653,-1.8490746142676022,1.865194406512647,-1.0191376773482321,-0.42181440503336265,0.10834751546082769,-0.08657008900069293,-0.011209044224531754,-0.5737104500891266,-0.34104571416235874,-0.8644428777129282,0.3992233678404586,-0.6150505107148159,-0.4354302956482441,-0.7729118242216325,0.4207320933992996,-0.4728381489011343,-0.3618879944266964,-0.2552770661834671,-0.3675832997497439,undefined,1498153744245
903d185fccf839df,-0.357673032424289,-0.452478719799315,0.8111455606599737,0.9316454918786978,-0.7831644568488764,-1.8569730642401723,1.8477246016769717,-1.1446118138852799,-0.4433205792289847,0.0341623917047262,-0.08952074388873395,-0.031159978341287385,-0.5519510360962567,-0.35956239488960745,-0.8781271205589234,0.391140901128873,-0.6270686618357277,-0.4341890390418219,-0.7762702935036082,0.4303253254642906,-0.4694875215086808,-0.36657543016488225,-0.27300808000092014,-0.36988039258070016,undefined,1498153744974
903d185fccf839df,-0.37707728761012904,-0.5340739068361611,0.8226295011305182,0.9237708414274566,-0.8567483343383088,-1.8694228475819195,1.8440507620481714,-1.2117317703885344,-0.44536579275229576,0.00865690744808012,-0.09581028364151012,-0.06980390875991349,-0.5737104500891266,-0.3484523786827935,-0.8791797727464216,0.4032646294609729,-0.6141722213110345,-0.4384384439171519,-0.7911035327946122,0.43500645405118277,-0.4755817248207077,-0.37000765802439695,-0.25899345485131336,-0.37085153170678675,undefined,1498153745759
903d185fccf839df,-0.4103416067673071,-0.4689151835887023,0.9004665659999171,0.9394370223344446,-0.8728248786673981,-1.865395593512891,1.8576468585254828,-1.1199297339677399,-0.4399896540508764,0.027459280975876892,-0.11057871882464497,-0.0032709393751943813,-0.7129706996434938,-0.38178238845091167,-0.8770744978203603,0.4194295063547009,-0.6452919172337207,-0.44981874335661537,-0.7867725074491868,0.44352179380409973,-0.4804337349737569,-0.3613038767047861,-0.24609588259029047,-0.36820570303852157,undefined,1498153746467
903d185fccf839df,-0.3576731014351085,-0.5886663162754462,0.8692044174404965,0.9360301795721268,-0.8800351542418725,-1.8840062154497945,1.871742622898495,-1.0672266234176926,-0.3874292714043536,-0.0633136700586666,-0.08628451993234885,-0.01846155269749696,-0.7869527072192514,-0.40400239496299045,-0.8560218221820861,0.37497605249986654,-0.6532347727477577,-0.4553854014193195,-0.7800555682062417,0.4016072244646447,-0.49023747258616984,-0.33506334660868586,-0.28060784979248543,-0.38146128827980225,undefined,1498153747226
903d185fccf839df,-0.4172716732583858,-0.5722299255560397,0.7888145469141395,0.8216281177258513,-0.9608704449645973,-1.8904582079047694,1.8714559753684796,-1.1066081360764386,-0.3548786887744426,-0.15823506403841692,-0.046937180462427605,-0.087465680248348,-0.8304715352049912,-0.43733237882955955,-0.8644428997996296,0.38912042577458433,-0.6611182081006789,-0.47706940106900947,-0.7877590572077946,0.4223643291147114,-0.49760543705362764,-0.33998153109118456,-0.3026059640725886,-0.39708831153623164,undefined,1498153747975
903d185fccf839df,-0.3923234338905023,-0.6508899791462941,0.5329720844231594,0.5212867186417364,-0.9674327216156456,-1.94875673668313,1.8774940114536633,-1.1537552252857313,-0.3435490582015134,-0.24064301645798636,-0.03384737443669454,0.01447816381354501,-0.7651932932263815,-0.48454995742159973,-0.8591797345711779,0.3668936140530025,-0.6693996483016378,-0.5067012448123598,-0.8086445374911642,0.40327025716518533,-0.5200674368710722,-0.3272000493389952,-0.2895994548049224,-0.3957691008880241,undefined,1498153748743
903d185fccf839df,-0.4103416067673071,-0.6919810582427836,0.39197156800711924,0.3408975539445887,-0.9966749568416329,-1.971622878144191,1.9061588943479266,-1.0003930592235732,-0.33066399606339963,-0.28662220473815436,-0.015929604521714207,-0.02534007440710229,-0.7651932932263815,-0.5039924890212177,-0.8907587333041217,0.35881126040030314,-0.6678942500607858,-0.5333249400099689,-0.8396613999667817,0.43283527118352305,-0.5318042514187861,-0.3323957777780353,-0.33354896162265046,-0.4357536626188592,undefined,1498153749477
903d185fccf839df,-0.4172716732583858,-0.6884589682540553,0.09721031894449018,0.06724815113270806,-1.0180177777023265,-1.9784568658961306,1.9134539764887333,-0.9633612989615876,-0.32620023454182356,-0.3574261439954398,-0.010976582536851355,-0.062477537917938454,-0.6433405748663101,-0.49380829778522406,-0.8781271279211571,0.31637847975280825,-0.6699160583297017,-0.5465734576294063,-0.852444573248842,0.34309313203800207,-0.5579384736669154,-0.3195307660111941,-0.34965031551899595,-0.4248136942082432,undefined,1498153750260
903d185fccf839df,-0.4103416067673071,-0.7166357466198665,0.020011137818144037,0.0019514726524494988,-1.0153949245634144,-1.9815361200904942,1.913054242172172,-0.9705256053447473,-0.3241624959830909,-0.3659178569522145,-0.00011407891022570076,-0.030101954342690265,-0.6433405748663101,-0.5030666316734611,-0.8833903005118426,0.31637847975280825,-0.6842151661174373,-0.562785793354943,-0.860868733813512,0.3449255467903263,-0.5692542529116205,-0.3214386972379163,-0.34195905355939904,-0.40464582632072604,undefined,1498153750976
903d185fccf839df,-0.37430526101369754,-0.7407033469288473,-0.06675884082348735,-0.05267681405437435,-0.9988863804065655,-1.9826541546613714,1.9367803457815342,-0.8144521100596542,-0.3435360208576481,-0.4489499436926468,0.038712710722004676,-0.03812922304064904,-0.5475991532976827,-0.49380829778522406,-0.8970745212711364,0.2133275662098017,-0.6955582391300675,-0.5809930065326416,-0.8807396762995493,0.31625363945769275,-0.5883443694105188,-0.3507833744363133,-0.40493571572966175,-0.431371251922446,undefined,1498153751765
903d185fccf839df,-0.35628708813689275,-0.6884589682540553,-0.06293052181737326,-0.0751353049871765,-0.9722875678690869,-1.9755359996623354,1.9177694771636844,-0.928839282369222,-0.33944594150578655,-0.47917629144908985,0.027721000763415847,-0.01810234548358178,-0.5475991532976827,-0.5465808003006366,-0.902337686499588,0.2638426439805529,-0.7217389197221701,-0.6117077831520626,-0.8822719778081368,0.3200724539283719,-0.5986441423380688,-0.3628544722890574,-0.47304150925247684,-0.4495726395275998,undefined,1498153752476
903d185fccf839df,-0.41865768655660157,-0.6761316532935061,-0.08589891103236127,-0.0815208262384444,-1.0374577443048236,-1.9620403874302028,1.9150686632451506,-0.9538329584021926,-0.3413893924668076,-0.5467979156880592,0.04152790538916866,0.01245159406821601,-0.5824142156862745,-0.5910208392263433,-0.8991797520237949,0.21332750968035863,-0.7712793232239489,-0.6343227255721593,-0.8883941871111323,0.2698273263698274,-0.6194321885869367,-0.3612282951106396,-0.4867425351249379,-0.44769534158558355,undefined,1498153753244
903d185fccf839df,-0.40063944466897733,-0.6843498632672056,-0.015079583884340154,-0.03889715944548083,-0.9796006976252196,-1.9650171551841495,1.940133347816487,-0.7761176953249717,-0.3564522657393156,-0.5175171452771983,0.030944318108998094,-0.03734756608654864,-0.6172292780748664,-0.5965758602805248,-0.9149692845203188,0.17291531744603855,-0.761352485406645,-0.6416182761459216,-0.8903462971255109,0.2709822098994596,-0.6232512781240502,-0.37601351928325333,-0.5108279138348217,-0.458640786452365,undefined,1498153754026
903d185fccf839df,-0.42420170524405487,-0.6667394133235639,-0.022735713622669497,-0.04749092133233,-0.9700041436186749,-1.9571047291230084,1.9254064389923742,-0.8683153268599357,-0.35732563194853484,-0.4707278078953909,0.050695295948028,-0.00711084599801342,-0.5432472704991087,-0.5937983594665149,-0.9002323968490592,0.11229709975636232,-0.7840755143118946,-0.6384644703385337,-0.8967343854865025,0.2529044358340318,-0.6272362699270664,-0.37432429381796045,-0.5063852233306044,-0.4629080974735414,undefined,1498153754799
903d185fccf839df,-0.37291921321007204,-0.6209521850141111,-0.015079583884340154,0.0817717195991725,-0.9558715954997181,-1.9526488949400405,1.9293984848402757,-0.8305596587723896,-0.33662108475822156,-0.41917743774240723,0.0290504344616237,0.04893072350837554,-0.678155637254902,-0.6058341941687618,-0.9065482216272429,0.05572008715775732,-0.80257192131469,-0.6756641817985141,-0.9111688060742881,0.1845661347549398,-0.658307526152167,-0.4159601484853705,-0.5921416973086464,-0.4990083164769542,undefined,1498153755507
903d185fccf839df,-0.3784633354137545,-0.6215392000122324,-0.04761775406681572,-0.07336046829438138,-0.8686797420907206,-1.9431199767085827,1.9237286212400022,-0.8432284672781845,-0.2808729454960374,-0.5177980735088461,0.06167253161259299,0.0283527408000096,-0.6302849264705882,-0.6123150401937636,-0.912864031680959,0.05572008715775732,-0.8313299413390967,-0.6895523270671047,-0.904353912635194,0.17968482621569828,-0.664510330302189,-0.40518742606157643,-0.6277801701142451,-0.5023649427232905,undefined,1498153756237
903d185fccf839df,-0.3992535348869908,-0.5927754651042845,0.07232827850034396,-0.04567294042564849,-0.8555860482823652,-1.937825615968656,1.9293669251036678,-0.7953670435233356,-0.283688935627744,-0.5891651290386527,0.04271978940286655,-0.10042990855724214,-0.6346368092691622,-0.6178700223956215,-0.9223377173125978,0.025410978312919198,-0.8383360475349362,-0.7022118815391145,-0.8982317032465599,0.1966231163143121,-0.6687550723034673,-0.39998425144932254,-0.6013583751710907,-0.5166180162632332,undefined,1498153756975
903d185fccf839df,-0.36460306440995804,-0.6532380537527759,0.15271738661585263,0.09957602404427736,-0.8179095403725439,-1.9595131622051762,1.956214617470879,-0.6378799770700208,-0.2599526274556356,-0.4795297155829687,0.09042981017098779,-0.1188173037653723,-0.6302849264705882,-0.6187958797433781,-0.9054955915264461,0.06784373069569256,-0.8080976152082663,-0.6891976827526907,-0.9038851262085836,0.28462523063975925,-0.6450802435290964,-0.40293214273986583,-0.6069525922201331,-0.5345496976560291,undefined,1498153757749
903d185fccf839df,-0.327180670852723,-0.5992326300836197,0.2197089030316585,0.20588793904629676,-0.7090457223572467,-1.936984760587905,1.9245570150924205,-0.7897581377401415,-0.2384587999390991,-0.4146646595751008,0.0715856094820261,-0.123867445852006,-0.5345435049019608,-0.6308316950194632,-0.9044429467011816,0.13250315347644004,-0.7881436163007826,-0.6966325586465588,-0.9043119315436027,0.3368413579499713,-0.6363632696654434,-0.4003019176107567,-0.6258459803684959,-0.5225746371123546,undefined,1498153758482
903d185fccf839df,-0.33549688866365646,-0.5634246567422304,0.2969080841580046,0.3651606727143453,-0.6943680329374182,-1.9133196899387575,1.9301900593491594,-0.7255358983628535,-0.25569958347982275,-0.3389809719636917,0.06395235731143385,-0.11882067270044369,-0.2342635918003565,-0.6382383724906725,-0.9054955768019785,0.22949238657408663,-0.7835760772601932,-0.7003626623950293,-0.9099093802816468,0.35046898138912097,-0.634592677431109,-0.40138650957740013,-0.6235562726221189,-0.5348247434933935,undefined,1498153759257
903d185fccf839df,-0.2966883782919765,-0.586905271281082,0.34731055706324865,0.4284895200481054,-0.6447704013658052,-1.8736108198650607,1.9241941032619594,-0.7035460684464991,-0.2946940586209083,-0.24211144299227896,0.053264548399341055,-0.12040036136131374,0.013793727718360084,-0.6428675491478719,-0.9033903166003848,0.2537395888557925,-0.7573524400743362,-0.6979181462905827,-0.9080132443933748,0.382559342695393,-0.627586904152331,-0.3970005867299899,-0.6297351778178883,-0.5115575675750991,undefined,1498153760961
903d185fccf839df,-0.2966883782919765,-0.586905271281082,0.34731055706324865,0.4284895200481054,-0.6447704013658052,-1.8736108198650607,1.9241941032619594,-0.7035460684464991,-0.2946940586209083,-0.24211144299227896,0.053264548399341055,-0.15301020701212503,0.07036820409982177,-0.6428675491478719,-0.9033903166003848,0.2537395888557925,-0.7573524400743362,-0.6979181462905827,-0.9080132443933748,0.382559342695393,-0.627586904152331,-0.3970005867299899,-0.6297351778178883,-0.5115575675750991,undefined,1498153761048
903d185fccf839df,-0.3257947265653267,-0.5886663162754462,0.42195820321738386,0.4444019553721814,-0.6371384145433605,-1.8721387407192405,1.9032582185087208,-0.8388542122323642,-0.2940436382315608,-0.18488885194187696,0.04593259684097519,-0.19038381077588584,0.30101799242424243,-0.6382383724906725,-0.9054955620775109,0.23353353513571481,-0.755319849049588,-0.7011162829030323,-0.9124562194529914,0.3701635939899715,-0.6324458246669694,-0.4007536638555138,-0.6447130535504043,-0.5124703313440326,undefined,1498153761568
903d185fccf839df,-0.3202506733724637,-0.4835905146997485,0.48703505185623386,0.5569902937821981,-0.6405738360458682,-1.8569031867764176,1.8978934131577525,-0.8503884386432697,-0.31854855163308154,-0.16004008719240492,0.024607102129192558,-0.24815904982266024,0.022497493315508033,-0.6363866966474829,-0.9033902871514496,0.21938924665516163,-0.755319849049588,-0.699336725679855,-0.9143803427499307,0.3769543084317839,-0.6310201046556765,-0.39721219007487757,-0.6420138980559397,-0.5111002002759477,undefined,1498153762295
903d185fccf839df,-0.3008464181866237,-0.44249949405924377,0.6133617008125668,0.6199823177309994,-0.6741463502831961,-1.833724926991066,1.8731390506327348,-0.9859374914618373,-0.33222162553044343,-0.12569873109955856,0.0011436463018325374,-0.15149936640129333,0.19222092245989306,-0.6474967128542969,-0.9170745299974449,0.2315129184578184,-0.7827121093022794,-0.7155237299296624,-0.9271495225081107,0.366360177103151,-0.643320887961234,-0.4016081581747628,-0.6380147305943428,-0.5125979832792177,undefined,1498153762965
903d185fccf839df,-0.28005621871338743,-0.4518917340291859,0.6516423495042135,0.6214259087374299,-0.6782092005033626,-1.8248132584366707,1.8930598333440494,-0.838276802716038,-0.32105251329720086,-0.05944454449435636,-0.05123345436122968,-0.09637450486303084,-0.0950033422459893,-0.6549033708993444,-0.9244429848764253,0.2416159453178573,-0.7751237489075209,-0.7087284813195274,-0.9293325277707847,0.3607243460832724,-0.6423985565427577,-0.3992020015611369,-0.6423355744033593,-0.5062843567610513,undefined,1498153763785
903d185fccf839df,-0.2758981788187402,-0.3984732815161627,0.5584927710212065,0.6433123284603034,-0.6637475110874373,-1.8099131146458467,1.8934411532749957,-0.8104133091690295,-0.335965950549799,-0.010652663284823588,-0.03913810677702192,-0.09383945482441203,-0.5345435049019608,-0.6530517209577038,-0.9328640330450336,0.19918322119980544,-0.802898753533272,-0.7087411476332055,-0.9352938112494198,0.34721991040962785,-0.6476395457924775,-0.3942964715087627,-0.6458880171504844,-0.5056020366237365,undefined,1498153764474
903d185fccf839df,-0.2828282453098189,-0.4049304464954979,0.663126798248657,0.702517038353631,-0.6835166214155355,-1.8143293521123005,1.8857226753953467,-0.8717546894447569,-0.3390734116041458,-0.023341638245720192,-0.032836461331307486,-0.029053849195300126,-0.7086188168449198,-0.6567550337917594,-0.9507588036564498,0.1426061803364789,-0.8316398602163868,-0.717436279130628,-0.9392260191823266,0.29789868906629263,-0.6632920044323665,-0.39038333223405525,-0.6484359630557143,-0.5061781984940148,undefined,1498153765249
903d185fccf839df,-0.2232296044757221,-0.33272751404259027,0.5584927710212065,0.7021396142847044,-0.7170274208904813,-1.7932054813415632,1.8973148595383158,-0.7773302750457766,-0.33999701748605066,-0.11442750479138127,-0.018958346154714173,-0.04910844063743767,-0.8391753008021391,-0.650274220143694,-0.9476009207162932,0.10017348448314861,-0.8515219134964886,-0.7289305721376343,-0.9416399192467503,0.26608550096273703,-0.6749480896265666,-0.39250000645679706,-0.652356152143158,-0.5218793449016844,undefined,1498153766039
903d185fccf839df,-0.18857923751491856,-0.41021358147859044,0.5546649602889913,0.7021396142847044,-0.726695976690794,-1.8053268424179445,1.8990899753049943,-0.784909858559327,-0.3115999828944929,-0.1833323732666418,-0.014930797555616323,0.019633908626596575,-0.8043602384135473,-0.6697167258417629,-0.9476009207162932,0.14664738542755015,-0.8396741764166455,-0.7281769516130214,-0.9411291516306757,0.40767420413541744,-0.6394475655085392,-0.39977181001355344,-0.6596966289237807,-0.4811140787908071,undefined,1498153766890
903d185fccf839df,-0.21629960699546283,-0.4536526913395731,0.5074519060990109,0.636923270028947,-0.7850158796351026,-1.8108844070422556,1.8931492403766828,-0.8485855375606607,-0.31092759002837517,-0.1926465395903186,0.00412790713609382,0.07215295940444248,-0.7260263480392157,-0.6826784049409919,-0.9370745608104547,0.23757482502095065,-0.7897416356956714,-0.7455165513906473,-0.9328169404070561,0.5053927379951902,-0.6219509267340242,-0.41043404323599836,-0.6981112239168787,-0.43217945591837026,undefined,1498153767470
903d185fccf839df,-0.31747868128144197,-0.474198333185791,0.48512140062707565,0.55365423081576,-0.9150065194994486,-1.813087867504533,1.9021011018421514,-0.8238737266833567,-0.32075001987778406,-0.21423910577229516,-0.009790083265722192,0.0678955291008035,-0.7477857620320856,-0.6900850759368139,-0.9476009207162932,0.29011051946959826,-0.8178111808583094,-0.7657883040742955,-0.9488536311749657,0.554914140004377,-0.6246661570809323,-0.44502332919550597,-0.7047705141273312,-0.42679478047957964,undefined,1498153768230
903d185fccf839df,-0.32440871326711096,-0.39201614576481975,0.4691707491334654,0.5512341711377289,-0.9553675955026139,-1.7955929518927756,1.8914714236718329,-0.8751463347404981,-0.34940485234578017,-0.14027990334168464,-0.0033050480853149987,0.015651709617870692,-0.6868594028520499,-0.6928625832262111,-0.9560219688849015,0.32041965657915794,-0.79354186899983,-0.7640024140901511,-0.948342863656764,0.5030521756066608,-0.6354746143594999,-0.4459680126320982,-0.6920193653715896,-0.4195636649634882,undefined,1498153768973
903d185fccf839df,-0.45885214121567786,-0.41314862724120505,0.3977140465162904,0.5202020910027497,-1.0219469111262807,-1.7848505008827686,1.89019596637316,-0.8875202573352249,-0.3348816794458932,-0.24139199837885392,-0.002502030476220585,0.061528334749678476,-0.8174158868092692,-0.6956400775648336,-0.9276008751788157,0.3062753680986048,-0.791381809378101,-0.7484233726991335,-0.935727613346379,0.48562113657307254,-0.6306691455821781,-0.4478393488504317,-0.6953904808280598,-0.4232299469483104,undefined,1498153769899
903d185fccf839df,-0.4228157954620683,-0.4096265372524767,0.38367755452573715,0.4763350398022106,-1.0145000676527371,-1.7686250204975105,1.8911900362725056,-0.8604301457683802,-0.3710503144380259,-0.28562564840907745,0.002119363943949262,0.08008403877637187,-0.8609347147950089,-0.6845300743087942,-0.9233903179644596,0.3103167145132837,-0.8006973834752222,-0.7457002070175149,-0.9302071295585636,0.4208090802685318,-0.6425825469713783,-0.448300710788422,-0.69672350365214,-0.40206592616324727,undefined,1498153770481
903d185fccf839df,-0.5004326091729699,-0.41960582144853265,0.4091984952607338,0.5356665241929859,-1.0809456711374046,-1.7781749009518655,1.8984325202489953,-0.844847310441356,-0.4093464123213407,-0.14133590939954035,-0.0077421019419792675,0.06480985648626492,-0.8696384803921569,-0.6743458895481879,-0.9181271674604754,0.3527494951607786,-0.7946116003897781,-0.7286392566288143,-0.9180816565478476,0.3979731859813218,-0.63536806839032,-0.45149010774984133,-0.6873307700948569,-0.40588108565345854,undefined,1498153771236
903d185fccf839df,-0.46994028210681366,-0.4554137363339373,0.4149404654960061,0.4716269585425433,-1.115197041231233,-1.7800126709226278,1.9279257980431994,-0.6652378920289086,-0.41414929880779017,-0.17545491470419697,0.021155850923582114,0.027363562607554466,-0.8043602384135473,-0.6928625767508237,-0.9181271674604754,0.3386052066802254,-0.8052958748568992,-0.7355231665999227,-0.9159336355169515,0.4309874525873664,-0.6320281894082403,-0.45289469127760457,-0.677303296548089,-0.4101882090162819,undefined,1498153771973
903d185fccf839df,-0.5794354361820873,-0.4642190782177274,0.4474786356784817,0.5113021973018416,-1.1536346924143417,-1.7895811853704584,1.9168569421706911,-0.7565808061075248,-0.43520675597307173,-0.31529297291775316,0.031086777854258545,-0.025468215893136487,-0.7738970588235294,-0.6789750662053873,-0.910758749392664,0.3567907567812929,-0.8052958748568992,-0.7351875206902176,-0.9120224182919426,0.41292507622695773,-0.6334269317317707,-0.4569143590521831,-0.6724324514489018,-0.41352450738168506,undefined,1498153772751
903d185fccf839df,-0.530924832722897,-0.5334868772240434,0.3932478437671236,0.4763350398022106,-1.1521741224386197,-1.7834087015672635,1.9020406179337703,-0.851418234349196,-0.4305319512799863,-0.35798753003523637,0.03664000739073078,-0.13280886182834342,-0.5911179812834225,-0.6993433968742765,-0.910758749392664,0.3648731104339923,-0.7941610437931149,-0.7583787603814603,-0.9139395445333228,0.38839535310220397,-0.6492044097418159,-0.4565672323691989,-0.6562053507785168,-0.4088465922810579,undefined,1498153773496
903d185fccf839df,-0.6224018311740708,-0.5921883770361822,0.411112146489892,0.4493125279617657,-1.1945820507620781,-1.7884678087516004,1.9352603309022867,-0.652036208802356,-0.4319609056985971,-0.3444543165835492,0.052676135204223505,-0.13807551834278506,-0.4083389037433155,-0.6956400710894464,-0.9086535039155379,0.3143578348101903,-0.7839360371126013,-0.75473731745137,-0.9110848459770233,0.3750756981546484,-0.6499033386616262,-0.45971686819365876,-0.6428785485198877,-0.39972317939857344,undefined,1498153774238
903d185fccf839df,-0.5794354361820873,-0.5863183147389454,0.411112146489892,0.42872317384120273,-1.1816015019437507,-1.7982482845014682,1.944635590201641,-0.6041582480250042,-0.4098420514189684,-0.4353558882533052,0.07162694291364256,-0.05272939227476982,-0.1820409982174688,-0.6937883952462568,-0.9360219527963592,0.330522853027526,-0.7460076527041276,-0.7545663279554704,-0.9086499558531103,0.4316187903988297,-0.638620254341185,-0.4655304468622373,-0.6363074998532702,-0.40605526059487956,undefined,1498153774972
903d185fccf839df,-0.6279459016196386,-0.6015807339180937,0.2822337084243987,0.2990723127211581,-1.222394576034222,-1.792627830573663,1.933440510048009,-0.6844128134399411,-0.40552112018036335,-0.42762863755158026,0.07482033181588142,-0.06702215728073845,-0.1820409982174688,-0.7197117275431656,-0.9244429480652564,0.3769966691777629,-0.7415780550536989,-0.7670422273099858,-0.9157657126247981,0.46166115702027855,-0.6412096535826002,-0.4619119580497045,-0.6379509580626251,-0.4113253802192945,undefined,1498153775771
903d185fccf839df,-0.6833865025590882,-0.6461939030033116,0.19992993253193414,0.13850068074216937,-1.2481293913848248,-1.780953683862016,1.927276245491614,-0.7205550849442389,-0.38842303858432253,-0.42144052466876586,0.07456657222979005,-0.072306788579572,-0.7303782308377896,-0.7169342526307049,-0.9412851033003433,0.5810780209094873,-0.7132471934472204,-0.7750407348700153,-0.9056693144624651,0.6149834780193203,-0.6058372925664922,-0.46746165555935304,-0.6624868147947129,-0.366894428741576,undefined,1498153776526
903d185fccf839df,-0.6986326833448712,-0.6720225629206525,0.03659916478090819,0.010161455984829482,-1.2253671434085818,-1.7856866981049204,1.934005921459019,-0.6848151407601224,-0.3924558978825479,-0.425609671374878,0.07150333469283048,-0.024149273083954523,-0.7564895276292335,-0.7178600840769124,-0.9412851106625771,0.6558406118738813,-0.6767974115399258,-0.7789228293497933,-0.9012613236223926,0.6987356239190444,-0.5873574397331603,-0.4685384165245462,-0.6824601465785745,-0.35414576985358814,undefined,1498153778515
903d185fccf839df,-0.6709123483697367,-0.6720225629206525,0.045531570279241845,0.01200593963984922,-1.2100517410724465,-1.7861013025144554,1.9467473312868844,-0.598152031368992,-0.3956040193526308,-0.38655885216747315,0.06778334566482339,-0.024149273083954523,-0.7564895276292335,-0.7178600840769124,-0.9412851106625771,0.6558406118738813,-0.6767974115399258,-0.7789228293497933,-0.9012613236223926,0.6987356239190444,-0.5873574397331603,-0.4685384165245462,-0.6824601465785745,-0.35414576985358814,undefined,1498153778559
903d185fccf839df,-0.6625962685804422,-0.6720225629206525,0.06849995949422986,0.016104305089708407,-1.1861580660178668,-1.7862014598193974,1.9412615570716314,-0.628126393048574,-0.4062041090785745,-0.40520027613148457,0.06792754299377673,0.004594480443028743,-0.7564895276292335,-0.7252667615481218,-0.9412850885758758,0.643716968335946,-0.6767974115399258,-0.7808290453136382,-0.9052495058159816,0.7071123783495227,-0.5877452932585852,-0.4704002927317072,-0.680358566156722,-0.3530126946846796,undefined,1498153778747
903d185fccf839df,-0.6709123483697367,-0.6743706229131381,0.17313373258473086,0.08695877848313527,-1.2009591842582756,-1.774494703514972,1.9469024891674787,-0.5778549420997309,-0.4222140134296487,-0.38949908297427804,0.07040236039762862,-0.02574794626360499,-0.7477857620320856,-0.7335992510393767,-0.9339166852325318,0.6376551465669784,-0.6762058238051227,-0.7805567288296337,-0.900113846375584,0.7091911706252787,-0.5857405846868178,-0.47213278710660006,-0.6795208223827282,-0.35302749663837923,undefined,1498153779471
903d185fccf839df,-0.6667543084750894,-0.651477037986404,0.20439613528110095,0.1554025116251056,-1.1899946297948982,-1.7651078694914668,1.9331012743051341,-0.6468362825975638,-0.4457839651829151,-0.35702479030848355,0.05741567232390357,0.011831174874690792,-0.7477857620320856,-0.7317475816715744,-0.9244429627897239,0.6497787335754707,-0.6657670280692742,-0.7844514888977864,-0.9063480047382451,0.6840455096826735,-0.5937822515295109,-0.47152357679853735,-0.6850593618961698,-0.333449032876688,undefined,1498153780256
903d185fccf839df,-0.6778424493662252,-0.6403237530220977,0.2567132759633009,0.2887376352295535,-1.1529249794687264,-1.7638011664012396,1.9437572484150452,-0.5682600861328272,-0.44107750069135565,-0.3534452788880005,0.06148937604276622,0.02281964237876923,-0.7564895276292335,-0.729895912303772,-0.9254956223394559,0.5588514070409563,-0.7174348261365511,-0.7909617550535121,-0.8992742288318173,0.6186329146923056,-0.6101581250439262,-0.4597066917524162,-0.6838977040976018,-0.3094982129953499,undefined,1498153780989
903d185fccf839df,-0.6792284626644409,-0.6368015461214,0.2567132759633009,0.2887376352295535,-1.1550438338788647,-1.7639013241700807,1.9499109979476728,-0.525521783698766,-0.4346117478688215,-0.42019826405127814,0.034039139741283815,0.01124711716545519,-0.8261196524064172,-0.7150825832629025,-0.9423377186766726,0.5245010083108823,-0.7233597344754183,-0.7764909784516913,-0.9026326982116659,0.5707745472953071,-0.6161714652657636,-0.45935879592061146,-0.6770525300435675,-0.3111489818205263,undefined,1498153781763
903d185fccf839df,-0.6501221834019101,-0.623300201164608,0.32498055986521224,0.3722780250122803,-1.1390392895510764,-1.767220489785072,1.957924019052859,-0.46962887849491675,-0.44526367767517366,-0.3882716161766725,0.009601027424227181,-0.0024124940585732828,-0.6868594028520499,-0.7178600840769124,-0.9423377186766726,0.4315530933631931,-0.727698150330318,-0.7731028540106101,-0.9022198863760592,0.5659548350283781,-0.6177457189099564,-0.46154961075277645,-0.665646895930925,-0.29159015847503744,undefined,1498153782483
903d185fccf839df,-0.5433990214176583,-0.5974715412472671,0.38176339502268014,0.397896217296843,-1.1321890140571265,-1.7636008519943114,1.950642079120479,-0.509330136194096,-0.437448709434615,-0.3847044898903373,-0.02486492560772722,0.004254238044800889,-0.5867660984848485,-0.7215634357632916,-0.9433903708641708,0.5548102302146065,-0.7157149202620663,-0.7716082787712256,-0.8990713213041596,0.6152298597295303,-0.607202998652793,-0.45834266386734157,-0.6514614627281498,-0.27819601587818377,undefined,1498153783255
903d185fccf839df,-0.6140858031428909,-0.5904273612698104,0.32689421109437045,0.3737374875564504,-1.175244940735863,-1.7598903738899105,1.9400387021273628,-0.5851301821475091,-0.39249123146826637,-0.5280652168098522,-0.015058440221428543,-0.016372098907133436,-0.7129706996434938,-0.7326734260685565,-0.9454956163412968,0.5588513505115132,-0.7250302975510461,-0.7727798733515431,-0.8994281587078067,0.5846023513868462,-0.6140995192213934,-0.4569981699358331,-0.6518967024748714,-0.29744689468353186,undefined,1498153783999
903d185fccf839df,-0.5309248672283068,-0.5904273612698104,0.32689421109437045,0.3737374875564504,-1.1611329642310402,-1.76095949457901,1.9423660797639717,-0.5687527014894526,-0.3953319651973236,-0.5248133117302699,-0.0158316839964021,0.010435868006756,-0.7129706996434938,-0.7345250954363588,-0.9444429936027338,0.5588513505115132,-0.7195240039830387,-0.7720579177391004,-0.9018210679664596,0.5835706556092567,-0.6151373194960383,-0.4556462167122718,-0.6529368910725772,-0.29201505176748166,undefined,1498153785517
903d185fccf839df,-0.5309248672283068,-0.592775421262296,0.34731055706324865,0.3943268416770134,-1.1646506727822394,-1.7586675230980322,1.9365436886103289,-0.6042944843865171,-0.3952251958268746,-0.5217955144647778,-0.018208156970110544,0.010435868006756,-0.7129706996434938,-0.7345250954363588,-0.9444429936027338,0.5588513505115132,-0.7195240039830387,-0.7720579177391004,-0.9018210679664596,0.5835706556092567,-0.6151373194960383,-0.4556462167122718,-0.6529368910725772,-0.29201505176748166,undefined,1498153785542
903d185fccf839df,-0.5503290534033273,-0.629757424599928,0.2815953164074471,0.29592180545891494,-1.1761706530812241,-1.7456400881801857,1.9338402443645704,-0.6121327387286517,-0.38536218812996753,-0.530595398543122,-0.03926461102304699,0.09342993302457869,-0.8130640040106952,-0.7437834357999831,-0.9444429788782662,0.5325834184930248,-0.7185793751015918,-0.7841601728463732,-0.9105740783181292,0.5868505246508633,-0.62319783041059,-0.4536724525302095,-0.6444065878975065,-0.28655132459131927,undefined,1498153786271
903d185fccf839df,-0.46301011209950566,-0.5745780147765176,0.20184409203499118,0.2392536951047396,-1.0901513689865734,-1.7386314076948457,1.9526302115865175,-0.4588035169036712,-0.36495593770019336,-0.5222069574635191,-0.04980001082021489,0.030851102679770117,-0.7651932932263815,-0.7391542526673964,-0.9212850651250997,0.5669338172230988,-0.6669437421681108,-0.7789038294612578,-0.8859802882456526,0.6701253160627532,-0.597517829287313,-0.4586069365982896,-0.6394792970240464,-0.22389835048530304,undefined,1498153786982
903d185fccf839df,-0.2772842266223656,-0.5745780147765176,0.0799844082386733,0.03502911687740754,-0.9360819160221276,-1.7331716714067154,1.9360282471314543,-0.5157647654728251,-0.3135646004819744,-0.6032707654396591,-0.046392765317512026,0.08747726632582345,-0.7390819964349377,-0.7317475881469616,-0.8918113560426847,0.8154685662802144,-0.5611743895672,-0.773875472092822,-0.8713289661353151,0.8595877879318878,-0.5498590755605846,-0.44025330952324965,-0.5701441320572187,-0.1350103716008643,undefined,1498153787766
903d185fccf839df,-0.28144226651701293,-0.5974715412472671,0.07424192972950217,-0.05057200626031002,-0.9127436695158618,-1.7284200244279362,1.9309369392456617,-0.539348552194148,-0.31549050187714,-0.6133024010290657,-0.04420018156396558,0.07524376056099201,-0.8000083556149733,-0.7252667615481218,-0.8939166015198108,0.9589318416458702,-0.4768860820371313,-0.7686634591916417,-0.8760728039647558,0.9478362774787117,-0.5301200071940824,-0.4453064330299783,-0.5579092451489234,-0.1392648125926457,undefined,1498153788505
903d185fccf839df,-0.2758982133241499,-0.6086249431235428,0.07424192972950217,0.023644364970705205,-0.93582477353415,-1.7242087596248634,1.9163704447665044,-0.6371803999609481,-0.33563353104292415,-0.6190365496597053,-0.04074797247816428,0.0005184477668423732,-0.852230949197861,-0.7335992510393767,-0.8907587038551865,0.9589318416458702,-0.4686918964313018,-0.7762883234456617,-0.8783047866833523,0.9410763606412944,-0.5352730787744843,-0.4437505532880081,-0.5522290142257311,-0.134143410979645,undefined,1498153789281
903d185fccf839df,-0.28144226651701293,-0.6139080196506506,0.11698878117031569,0.05767681950736388,-0.9502350355191574,-1.7358642729337814,1.9256668068193845,-0.5926395423794302,-0.32555063179964777,-0.6375089597899211,-0.04952741532237035,0.0106999701653841,-0.852230949197861,-0.7373025832995941,-0.897074499184435,1.0821888089089544,-0.45202790993628733,-0.7726025502364928,-0.8786196432095051,1.0438455839612581,-0.5106430441791939,-0.4442922661358619,-0.5701239559645919,-0.1333278291732675,undefined,1498153790005
903d185fccf839df,-0.2592660537455609,-0.571642881329926,0.13995717038530373,0.058379865713784486,-0.9176190897480532,-1.7454071656446606,1.9384660712759278,-0.5091815349622113,-0.3393134837513055,-0.5513096670292396,-0.06305948269099713,0.033445019470062745,-0.9305648395721926,-0.7289700873329518,-0.9076008443658059,1.1104773858700607,-0.45202790993628733,-0.7696134008539839,-0.8827547588229961,1.0149889007220425,-0.5185915829811764,-0.4371870172895279,-0.5450215009782117,-0.15754785128634416,undefined,1498153790842
903d185fccf839df,-0.28144226651701293,-0.5540324313862843,0.26628356520468727,0.2044527014591815,-0.9214865124946894,-1.7494623715863977,1.9273603960598853,-0.583904250850215,-0.34601217963930103,-0.556252072862917,-0.0716247207370729,-0.037481706240473395,-0.9305648395721926,-0.7326734260685565,-0.9307587654812062,1.1104773858700607,-0.4480047180167461,-0.7639074184179437,-0.8918296219733939,1.0547476879144144,-0.5104397791270147,-0.43676359642938506,-0.5296242447947904,-0.1660665261612891,undefined,1498153791476
903d185fccf839df,-0.27174017342950263,-0.561076611363741,0.22226094627776827,0.19726594482484625,-0.9388487703599536,-1.7548312679812956,1.9466763218795176,-0.4712931883695472,-0.3287193034073137,-0.5254770396810146,-0.08635282846368103,-0.07337021048438475,-0.8609347147950089,-0.7345250954363588,-0.927600867816582,1.059962223305145,-0.45290325311602553,-0.7590500503571608,-0.8947962700542558,1.0051338958518161,-0.5214369603816721,-0.43995246916193625,-0.5117973707292438,-0.15831355011091738,undefined,1498153792260
903d185fccf839df,-0.27174017342950263,-0.5657727313487121,0.227364524496089,0.1648795846726395,-0.9479207558920766,-1.747373044198703,1.9343583109330607,-0.5452602670378375,-0.2925996565938043,-0.49441047791249565,-0.07849296228978735,-0.08812793231608253,-0.7782489416221035,-0.7335992639901513,-0.9033903166003848,1.039756113055624,-0.4502452140009528,-0.755212286145388,-0.8903113145698075,0.9983277828568587,-0.5206511066995344,-0.43653457013100927,-0.5114048054912246,-0.15730012306436428,undefined,1498153793014
903d185fccf839df,-0.3424269551547352,-0.5769260163130184,0.21077649753332484,0.13486700542870747,-0.960561875837908,-1.7589400457495814,1.933522033431621,-0.5687742615619849,-0.2858243691997611,-0.5493660788262169,-0.08998861032169787,-0.04184888875108557,-0.8783422459893049,-0.7354509398333409,-0.8728639479682379,0.9831791004570192,-0.4634339322365895,-0.7531920770403233,-0.8876595232414299,1.0128177208699398,-0.5143967067121158,-0.4348626413098013,-0.5248547112820553,-0.17443037504624836,undefined,1498153793771
903d185fccf839df,-0.3119345245723497,-0.5739909413224116,0.21077649753332484,0.18120063776795467,-0.962649871330455,-1.7639851780050948,1.9458163766706662,-0.4995320388564464,-0.28636498720516684,-0.4979625584494248,-0.07199104021249622,-0.13780314596811907,-0.865286597593583,-0.742857591403001,-0.8676007753775524,1.0013645940286435,-0.4654711867401188,-0.7532047433152447,-0.8880163609753983,1.0206247328592923,-0.5126314454764832,-0.438300196402143,-0.5255181011824188,-0.18160931053460588,undefined,1498153794479
903d185fccf839df,-0.3119345245723497,-0.6027546762303595,0.2286408002560933,0.1976016917538167,-0.9448144726777536,-1.7763254866591838,1.9419374076578537,-0.5415096380125007,-0.2732923863474386,-0.5040870934309607,-0.05765470030865854,-0.22060464726192863,-0.5475991532976827,-0.7410059349859732,-0.8854955533512024,0.9468081981079349,-0.45299587923844753,-0.7705506762192579,-0.8955379328452209,0.9994980642665203,-0.5260315095567811,-0.43985048608915833,-0.5202306084263087,-0.1734001876118998,undefined,1498153795253
903d185fccf839df,-0.34381293394754125,-0.6051028239068221,0.3300846463574318,0.26255208063021335,-0.9932189637529982,-1.7893482632190998,1.9246359154814607,-0.6819452162210645,-0.24726302672489067,-0.5884730232430447,-0.028187049524105084,-0.2881751754030396,0.1835171568627451,-0.7410059349859732,-0.896021876445872,0.9427669647521422,-0.4451852042652511,-0.7722225732836494,-0.8988404273955007,0.994108608494943,-0.5281742135811242,-0.43951676230356596,-0.5184956701456471,-0.16994191052015176,undefined,1498153795967
903d185fccf839df,-0.37707728761012904,-0.5927754797182806,0.392609451750172,0.32615114845618587,-0.9899481120747601,-1.8009455452780205,1.9631915043915629,-0.44852396973142156,-0.21239925498542833,-0.5748054936656005,-0.000987948567198348,-0.294640713716215,0.7927807486631017,-0.741005928510586,-0.9065481921783077,0.920540237824725,-0.44243453902775637,-0.7620202010802742,-0.9094266020378162,1.0254906421722738,-0.5232859646365594,-0.440607966232296,-0.5115471611788929,-0.16266603956943235,undefined,1498153796769
903d185fccf839df,-0.38123536201018604,-0.5816221655259819,0.45641104117681536,0.47472438624182234,-1.0119595028488515,-1.8204668993146544,1.948861691176612,-0.5758287932278157,-0.20467272034657316,-0.5200906874820357,0.0005452756080388463,-0.28456347046950226,1.4020443404634582,-0.750264262398823,-0.901285026949856,0.8922517456577833,-0.4631372767211327,-0.755079295119906,-0.9058092507901059,1.0344987333910802,-0.5170567508526334,-0.44382194414599563,-0.5230963361150633,-0.17333397839596532,undefined,1498153797503
903d185fccf839df,-0.5309249362391262,-0.639736708795984,0.45768731693681963,0.5099031949682726,-1.0530920042274063,-1.8413392115377056,1.9391708533665764,-0.6785772031259902,-0.2124305847814187,-0.5501292981851514,0.01592286167930199,-0.3427269682851797,0.9668560606060607,-0.7548934325806352,-0.901285026949856,0.9225609110320645,-0.472334111516738,-0.7616465577576548,-0.9098953883543194,0.9878106471210345,-0.5312721315945477,-0.4480034620786944,-0.5045769427761998,-0.17225898364357523,undefined,1498153798254
903d185fccf839df,-0.6390340770161841,-0.65499909874714,0.6975788737972402,0.684812004051075,-1.24061054548935,-1.8731962161604347,1.9710572502176542,-0.556450066523681,-0.3090389637342652,-0.4392790443100765,0.035687824156405035,-0.4925593649570384,0.031201258912655985,-0.7502642559234358,-0.8991797741104962,0.8962929790135761,-0.4604959224183067,-0.7572768269856743,-0.9082651313894683,0.9612175313641171,-0.5335371418696007,-0.4503949113609975,-0.5040576153131062,-0.1726136214760339,undefined,1498153798990
903d185fccf839df,-0.6307179627214798,-0.6561730995153905,0.7543619630916575,0.7828143793025524,-1.272722491517416,-1.8835659885331635,1.9567379583116016,-0.6663065403945607,-0.31253324658700465,-0.43317864378043336,0.03694173452284047,-0.443179940293581,0.07036820409982177,-0.7493384309526155,-0.8676008048264876,0.9306432929494854,-0.46649788292672184,-0.756953846797224,-0.8964825021545288,0.8892759947237093,-0.5446543778484608,-0.45096747852241686,-0.49997097880987,-0.1731722009081012,undefined,1498153799766
903d185fccf839df,-0.573891279472995,-0.6555860845172691,0.7805205334327575,0.7959944903752209,-1.2532516676177496,-1.8944202431126085,1.9592099735674284,-0.6613380099721247,-0.2962995461674004,-0.4503097927992332,0.036419029439401444,-0.3827682565101536,0.9712079434046347,-0.7465609495647675,-0.8781271279211571,0.704335270819787,-0.5184235525599397,-0.7500889357125144,-0.903360367399229,0.7828573372078255,-0.5690134849612596,-0.4408674567794565,-0.4754994267208869,-0.19709350355766078,undefined,1498153800478
903d185fccf839df,-0.5628032075926788,-0.6820017886607238,0.7996608577785808,0.8602847450658233,-1.218136296504047,-1.8866685352275259,1.9390761772993192,-0.783161546856271,-0.2842944941700909,-0.4505993707974356,0.030623625371511524,-0.3430329509656487,1.071301247771836,-0.7317475816715744,-0.8886534657402942,0.7932419241469618,-0.501013033253097,-0.7441359687775726,-0.9127290970285244,0.8395698116653377,-0.5556625603677947,-0.43558012274385577,-0.44580126398267184,-0.2354209009735667,undefined,1498153801288
903d185fccf839df,-0.6459641435072628,-0.6438458137828337,0.7326698496366738,0.7883563845466408,-1.2541876645178518,-1.8685680171382488,1.9162678724799653,-0.9162009472857148,-0.27418200825786104,-0.5437759038989495,0.02723876545200761,-0.3192045137293743,1.267135973707665,-0.7215634228125171,-0.8781271279211571,0.8680044585819128,-0.47893009388305646,-0.7462068413766898,-0.9111128338689385,0.9048130237423345,-0.5421293271586021,-0.4343337334664425,-0.45464536254009186,-0.23637181977786823,undefined,1498153801987
903d185fccf839df,-0.5822073937676993,-0.6403237237941053,0.9042948850060313,0.9296577204910252,-1.1967317590845037,-1.8705222488551698,1.9295641713624203,-0.8147957120045917,-0.2761278902427756,-0.45953732246511253,0.009530879821564964,-0.33324694328838655,0.19657280525846704,-0.7363767518533866,-0.8770744978203603,1.0013646222933652,-0.44695544156468325,-0.7453645595409334,-0.9023738172491295,1.066080943614796,-0.5048893379283944,-0.43143939911602963,-0.4600845862893109,-0.26988472700757205,undefined,1498153802731
903d185fccf839df,-0.6140856996266616,-0.6585211887358684,0.8781365688018807,0.9203519018216766,-1.1978837564966411,-1.8704686762602885,1.9403647872816365,-0.747473592405561,-0.30811752547148,-0.52171961973098,0.026981747114385442,-0.2582278966081432,-0.4823209113190731,-0.7511901003204179,-0.8770744978203603,1.1347247294753744,-0.4631372767211327,-0.7622861849638747,-0.904185991382413,1.1288758034716369,-0.4980278191281289,-0.4345471164887491,-0.4656656918961428,-0.27294355181900143,undefined,1498153803485
903d185fccf839df,-0.5891374947641878,-0.6696744444721824,0.8685662795604943,0.8587784498436731,-1.1889454858522335,-1.8907703250348826,1.9516282444203672,-0.6934080861981027,-0.2970142969699092,-0.5038106167594435,0.04527817467902758,-0.14894265297558035,-0.7651932932263815,-0.747486755109426,-0.8739166075179698,1.1306835243843032,-0.4461788619749466,-0.7707279989245949,-0.9054314238775051,1.1239944961709276,-0.5027939779758195,-0.43441489234477104,-0.45081730278045723,-0.27765701105412116,undefined,1498153804257
903d185fccf839df,-0.5766633405748363,-0.650889964532298,0.9030188633829763,0.942586863778194,-1.1975957563554016,-1.8844487700957067,1.9222217527592682,-0.879800281408765,-0.29785196591446556,-0.4793132561038294,0.03487546498158855,-0.10528273036295038,-0.6520443404634582,-0.7400800905889912,-0.8686534349272844,1.1569513433439054,-0.44657978908341617,-0.7764403137783291,-0.904276950144024,1.0980327169061672,-0.508577176241799,-0.434333974541801,-0.45601010835325245,-0.2767800616232029,undefined,1498153804980
903d185fccf839df,-0.5641892553963043,-0.6009936312359954,0.9145033121274198,0.9802879102520708,-1.1612563883844051,-1.8695998706340995,1.9157261298238888,-0.8965818748856532,-0.32007770074570185,-0.4313665080155753,0.04410058469895199,-0.14827188061300042,-0.6999150512477719,-0.7363767453779992,-0.872863977417173,1.0458179630893134,-0.48295220271294426,-0.7847618021579887,-0.9101262839145847,1.0384561314206355,-0.5251406421663589,-0.4396581332845526,-0.455447562761984,-0.28140301575732546,undefined,1498153805739
903d185fccf839df,-0.5849794548695405,-0.5974715412472671,0.8475120498485633,0.9043414545123067,-1.155311255004042,-1.8734524325260442,1.9286831856308162,-0.8088274943568301,-0.3322895724755203,-0.41177755007819394,0.03955227050555,-0.17450490625612355,-0.5780623328877006,-0.7373025897749813,-0.8697060650280812,1.0579416066272487,-0.48500297045259244,-0.7788404996756739,-0.9080062499926204,1.0277696102809126,-0.5233875172859772,-0.4454739261364808,-0.4667360028492867,-0.2793627184733162,undefined,1498153806476
903d185fccf839df,-0.5725053351855988,-0.5904273904978027,0.7996608577785808,0.8849094116462133,-1.141816420649613,-1.860308535822173,1.9080392106333253,-0.9253221869285367,-0.3553204511177222,-0.4556715664135685,0.016714986457789432,-0.15002636484619108,0.20092468805704103,-0.7391542591427837,-0.8960218838081058,1.0640034283962163,-0.5133943720874292,-0.7770419438706146,-0.920887378896105,0.9125584425557061,-0.549926153942994,-0.44422898087584195,-0.4739139397606804,-0.343839260876097,undefined,1498153807245
903d185fccf839df,-0.5725053351855988,-0.5781000755372536,0.7084254387986308,0.7675328250313463,-1.1118850438160728,-1.852109613746318,1.9175854066340563,-0.84134540866548,-0.37817917112755034,-0.4681271202512082,0.021784251660211394,-0.1440224628076556,-0.029725100267379668,-0.753041789114382,-0.9023376791373543,0.8397159381502495,-0.5821465354394388,-0.7873963066336604,-0.9340973577823348,0.732812389278535,-0.5971105255530106,-0.4616113243745307,-0.5371923910490889,-0.4483679113189881,undefined,1498153807995
903d185fccf839df,-0.5059766968712427,-0.5904273904978027,0.592945608980638,0.5817197960089613,-1.0712256844252677,-1.852100296624545,1.9052279470643616,-0.918730420460756,-0.3863254679095603,-0.4685406709070929,0.01570077859030488,-0.10546904704043075,-0.10805899064171122,-0.7502642688742104,-0.9076008443658059,0.8397159381502495,-0.6038561119992345,-0.7858447359586828,-0.9343352492420348,0.726545223233891,-0.5971185686222906,-0.4617297666063195,-0.5436872443430244,-0.46844207296612944,undefined,1498153808772
903d185fccf839df,-0.5101345987442509,-0.5986456296994945,0.5387148170692799,0.5261546986758548,-1.0487617213410563,-1.8275594323955284,1.90550670727903,-0.8866520072335315,-0.4007776996761766,-0.49503408506291097,0.008918559975601087,-0.09615454046971887,-0.7129706996434938,-0.7530417761636075,-0.9076008517280397,0.7811183371384697,-0.6237309334847603,-0.7821462969618191,-0.9315785054507709,0.735676500373866,-0.5950639285926485,-0.462164696706559,-0.5400688215892542,-0.4705181549280772,undefined,1498153809468
903d185fccf839df,-0.49904649235852494,-0.604515750452716,0.528506135810942,0.4608700103241784,-1.0363057407710916,-1.8188760282796705,1.9010675948423086,-0.8941781105255021,-0.42909663409000803,-0.5155028011697004,0.0028108342468952142,-0.11958669760900432,-0.7956564728163993,-0.7530417761636075,-0.9170745520841462,0.6356345016243605,-0.669605775607623,-0.7794104652931858,-0.9415069797544546,0.6432396328040639,-0.6187712561051796,-0.4681069560111779,-0.5344886688505295,-0.5131875750494311,undefined,1498153811893
903d185fccf839df,-0.49904649235852494,-0.5810351212998682,0.5304202953139989,0.4978535074400033,-1.0393297358324358,-1.822097366174597,1.9183322718652533,-0.7839757357734318,-0.4356852253803036,-0.4782186799049354,-0.007528320795664771,-0.11958669760900432,-0.7956564728163993,-0.7530417761636075,-0.9170745520841462,0.6356345016243605,-0.669605775607623,-0.7794104652931858,-0.9415069797544546,0.6432396328040639,-0.6187712561051796,-0.4681069560111779,-0.5344886688505295,-0.5131875750494311,undefined,1498153811928
903d185fccf839df,-0.46994021309599415,-0.5528584013900416,0.5080897898420637,0.41202330383386365,-0.9894543898466293,-1.8155032896928802,1.9072266039818633,-0.8341687088345495,-0.42226569229793803,-0.4547387625449368,-0.008065780220088069,-0.0696420573417175,-0.8087121212121212,-0.7641517923704214,-0.9244429922386591,0.5245010931050469,-0.7237831837666492,-0.7835015470970277,-0.9449284204138422,0.5227006035198595,-0.6506809743405917,-0.46516585617436634,-0.5427870062122219,-0.48819598237345296,undefined,1498153812475
903d185fccf839df,-0.5004325401621504,-0.5657727313487121,0.5080897898420637,0.3767995073499296,-0.9753424154543568,-1.8276595891785838,1.9131042215320033,-0.8028950051567213,-0.4312333805057442,-0.47794758113072144,-0.0055409891772686,-0.061482211031815406,-0.8565828319964349,-0.7641517923704214,-0.927600867816582,0.5325835598166324,-0.7300400614067897,-0.7826972636209555,-0.9585722018802793,0.5335103120885296,-0.6486943504180642,-0.46370093166147924,-0.5453687950639583,-0.547591906213603,undefined,1498153813280
903d185fccf839df,-0.4602381200084839,-0.5769260163130184,0.5214878898156653,0.4285082916125372,-0.9699218526889729,-1.8288870985893362,1.9221060455969556,-0.746680025143297,-0.42944773145876386,-0.4578622774202385,0.0003580013121894286,-0.04178353021643464,-0.8565828319964349,-0.753041789114382,-0.9444430009649676,0.538645325056157,-0.7424123484433806,-0.7888845498207708,-0.9613219484385893,0.55577646437887,-0.6473638877765867,-0.4618687933221839,-0.5361010514927809,-0.5490405436816599,undefined,1498153814034
903d185fccf839df,-0.5323108460211128,-0.604515750452716,0.4972437331145718,0.4188498383637878,-0.9898658205929142,-1.8212495229670127,1.9222822419052585,-0.7379130980962685,-0.4153524490170129,-0.5689312961235431,0.014503201618816065,-0.10670253409609728,-0.9088054255793226,-0.7484126189325698,-0.9591798518250582,0.5932017492415872,-0.7433770789922572,-0.7848441316327881,-0.9662267127591498,0.5337874834469094,-0.651250895264297,-0.46547345433421183,-0.5358268872224207,-0.5434714812890543,undefined,1498153814793
903d185fccf839df,-0.5170646997407394,-0.604515750452716,0.4187682762282214,0.3536326803988402,-0.9736144181758482,-1.8184358021621778,1.897180744275518,-0.8953626104297421,-0.4330075786741846,-0.5278742144585132,0.004066423414675104,-0.10590482752610551,-0.8304715352049912,-0.7567451213745994,-0.9612850973021843,0.6154284196395613,-0.7322368882442444,-0.7886502306223373,-0.9677380238106391,0.5356352971158609,-0.6539416957825216,-0.46515934336663695,-0.5285091782008954,-0.5382829230097764,undefined,1498153816582
903d185fccf839df,-0.5170646997407394,-0.604515750452716,0.4187682762282214,0.3536326803988402,-0.9736144181758482,-1.8184358021621778,1.897180744275518,-0.8953626104297421,-0.4330075786741846,-0.5278742144585132,0.004066423414675104,-0.10590482752610551,-0.8304715352049912,-0.7567451213745994,-0.9612850973021843,0.6154284196395613,-0.7322368882442444,-0.7886502306223373,-0.9677380238106391,0.5356352971158609,-0.6539416957825216,-0.46515934336663695,-0.5285091782008954,-0.5382829230097764,undefined,1498153816607
903d185fccf839df,-0.5517151702177723,-0.6133210046525291,0.39898981400239586,0.35865356237816143,-0.9979709494631243,-1.8128386408938366,1.9041628792803897,-0.8468797242697488,-0.4312958302958474,-0.5197475130454066,0.005598918539739519,-0.11870483970359753,-0.7913045900178254,-0.7641517923704214,-0.9591798518250582,0.6639230503207454,-0.7285018428207438,-0.7845718149162435,-0.963406997884093,0.5875742523272658,-0.6400410210706907,-0.46440708391067603,-0.5188856771545671,-0.5272073876189248,undefined,1498153816989
903d185fccf839df,-0.5267668273336594,-0.5810351212998682,0.566148900759536,0.4001773860851341,-0.9739949898805097,-1.8188317733683153,1.8875609137778047,-0.9583361711185076,-0.4424920271222639,-0.47973558538058936,-0.027907959645893057,-0.10981648855273549,-0.8304715352049912,-0.7595226286639966,-0.9612851120266518,0.7932419524116834,-0.6676480906838855,-0.7777512342933224,-0.9553326776919792,0.8142393701581914,-0.581853124359897,-0.4483405623882866,-0.5227894471036459,-0.48210812794245533,undefined,1498153817751
903d185fccf839df,-0.6237878962304011,-0.632692499590535,0.30073640316411876,0.30070901720352333,-0.9863378254784512,-1.8211703295013664,1.8991241685113915,-0.8876801925827249,-0.42098969918152046,-0.5404874535082143,-0.03551825157633666,-0.08424934438704734,-0.8304715352049912,-0.7734101327340458,-0.9560219394359664,0.8700250752598092,-0.6270577257823051,-0.7780932134013916,-0.9524010139591197,1.0741805291101099,-0.5193980589773648,-0.44230768651635205,-0.5415504276077708,-0.476828775904806,undefined,1498153818462
903d185fccf839df,-0.6279459361250483,-0.6285833946036853,0.18270402182611725,0.17458638487705114,-0.9754349860735326,-1.8186267997553909,1.907184520841314,-0.8289108047225191,-0.43797715730604525,-0.559492757335303,-0.04046956523181624,-0.03439974030133708,-0.8913978943850268,-0.7826684666222828,-0.960232481925855,1.051879784858281,-0.6176992465093848,-0.7828682529286084,-0.9601184965579577,1.031188067781676,-0.5304754365865028,-0.4393362601377245,-0.5431306384335299,-0.4560942090164761,undefined,1498153819247
903d185fccf839df,-0.6279459361250483,-0.6409107095642343,0.26117897043856886,0.17690149372347355,-0.9845172567205427,-1.8224304472944104,1.899579122939319,-0.8886920787211819,-0.43210499881926284,-0.5793645000693184,-0.04165980662032973,0.0015033513354630592,-0.847879066399287,-0.788223455299528,-0.9644429949668084,1.0498591116509415,-0.5862671032723034,-0.7881879252854177,-0.9617277632125198,1.006627547119839,-0.5386691886556314,-0.43483219487593805,-0.5486071958453123,-0.44266212277516553,undefined,1498153819969
903d185fccf839df,-0.6307179627214798,-0.6227132446224714,0.17185745682472656,0.1378960666021959,-1.0024143695114633,-1.8173759984969977,1.9186294391328846,-0.7620241281658005,-0.42845899476002464,-0.6105359185735851,-0.0478767327078897,-0.02580328156986395,-0.8087121212121212,-0.7771134649942631,-0.9686535448189308,0.9811584555144013,-0.6065850889581906,-0.781335680237553,-0.9671223044779598,1.015543246683219,-0.5353367902493675,-0.4324591985807617,-0.5683841027512486,-0.4284662564772905,undefined,1498153820752
903d185fccf839df,-0.6057696888481866,-0.586905271281082,0.31030618413160627,0.30070901720352333,-1.0237880473372394,-1.8253303506058352,1.905064898202094,-0.8649147797277511,-0.40454102764781247,-0.6398343884956104,-0.04156377697561365,-0.007352417324327728,-0.9305648395721926,-0.7650776238166289,-0.9970746532494842,1.0054057708549933,-0.6054320741561426,-0.7792964719083528,-0.9749237486421573,1.002577755105878,-0.5395923109349681,-0.42573366416442265,-0.5732921275196146,-0.40822676931736546,undefined,1498153821489
903d185fccf839df,-0.5822074627785188,-0.5933624362604173,0.2726634191830123,0.23994886257775017,-1.0444725820350667,-1.8313747259779671,1.9175301802375588,-0.789612553912714,-0.4029229358278398,-0.6143165703130993,-0.06721752963197998,0.017889654275656475,-0.9392686051693405,-0.7687809560768463,-0.9812851428396616,0.9649935786206733,-0.6151228383443946,-0.7750154021042425,-0.9763371042373831,1.0074744600577568,-0.5371527739514474,-0.4256165321132272,-0.5800413723175798,-0.41268374512970285,undefined,1498153822258
903d185fccf839df,-0.5822074627785188,-0.5563804621507776,0.29882173538716283,0.2373925323823519,-1.0254440408534673,-1.8406357807131326,1.9118103498477155,-0.8281314651262518,-0.40785482502700443,-0.6660979191105999,-0.07237916663573472,0.05280921681813054,-0.8783422459893049,-0.7382284341719634,-1.000232528827407,0.9266020595936927,-0.5865822921131277,-0.7771749360587965,-0.980416244898964,0.9430319654611785,-0.5527475997607884,-0.4301824892843471,-0.5852573670126601,-0.40751395536086676,undefined,1498153822973
903d185fccf839df,-0.5960675957606762,-0.48476457392398364,0.325618443608265,0.37427376722352057,-1.0106943516884046,-1.8501437350581798,1.934902675536187,-0.6824630424960321,-0.4135809099121775,-0.6020609019054997,-0.08447153554601208,0.03168898333617398,-0.9305648395721926,-0.7261925929943293,-1.0097062365457474,0.7447473782599424,-0.6187520871760535,-0.775674028401718,-0.9834458640269165,0.7741880118292246,-0.5919313650534592,-0.4289151602136072,-0.5978259426687251,-0.41082054816350294,undefined,1498153823764
903d185fccf839df,-0.6029976622517551,-0.448956659038579,0.31030618413160627,0.3696892190979315,-1.040965160075139,-1.8443858564237916,1.929656215007409,-0.721338281879988,-0.3882802247241052,-0.6116381606647194,-0.06559817631160907,0.011363446234624248,-0.9349167223707665,-0.7410059414613606,-1.037074678064335,0.627552034912775,-0.5973073841559161,-0.76949307532829,-0.9937731568441897,0.7504898047047212,-0.596108139025312,-0.42986510831681707,-0.5965466725706075,-0.414521127009852,undefined,1498153824485
903d185fccf839df,-0.7000187311484967,-0.48006845393901254,0.2815953164074471,0.3092292698475322,-1.0633776947881877,-1.8532951966400384,1.9320519664865512,-0.7239647704563369,-0.42574008223068427,-0.5536616065338776,-0.0626326938880018,0.0259592936979305,-0.8696384803921569,-0.7039725605807013,-1.0139167716734023,0.627552034912775,-0.5973073841559161,-0.7654336585362784,-0.9772326960479489,0.8544293139172956,-0.5658025391876145,-0.4371724388098701,-0.554475421444237,-0.3032174614018733,undefined,1498153825239
903d185fccf839df,-0.6307179972268896,-0.5058971723123382,0.15271738661585263,0.17549716946744498,-1.1032759123540825,-1.861326413278379,1.9182586352732276,-0.8368032546363907,-0.42768248788292584,-0.5238868614471689,-0.05899958748209047,0.0886357795894464,-0.843527183600713,-0.7021208976882863,-1.0139167716734023,0.758891638475774,-0.5576957282872325,-0.7672955438500884,-0.9778973931913404,0.9811431194619786,-0.5328107738604626,-0.4376993609907022,-0.5948835882045415,-0.3078994353127002,undefined,1498153826024
903d185fccf839df,-0.6348760026161271,-0.5111803072954307,0.11698878117031569,0.1497839575992287,-1.1559901092801308,-1.8725766384587184,1.9306897314349478,-0.7757707227175931,-0.40823920551131343,-0.5645511913359222,-0.05383134864919278,0.03795144802113475,-0.8783422459893049,-0.7132309268458747,-1.023390464667275,0.9609523452648805,-0.563395288264334,-0.7716779409966502,-0.9859017448587273,1.0531154543664343,-0.5184008741986794,-0.4378465469302865,-0.6180193097643931,-0.32021568460766126,undefined,1498153826792
903d185fccf839df,-0.551715066701543,-0.5886663162754462,0.09593404318448587,0.1214901218446286,-1.1402735650895812,-1.8924683412868106,1.9473232587691833,-0.691934543724746,-0.4162582162949878,-0.5157590465872393,-0.03493200979666953,-0.02554601683147849,-0.8957497771836007,-0.7447092737215779,-1.033916773037477,1.2882909469069044,-0.4203117660089233,-0.780759382202347,-0.990190789785438,1.1892377130808938,-0.48989504416668306,-0.43379861066072334,-0.6463288435696912,-0.3260002277992018,undefined,1498153827495
903d185fccf839df,-0.535082907122954,-0.6238873038467065,0.09593404318448587,0.1214901218446286,-1.1306667242477015,-1.8974925096269197,1.948330474019521,-0.6919387318845766,-0.39597175844647753,-0.5548516129926894,-0.02806638623730633,0.020419118998791095,-0.8957497771836007,-0.7576709528208069,-1.0297062526342897,1.260002369945798,-0.4439476997797857,-0.7834445501499245,-0.9892812042674798,1.2493994394260726,-0.47792011203124674,-0.4370467733733955,-0.6403007444868862,-0.3373959889416864,undefined,1498153828275
903d185fccf839df,-0.4671682555103821,-0.5992326154696236,0.09593404318448587,0.09605663799046199,-1.1207513137189868,-1.8867686920486355,1.9391366716829184,-0.7372641268224125,-0.391567706009876,-0.5134568256609692,-0.016138347721563494,0.003912846889974023,-0.9044535427807487,-0.734525101911746,-1.0254957322311025,1.1549307549307306,-0.4305222114742637,-0.7709053213586351,-0.9861886138171692,1.2737135848799952,-0.4668843453337958,-0.4348689932532208,-0.662513623293681,-0.338492355214455,undefined,1498153828980
903d185fccf839df,-0.3673751255117993,-0.5757519863167757,0.11443673792420592,0.1463747230992635,-1.0921056477569275,-1.8798298886138902,1.943191837004035,-0.6949380000299523,-0.4174116938623099,-0.42900471365896814,-0.01510194575128134,-0.008250360220407002,-0.9479723707664884,-0.7289701002837263,-1.0097062439079811,1.1549307549307306,-0.42253707110374344,-0.7656869757297076,-0.9848732134335245,1.2855395921943513,-0.4620537503774903,-0.4269857912154602,-0.6581276341197887,-0.34418973353346827,undefined,1498153829779
903d185fccf839df,-0.4242017915075792,-0.5822091805241033,0.243953059732752,0.21726513441868975,-1.1182004632940823,-1.8801979082531117,1.9599410756906712,-0.5907120386543943,-0.3918307559272882,-0.44548013545914134,-0.027701025388591653,-0.005350551133402473,-0.9479723707664884,-0.7039725735314759,-1.0223378345664782,1.124621617821171,-0.40320229681877207,-0.7555795977811532,-0.9883506286166279,1.307959729006466,-0.45420852856805966,-0.42966243491753203,-0.6654229041100787,-0.33389554718904174,undefined,1498153830478
903d185fccf839df,-0.42004375161293195,-0.5757519863167757,0.25735115970635364,0.2250719762743365,-1.1175833204635115,-1.8800302025256606,1.9518649403498787,-0.6384513520896689,-0.41328132911995485,-0.40428680114276827,-0.04181338104436955,-0.043643254358223194,-0.9566761363636364,-0.7039725735314759,-1.0297062526342897,1.1226010011432745,-0.42791104734158375,-0.7572514952663314,-0.990246764333622,1.3187848356032505,-0.45304552515773816,-0.434926046096317,-0.6691432904928313,-0.32744630269623803,undefined,1498153831269
903d185fccf839df,-0.46162415055940453,-0.56812082056919,0.2133285407794346,0.26569336616117756,-1.146774129494903,-1.8779432041864594,1.9364805733272015,-0.7449676229602564,-0.4076700351369159,-0.36707536309956645,-0.05392903814073054,-0.003668539359958707,-0.9610280191622104,-0.7252667485973472,-1.0318115128358833,1.0357147666409452,-0.419084580926512,-0.7587397367592219,-0.9985659724782253,1.2891582259184045,-0.4625483825653905,-0.43221610145441386,-0.661116874716067,-0.3072166314133084,undefined,1498153831987
903d185fccf839df,-0.3673751255117993,-0.5475752371789567,0.1693059218525156,0.16731664218865602,-1.1084804788905467,-1.8666766745214134,1.9345266309249955,-0.7406529745734848,-0.4032549175866197,-0.2970613017438922,-0.03416663033371925,-0.00691480807780909,-0.9131573083778967,-0.7169342396799303,-1.029706237909822,1.4034655605172892,-0.3203387344151863,-0.7650410155908836,-0.9861816175751793,1.3525536250803392,-0.44559055375608697,-0.4284110529904881,-0.6821345603601541,-0.2252425531220823,undefined,1498153832814
903d185fccf839df,-0.5045905800567977,-0.5669467905729473,0.021925297321201086,0.027957844261036802,-1.1742780868606757,-1.8413159183993928,1.9263005973105365,-0.7978977943064374,-0.37445575252966756,-0.2641247721922042,-0.02737497186147502,0.007502577473873169,-0.9436204879679144,-0.7141567582920824,-1.0033904338542652,1.526722556045095,-0.3896670854350783,-0.7837168659252358,-0.9849221917030162,1.3933287078682166,-0.4405421481500689,-0.431092382285155,-0.7055277806899256,-0.2326266156738788,undefined,1498153833441
903d185fccf839df,-0.47687031409248265,-0.6497159637640475,0.11954082441642548,0.07880259641298798,-1.1439249973387902,-1.8595515318405131,1.9663683216409524,-0.5463859174292038,-0.36310394287814407,-0.32789278082867584,-0.049465638367101404,-0.02757902544193873,-0.9044535427807487,-0.71878591552312,-1.0002325509141086,1.0660239037505048,-0.4595640977867739,-0.7727292086615707,-0.9796535930333564,1.2843847068742318,-0.45978298009683033,-0.4351063702220836,-0.7374989066953064,-0.21490805824430162,undefined,1498153834226
