UUID,iqrAccX,iqrAccY,iqrAccZ,iqrAccXYZ,meanAccX,meanAccY,meanAccZ,meanAccXYZ, covarianceAccXY, covarianceAccXZ, covarianceAccYZ,pressureDerivative, pressureIQR, iqrGyroX, iqrGyroY, iqrGyroZ, iqrGyroMagnitude, meanGyroX, meanGyroY, meanGyroZ, meanGyroMagnitude, covarianceGyroXY, covarianceGyroXZ, covarianceGyroYZ, class, timestamp 
903d185fccf839df,-1.0174160438568294,-0.9866627188256856,-0.9102093877997192,-0.9838199970447812,-1.795318187766218,-1.0012385277580687,1.6305026417882864,-1.00685237431529,-0.31728950427327113,-0.7211920896828916,0.08109666098602426,-1.0331233572872258,0.2531472816399287,-0.7002692526031863,-1.03917996035263,-1.0152020601835527,-1.1082061556121077,-0.9117711065842561,-1.0875140957004985,-0.3655997928631517,-0.9527961924066919,-0.5073165785532394,-0.623935745564219,-0.49409535298365753,undefined,1495395430712
903d185fccf839df,-1.113051039070888,-0.9667042673455432,-0.6454350280843042,-0.7950985865874072,-1.7931700571618057,-1.0476584745382282,1.6449372302281091,-1.0489209743045003,-0.31702566579052166,-0.7141872412111732,0.11049123211428528,-0.7755664237605092,1.8959830381016043,-0.7817426351760753,-1.0897063377110854,-0.9687281027097081,-1.1018781016103463,-0.9116574362775082,-1.0765524268484605,-0.4309049950398998,-0.9721071957962321,-0.48674787503080724,-0.6164185195355333,-0.48163322651397544,undefined,1495395432828
903d185fccf839df,-1.1185950836373988,-0.9467458158654006,-0.6262947037384808,-0.7776396749621546,-1.8157279472233963,-1.0825106747922086,1.617586529717488,-1.3197184267696451,-0.288954925054095,-0.6901872523392881,0.15092555876026204,-0.7755664237605092,1.8959830381016043,-0.8224793224154028,-1.1181274166927035,-0.9242747336490383,-1.1397888837529002,-0.9243615996563808,-1.0780517438077153,-0.364023284872378,-0.9625007873570532,-0.485499835093193,-0.633930743583463,-0.48720467336683787,undefined,1495395432871
903d185fccf839df,-0.647350105047364,-0.45013071826281414,-0.13215463133386368,-0.40940160001495124,-1.3897135904585494,-1.1706221472120006,1.702469313852154,-0.8818551437381756,-0.3339744110947811,-0.5475107122531782,-0.044474705490303655,-0.26239020300021726,1.4520909926470589,-0.6150925474831608,-1.0233904573050412,-0.0998668034811122,-0.8710663558303723,-0.5996567691087312,-1.000719718180907,0.30814285451041235,-0.6543901000145367,-0.4961947958368969,-0.6832145663106788,-0.4329422103027108,undefined,1495395434397
903d185fccf839df,-0.04443373373154626,0.07231321462506746,0.5693390818856479,0.4674599715406727,-0.9518849762354461,-1.478242055095598,1.80181440372127,-0.7290088066110544,-0.6114693626705623,-0.5868884787084572,-0.2287533520771696,0.04292438133901942,0.6665761475044564,-0.5262124566809728,-0.9918114880210326,-0.12815521085388934,-0.8475314320954582,-0.5680147713125608,-1.0026548583939263,0.014613492358505733,-0.6841591141508855,-0.4549712240837744,-0.6724143896300724,-0.4753063451660681,undefined,1495395435873
903d185fccf839df,-0.21907156458107485,-0.18597364760027404,0.8143352335121867,0.7834956152534501,-0.8492449458187935,-1.4058264404441605,1.7568474392403663,-0.8502739445559413,-0.45122994245948533,-0.7311398634833385,-0.14464499854322987,0.12394872348372801,0.6883355614973262,-0.5725041844006437,-0.9833903956790215,-0.07561945987579863,-0.8102505898795077,-0.5725872848793292,-0.9674274654589432,-0.09799459508056026,-0.6902820210519665,-0.4654298452390642,-0.6346481432965206,-0.5149477657584806,undefined,1495395437405
903d185fccf839df,-0.40063951367979683,-0.13372922508349355,1.4102378397527193,1.0465667496536575,-0.731129109277635,-1.3500980012799664,1.669355394299693,-1.1633485604611307,-0.35036163441105583,-0.7035545322252655,-0.13226933870546434,0.1534339197998364,0.13999832887700536,-0.5891691374816046,-1.0128641268481378,-0.08774307514901235,-0.8160389767903516,-0.5773055322673089,-0.978744539356842,-0.15840668238588781,-0.7095108597814879,-0.45959351715223173,-0.595723483348131,-0.5200439765728136,undefined,1495395438891
903d185fccf839df,-0.4505359924155639,0.18443313772223713,1.3885454721607862,1.3240672487666365,-0.6661440789835271,-1.3643972006177743,1.691766589368341,-1.0266996197366907,-0.44249581672044963,-0.2769297349247412,-0.062443526044843295,0.003971158122125445,-0.3822276069518717,-0.518805766258989,-0.9918114953832663,-0.0796606084374268,-0.8015389052603571,-0.5313745296126778,-0.9754187345955289,-0.1855908665187889,-0.6830588812199616,-0.43689723943353737,-0.6130178515796285,-0.551318497692666,undefined,1495395440388
903d185fccf839df,-0.17610515233638652,-0.028066496193651487,1.9193712297624688,1.953112764395054,-0.5509854175495126,-1.5614135716870685,1.8081355073383099,-0.6470567740744425,-0.5083043809880382,-0.09155398967044097,-0.17294283433610025,-0.0582636369741229,-0.6085255124777184,-0.38085656348009145,-0.9054955694397447,-0.1463407185578745,-0.6496974564728522,-0.45309288033709627,-0.9345311588088084,-0.22903610232611155,-0.6371201824660335,-0.3910273713856503,-0.5792206646842795,-0.5234773083487679,undefined,1495395441879
903d185fccf839df,-0.14006866856113803,-0.2587635365953184,1.9787061081660464,2.00593729559926,-0.42084049808511453,-1.729340072332492,1.8776386480253593,-0.5738427134570738,-0.41187999927877467,-0.453984402429967,0.013743699363647542,-0.08403228091469236,-0.669451871657754,-0.2058739603943728,-0.8518113165033664,0.011266689832366028,-0.49447104758027616,-0.3424310228616224,-0.8752611751203565,-0.1312251788437212,-0.5443655665743762,-0.36979294541216867,-0.48344613757888055,-0.5278068764667987,undefined,1495395443448
903d185fccf839df,-0.03888969779138811,-0.19536591679820858,1.6635287672714887,1.4754559044503195,-0.48428267191295477,-1.5910438231228201,1.8021816186788322,-0.798356494455962,-0.49093612601410336,-0.5194473075701938,-0.07767031224350819,0.04633651514888344,-0.6955631684491979,-0.17161812565543438,-0.8781271131966896,0.053699470479860935,-0.4432656432879979,-0.31041799174744283,-0.9064109773818887,-0.02582282116397011,-0.5179503210954532,-0.37617683955915326,-0.48451753454242813,-0.49991216208278394,undefined,1495395444884
903d185fccf839df,0.2674193791359321,-0.3339015732668254,1.540392553578217,1.3528614401387198,-0.34169205459485436,-1.5874847450031089,1.7928615915373443,-0.8078119254140089,-0.6184470551488841,-0.6996966428677382,-0.07304493951294719,0.013184980220318115,-0.7390819964349377,-0.08366388572561585,-0.7939164916281644,0.3224402732570543,-0.38697316974505686,-0.23092054850831828,-0.8797601250645953,0.11242442148737339,-0.4449623606307761,-0.3992410530264264,-0.5025653147282332,-0.46745666767523397,undefined,1495395446379
903d185fccf839df,0.30761390280582784,-0.27754813344717216,1.1575853042509017,1.2112827855820314,-0.17931174942898326,-1.7132753085662402,1.8342389600876998,-0.7621005915549435,-0.638362440782118,-0.45224350558259724,-0.03945486114542453,-0.011225620335778131,-0.7564895276292335,-0.11329058265967848,-0.7781270033050431,0.3264815914070117,-0.4385803345483126,-0.22769074585975524,-0.8789484951741785,0.22283127440834846,-0.42943295896290784,-0.4261719746214032,-0.46500564085574203,-0.4744042766775479,undefined,1495395447877
903d185fccf839df,0.1412922380091181,-0.6238873038467065,1.5773969265098593,1.516706266589576,-0.08828333406742947,-1.9013287664687806,1.8982037435842458,-0.7168996257775223,-0.27484880157397124,-0.3719883833791347,0.10764696673099307,0.02846559963663458,-0.8826941287878788,-0.22161314030761164,-0.8602323646719747,0.17493599065337803,-0.5594905805927434,-0.30595326145527224,-0.8832655269834894,0.19586859379328786,-0.476378453752092,-0.46766955379086433,-0.46471850688423977,-0.4698774572253681,undefined,1495395449373
903d185fccf839df,-0.17333305672913554,-0.6115599742721611,1.5148721211171192,1.5254024200062153,-0.08299648606572871,-1.9352681105074032,1.9005021907639505,-0.7524253855788121,-0.21672909386832387,-0.024968894005067285,0.19976381378527733,0.027410706015778764,-1.0045468471479502,-0.3975215424626014,-0.9202324423865367,0.045617003768275384,-0.726402945813292,-0.3750646734535677,-0.944655543719166,0.16274653835182815,-0.5350753088588931,-0.5316425132356694,-0.5317762943315124,-0.4475774361608869,undefined,1495395450910
903d185fccf839df,-0.2287737266794046,-0.5135283234459278,1.5997276861187442,1.6766013645863265,-0.19453458210219185,-1.865942962312192,1.885780534214112,-0.771317109844201,-0.16225515027962786,-0.30171939938221126,0.06885412391897905,-0.07083068219740413,-0.843527183600713,-0.4132607223758403,-0.9065482069027753,-0.0008569819702907558,-0.8173497404385259,-0.40519681931003526,-0.9314245743941888,0.11417984180464721,-0.5576894636207765,-0.5101298042702399,-0.5487604243359804,-0.4673014804159099,undefined,1495395452378
903d185fccf839df,-0.06661003276652262,-0.07913683025820453,0.8596341281991101,0.7983580607510329,-0.4888906613214425,-1.609379593158084,1.8394854279491302,-0.6867588520109835,-0.6254787763452619,-0.46311450934396914,0.037526251591666004,-0.05926342919463811,-0.517135973707665,-0.44196156843753354,-0.9465482758910287,0.021369744957126426,-0.7827908602195202,-0.5100830339732908,-0.9614758773052634,-0.025129893084384368,-0.6438791127228368,-0.4905099360593918,-0.5429175641796481,-0.49350495582864795,undefined,1495395453884
903d185fccf839df,-0.33272475855099576,-0.44895662981058665,0.3683652950490785,0.33783935968494666,-0.8022855640804615,-1.4153283462787307,1.790329088183049,-0.8148042893784558,-0.42302823011641805,-0.7809512867597449,0.11588261547917096,-0.06599861168298807,-0.4300983177361854,-0.52898996397037,-0.9939167261359249,-0.20695897864463306,-0.8078754917199408,-0.5932789152735823,-0.98511110436104,-0.20832519946083006,-0.7255340861758305,-0.4581828593966837,-0.5654911379556218,-0.4616428782444731,undefined,1495395455378
903d185fccf839df,-0.6071557021464024,-0.4806554397091416,0.5361622655492713,0.5418380180970521,-0.7746684676942155,-1.353545278236262,1.7282446220194232,-1.0585895647679542,-0.5172027962948572,-0.3907697229485154,0.06945425170531554,0.0000627480793572075,-0.9001016599821747,-0.5030666575750102,-1.0349694215438583,-0.37264879721701605,-0.7922252801455755,-0.5819366136290632,-1.0261683903712846,-0.37238023720517976,-0.752480482658957,-0.4498559709868239,-0.6124396594790191,-0.4711953336866085,undefined,1495395456881
903d185fccf839df,-0.36598911221358355,-0.24056607165355542,0.8928106903985372,0.878594165144666,-0.6122675977960026,-1.5575703281704205,1.8335762412346863,-0.6981814682428491,-0.5203269009784286,-0.5013080605671868,-0.06461795228252672,0.040863874896731246,-0.5780623328877006,-0.49936331883940555,-1.0444431108566141,-0.4433699993696488,-0.8391745225023873,-0.5946594972388671,-1.0380909566067416,-0.33787231954650915,-0.756282653348039,-0.41570347058412405,-0.5790056996543107,-0.4398724272603521,undefined,1495395458404
903d185fccf839df,-0.04304773768603537,-0.27989613498367305,1.5206140913523916,1.470258234055575,-0.4146793613399731,-1.6431535649247897,1.8832059471955065,-0.4609143672531321,-0.47893204944196516,-0.19556065606030829,-0.11501873348672871,-0.01986541542845907,-0.49102467691622104,-0.47529160410720084,-1.0549694339512836,-0.5019676710432326,-0.8340640470185359,-0.592208647626003,-1.0332351698522106,-0.40765807183201475,-0.768423115883281,-0.3991810424012919,-0.6092780810120331,-0.4279825300715377,undefined,1495395459882
903d185fccf839df,-0.17887710992199857,-0.2493713550813609,1.6144018077154005,1.4491266781444312,-0.5472414253699117,-1.608340754897859,1.8914372404168927,-0.3717516334456728,-0.30497473486840965,-0.35532847588757227,-0.10117495286322878,-0.223844857501517,0.09212761809269164,-0.49658575974691027,-1.0549694413135173,-0.5423798491451919,-0.8453516162332271,-0.5603096095146266,-1.0242302743273317,-0.43155645909733986,-0.7549339760043778,-0.3769210147138977,-0.6174091332291106,-0.44072333269056363,undefined,1495395461389
903d185fccf839df,-0.4269737663458961,-0.3063118683551202,1.4095999560096666,1.3435812177478803,-0.5862653570171017,-1.5851741428919235,1.7616063480413025,-1.2056462077755894,-0.25777032365549923,-0.3445691879539632,-0.07567382038015252,-0.22547076200006444,0.9320409982174689,-0.49936329941324376,-0.9549693093351695,-0.3585044946041021,-0.8321233015662615,-0.5106783312990723,-0.9913102786448496,-0.39635561302252587,-0.7148361406290307,-0.37753005098945697,-0.618834619754873,-0.43376274946144744,undefined,1495395462873
903d185fccf839df,-0.3077765536885219,-0.5029620096377543,1.2105403286761542,1.0676705068467103,-0.5588334019252222,-1.670913436594045,1.7840859279514618,-1.277405405333454,-0.37480790121012125,-0.5131947102458139,-0.11108858583582049,-0.2442462248740926,-0.6128773952762924,-0.5539874777718459,-0.9665482772551035,-0.22514438742209283,-0.9232339523401998,-0.5564781802065109,-0.9823543610836093,-0.3167918454015634,-0.7242317560180446,-0.3880037762881411,-0.6454084427336525,-0.4473174261870275,undefined,1495395464364
903d185fccf839df,-0.23570379317048334,-0.5510972979396928,0.7269278794014015,0.5940581223621115,-0.3712942895392718,-1.6271959442086568,1.7886328625920733,-1.1562315937037086,-0.29800229712641557,-0.8544542168846303,-0.005016970354141989,0.26185103982095953,-0.6172292780748664,-0.6345350531812297,-1.0097062365457474,-0.5605653144520947,-0.9244280232241392,-0.6479638847306785,-1.0160999797827799,-0.5692185619525585,-0.8245955533477821,-0.39420569678808287,-0.6698576493228181,-0.49864278335368056,undefined,1495395465922
903d185fccf839df,-0.3257947265653267,-0.6215392146262286,0.3581573762015888,0.3406820416895324,-0.3618623059651551,-1.5802221772368958,1.749354091347252,-1.3677227745401637,-0.30244654116045205,-0.6616037625737935,0.050562870838294596,0.19216536169750728,0.4925008355614974,-0.6669392315031404,-1.0191799258585033,-0.5524828618728699,-0.9541738185247783,-0.7140608184563583,-1.0376081767174214,-0.5881740500470374,-0.865869993642883,-0.3881371350747386,-0.672809428300784,-0.5123624442176687,undefined,1495395467364
903d185fccf839df,-0.47132626089961965,-0.5593155079133921,0.3581573762015888,0.4223905877219616,-0.4796952465646337,-1.5686738073781186,1.805187505773857,-1.0146154293960143,-0.31170117456101626,-0.5336128243549634,0.076386238285283,0.2019583311163817,0.5055564839572193,-0.7252667744988962,-1.1012852982687855,-0.41508154959978943,-0.9874922804110868,-0.7881499275956702,-1.0790013098393756,-0.5144000987889288,-0.9045413568982975,-0.43359695324485614,-0.6691662398171205,-0.5282410768694944,undefined,1495395468870
903d185fccf839df,-0.49904659587475414,-0.5651857163505908,0.6063437089542396,0.6868191979771656,-0.8255106663889055,-1.5941207467170746,1.8422730238106821,-0.8998048359946871,-0.3265139598465239,-0.224181220646207,-0.049351789369838736,0.08025024220326604,-0.7434338792335116,-0.7419317729075681,-1.124443212021952,-0.4575143443796451,-0.9925311920280521,-0.7550349644366509,-1.0742294845645652,-0.4732862486396051,-0.88015591278238,-0.42352875883909497,-0.6137047857282572,-0.487556205520528,undefined,1495395470346
903d185fccf839df,-0.5350829761337734,-0.5534453579321783,1.1684318692522924,1.1561026504133025,-1.0668645495311264,-1.7889103641205426,1.8726288703320704,-0.9791227128642245,-0.3498415515154585,-0.5372630653516713,-0.15400616749318785,0.08740830965078497,-0.7173225824420678,-0.41326073532661484,-1.0181272920765896,-0.18069099009670156,-0.7590205742645852,-0.5426153687611962,-0.9744759524034945,-0.25442814227300214,-0.7084628508551652,-0.3759901396335556,-0.5937441876703111,-0.4626908091801252,undefined,1495395471865
903d185fccf839df,-0.2287737266794046,-0.4765463785642804,2.3653409140886277,2.2018074778908336,-0.9408133338350875,-1.8809106550184178,1.921777312831347,-0.6735929462449846,-0.303457781242504,-0.5016844711762951,-0.28781774388444653,-0.08295625801345871,-0.5693585672905526,-0.20679979831596762,-0.9370745828971561,0.047637662843254075,-0.6341196665806283,-0.3227925600056473,-0.9204325846476213,-0.1175051636549091,-0.552471840584621,-0.40721707575660576,-0.6467420819104033,-0.458946808669344,undefined,1495395473359
903d185fccf839df,0.07476356518935225,-0.48711260468847684,2.3991556141680572,2.3574950767646037,-0.5715568119065226,-1.8726721369019643,1.9537294521502118,-0.39429405314188887,-0.3356938263251084,-0.6525074048155434,-0.14208491674609608,-0.0013941810683813175,-0.5867660984848485,-0.29475401234423704,-0.9360219233474241,0.23555418007833273,-0.7237061870617327,-0.3306200789113502,-0.916423412376192,0.00588257854842617,-0.5342275269968868,-0.40498647940104704,-0.6302852501273701,-0.5553827644646021,undefined,1495395474871
903d185fccf839df,-0.026415578107446342,-0.56166359713387,2.0878060840057144,2.096991471290283,-0.5294780266004808,-1.883989911057505,1.9893659560731012,-0.20514374788129802,-0.30515864199427173,-0.9677868889329503,0.0143851810970803,-0.08138733546302944,-0.5954698640819964,-0.2975315131582469,-0.988653568269707,0.1951419737116519,-0.7268914678151996,-0.3919166408755604,-0.9364342910430603,0.033122428435208684,-0.565353234600912,-0.4252366601670128,-0.5665388050397476,-0.5688956921463957,undefined,1495395476377
903d185fccf839df,-0.07769813915224864,-0.5170504280486523,2.0878060840057144,2.0804319866833705,-0.6210413038815125,-1.8415092461396885,1.9757435594661101,-0.2909960670907547,-0.3351872692801452,-0.7229637853917321,0.059250975950033535,-0.014681811535401493,-0.7347301136363636,-0.3540073673600387,-0.9412850738514081,0.04965825125642893,-0.7496255739962654,-0.4149748892755612,-0.8997220250276607,-0.11424069616854227,-0.5927323079207266,-0.4082110601622807,-0.5719001460551082,-0.5343694645495068,undefined,1495395477912
903d185fccf839df,-0.11927860710954069,-0.535834937216529,1.9123529837671922,1.9635937074335397,-0.6614640919583593,-1.8244825072152284,1.9421293791206127,-0.5103394132717978,-0.3114130683973664,-0.6579365538076317,0.07024795270743428,-0.01754703049330677,-0.7869527072192514,-0.4539974743690405,-0.9833904104034891,-0.015001213921400854,-0.8129454736729536,-0.47731005573584,-0.9269116318803312,-0.14206568700920805,-0.6331268343720946,-0.40121268257854065,-0.5777740447209085,-0.5436355759825021,undefined,1495395479372
903d185fccf839df,-0.3687612078208345,-0.47830737971665604,1.443414656089096,1.5676648808611502,-0.8366500825171911,-1.8048842882431797,2.0306276111760124,0.051122251842392746,-0.30898413293166,-0.5466088425014098,0.01288705976063946,0.08193379812877011,-0.7695451760249554,-0.45955243714473654,-0.9633903943149468,-0.07763999175953042,-0.8954735484969164,-0.5584413969377585,-0.9305009951871899,-0.18402644936948476,-0.6857674496870739,-0.3760164936325754,-0.5165760752902858,-0.5194978617881707,undefined,1495395480880
903d185fccf839df,-0.2869863887206954,-0.4407384490648796,1.290292061322509,1.3887885490941363,-0.8299335204325714,-1.8423896963197461,1.9677778737757476,-0.39232883644879535,-0.38199924447649736,-0.5629378494187558,0.05030775621113039,0.0005756433319972032,-0.9262129567736186,-0.41974156840084204,-0.9391798430987497,-0.13017582753178572,-0.8567286886717936,-0.5624881472056986,-0.9312916350731709,-0.19870116758362505,-0.6835988472288893,-0.4175761554195546,-0.5699141123957974,-0.5035129123829691,undefined,1495395482374
903d185fccf839df,-0.2689681123276614,-0.561076611363741,1.476591218288523,1.449613428393312,-0.7491188020441687,-1.8649204280872713,1.915610416376445,-0.7375056980479098,-0.3809244070037183,-0.8559951753639482,0.058186700023974046,-0.008995685429367666,-0.9436204879679144,-0.4539974484674914,-0.931811395582003,-0.10996974554698645,-0.846853544187427,-0.574254756342363,-0.9509176898881034,-0.1252967765930115,-0.6854789624077776,-0.4393260988597965,-0.6110399329339418,-0.4653280591839294,undefined,1495395483884
903d185fccf839df,0.1329761582198236,-0.6092118996656795,1.4548988506965899,1.5289498567267263,-0.5210643237863265,-1.8775612091237095,1.8814650199213774,-0.9106081409802953,-0.36823127486204377,-0.9765222346280109,0.12602778177672067,-0.02783076871223532,-0.7347301136363636,-0.5447291115066725,-0.940232458475079,0.0072255130060163274,-0.8590282503272899,-0.5885545426786875,-0.9495952919228323,-0.05494128189330505,-0.6797673579126204,-0.43187977489278534,-0.6207668607214627,-0.4943998480191631,undefined,1495395485369
903d185fccf839df,0.02902509184282269,-0.6737836079150168,1.3993917830252274,1.420648740623074,-0.49928950300584946,-1.8876770964589513,1.8292896615889436,-1.2868369042888874,-0.28615068914780545,-0.8982373388972366,0.16503256120130572,0.04261260349230035,-0.7956564728163993,-0.5326932962305874,-0.9307587433945048,0.03349338849506167,-0.8861681569664667,-0.5970280193092282,-0.9398277448014967,0.036155921164991625,-0.6672170960982428,-0.45010797394366636,-0.6417098426345846,-0.4576411611805391,undefined,1495395486877
903d185fccf839df,-0.17333312573995502,-0.6162560796431361,1.442138634466041,1.4920320901330444,-0.5051420610738143,-1.8642729005623377,1.8138684809841013,-1.3421715675036998,-0.35406586573220633,-0.6932651963846058,0.10667437892871853,0.03984919956097653,-0.6215811608734403,-0.5243607937885578,-0.9191798270102074,0.1486681434290542,-0.8644528620360662,-0.532292668385601,-0.9107489990732941,0.13024042215522452,-0.6118218330117038,-0.4325006687449884,-0.6090749499957453,-0.4409147156329475,undefined,1495395488384
903d185fccf839df,-0.1289806656916412,-0.5387699829791436,1.6131255319553963,1.6317898718071497,-0.6099430305093725,-1.8591672087150546,1.8381705152183285,-1.205344018974735,-0.32172013171393404,-0.2376040489910586,0.15950853111291938,0.04881031492543071,-0.7303782308377896,-0.5604683432230095,-0.864442885075162,0.25576023379841045,-0.8738650773218947,-0.4967775207466234,-0.8448530342306312,0.21620994248950054,-0.5555840752652302,-0.42680368895985155,-0.6618325828113458,-0.4155049857923472,undefined,1495395489876
903d185fccf839df,-0.17610508332556707,-0.49415681389392585,1.4606408209318622,1.578557439655054,-0.5642025378658461,-1.8611004771761779,1.8605317618290376,-1.0509023649400977,-0.3351904002785257,-0.4082413351433558,0.2605757362185185,-0.018060293907325085,-0.8130640040106952,-0.528064119573388,-0.8118112769640481,0.3264815914070117,-0.8624852976451601,-0.4600654469851588,-0.8238066276396534,0.33645640363920504,-0.5130556580742728,-0.4374590186361177,-0.5525500372587793,-0.47885060688920644,undefined,1495395491444
903d185fccf839df,-0.04997773516629466,-0.5628376563581052,1.4523468074504802,1.4790157048266064,-0.4014416728984139,-1.8667884791676954,1.9178773127234776,-0.6318066498894779,-0.31575449656559695,-0.2788156181403367,0.34452250931639994,-0.09871298038115987,-0.9523242535650625,-0.4725140903424164,-0.8370744656432758,0.4194294780899794,-0.8509692428323802,-0.41379062613367923,-0.8165929154912239,0.523316538510626,-0.45256499180049314,-0.41508833252409766,-0.39865858863371206,-0.4784453585261477,undefined,1495395492964
903d185fccf839df,-0.026415509096626873,-0.694916177075379,1.2290425151419755,1.190177648774984,-0.475344406966031,-1.89685196832873,1.9296088764500199,-0.6486261417182232,-0.3268123424484802,-0.5460762871089977,0.36960795241750444,-0.041389927970599344,-0.7216744652406417,-0.42807407731825886,-0.7949691217289612,0.44367676516584986,-0.8867696277236592,-0.4183186825184776,-0.802312424516394,0.6092398657971558,-0.43592521064171025,-0.42230074089166353,-0.4105525163662879,-0.49427170162605344,undefined,1495395494474
903d185fccf839df,0.04011316372313897,-0.6332795438166486,1.3617490180766336,1.337073074994594,-0.526412889727237,-1.8659779030047674,1.9054225567107586,-0.7239297130186946,-0.3953984839481367,-0.45565832098192127,0.1718523565863086,-0.05281231661261512,-0.7129706996434938,-0.3780790756168561,-0.7907586160502414,0.6800878989497519,-0.8085101007077256,-0.3808846531833269,-0.7904108495883069,0.6338773765322547,-0.41268253410700195,-0.40253137119171084,-0.38349602005642935,-0.4559646645621583,undefined,1495395495972
903d185fccf839df,-0.03611767119495661,-0.49533087311816093,1.5372021183151556,1.389433140928174,-0.7708730452649629,-1.8545879234188054,1.9476730163447178,-0.49789857333531296,-0.423167631249166,-0.6612770461075438,0.11724300168682547,-0.08425312444118374,-0.9392686051693405,-0.41881573695463453,-0.7402322239673185,0.6437168835417815,-0.7841439005840427,-0.4203642241899951,-0.7873952247794528,0.6937619306170792,-0.42321823539208914,-0.4013855423185917,-0.3170106155553831,-0.40998325634615046,undefined,1495395497447
903d185fccf839df,-0.2911443250991134,-0.3996472822844131,1.7439181295239468,1.881600464650057,-0.776201036270874,-1.838285579091166,1.9016303754023327,-0.7591448174148651,-0.3445493306552344,-0.6414977130340785,0.037385120270884586,-0.03214197137420378,-1.0088987299465242,-0.3780790108629834,-0.7444427517327394,0.5952223659194835,-0.717251497996175,-0.3915809952260786,-0.7774457590460582,0.7412045411043995,-0.4050422624115343,-0.3295569491060668,-0.25612482080853327,-0.36700772098970064,undefined,1495395498947
903d185fccf839df,-0.24401987295977787,-0.4231279406652533,1.553152261534867,1.6066875549327204,-0.7600833499218307,-1.8181935601310215,1.9987280705452253,-0.11071383825687213,-0.3363449961069071,-0.5348078832239757,0.03486474255022611,-0.06851188990056965,-1.0045468471479502,-0.4327032539754583,-0.7454953891957701,0.3830586040056167,-0.7393236474810708,-0.45242791872625054,-0.7760114118437266,0.6012942649178522,-0.4604938492069505,-0.2988463781109897,-0.4173632470323551,-0.3399624150904725,undefined,1495395500449
903d185fccf839df,-0.33411080635462126,-0.45834884055253655,1.4159798099879917,1.3827722497100043,-0.729853690300807,-1.8262480693128513,1.952461894737148,-0.45529083442192625,-0.26710979286028674,-0.5412336429000685,0.11987395468051792,-0.025338531058495636,-0.6215811608734403,-0.4530715846443475,-0.7981270414802867,0.19716251972774446,-0.7476356281845724,-0.45043304152877534,-0.7798246737531646,0.6316138051997361,-0.45925033579343877,-0.3242080527629897,-0.3989193061198509,-0.30314901779331027,undefined,1495395501948
903d185fccf839df,-0.20936954050438406,-0.4460214963639951,1.1984182503256076,1.2595437178253464,-0.7212137047244768,-1.8515599116183301,1.9696713422210301,-0.3836935813552529,-0.30671630749949425,-0.44717439902343764,0.17306655749889135,-0.01952626202358532,-0.6389886920677362,-0.4077057207478206,-0.8423376235094937,0.19312139943083784,-0.7479851378916744,-0.44873581114494443,-0.814843712013539,0.6693861920544868,-0.46144272796842084,-0.3196505934226829,-0.3907433415786461,-0.3445136916577801,undefined,1495395503445
903d185fccf839df,-0.019485408100138376,-0.4606969151590182,1.1001643312134315,1.1119127895393306,-0.6464058306858309,-1.8901251261017922,1.9688429515111772,-0.4059234153115817,-0.23216895457100048,-0.06810415771784391,0.20786278462981392,-0.0000860722503807784,-0.669451871657754,-0.42251910159178824,-0.8718113252296749,0.08804972788632721,-0.7922379757414247,-0.46983717948355114,-0.8247581924263186,0.6085315352065063,-0.4789401982555068,-0.37453673673671983,-0.4468129812498778,-0.39712907444162665,undefined,1495395504957
903d185fccf839df,0.1662405463878211,-0.5786870613073827,1.0823000284906632,1.1037655916561984,-0.5928482041559909,-1.905323412440018,1.9757672271735223,-0.3787214573902935,-0.21869811815686457,0.62832082764554,0.2129731007534182,0.016833228244347895,-0.7173225824420678,-0.3827082522740556,-0.8791797432974864,0.15068870357750752,-0.7703034028480703,-0.4299966298512351,-0.8444891985357786,0.633692595052276,-0.4533854323194753,-0.3555972605480614,-0.3000559929345753,-0.40663809288569347,undefined,1495395506441
903d185fccf839df,0.22306709161466695,-0.543466132192107,1.4300163019785448,1.544977043050142,-0.581821935166293,-1.8761124241595222,1.9878774862651558,-0.25187028695887,-0.23813766232975442,0.9796640208002012,0.24985194702432545,0.04868482362109213,-0.8609347147950089,-0.38270821342173195,-0.8486533820275732,0.19110078275294143,-0.7946011175592808,-0.4257155601689315,-0.8564257587416615,0.6052824621942043,-0.4565067663940697,-0.44829767367324824,-0.39817928927827806,-0.39825735883945446,undefined,1495395507993
903d185fccf839df,0.04704323021421774,-0.6191911546337431,1.6769266131081408,1.6716948622477892,-0.5911407735583317,-1.867317217840554,1.9278100903571251,-0.6317550234101094,-0.26678892140241905,0.7196983615462673,0.19512218071143578,0.02876911246343787,-0.6476924576648841,-0.3466007028396039,-0.8097059725890517,0.2638426439805529,-0.7613286730206404,-0.38285419674577276,-0.8256887683279702,0.5936566368650065,-0.43133531632360844,-0.4062558871015919,-0.3578591034271821,-0.40035471918102594,undefined,1495395509470
903d185fccf839df,0.2729636393612535,-0.5193985172691302,1.6699086212498135,1.8127478325965998,-0.5634619608733037,-1.8436172084341598,1.8722633292219062,-0.9479094904155954,-0.24264734793665008,0.6720964396584141,0.1481217049522077,0.04487305124545409,-0.7869527072192514,-0.292902349451822,-0.7454953818335363,0.42347068318105063,-0.7518434666417673,-0.32142464236084073,-0.8107995543297386,0.6079617932096368,-0.3967455915812779,-0.3887321853782179,-0.20258977580476942,-0.3197494659433878,undefined,1495395510959
903d185fccf839df,0.017936916446277203,-0.5047231423160955,1.9423396189774569,1.987557596987513,-0.5996058991942029,-1.841623379627431,1.8199933152488903,-1.2907669815751985,-0.19080166515206723,0.4265456653436635,0.19081158592964484,0.025485725116620946,-0.9262129567736186,-0.2799406185494948,-0.7433901069074751,0.4376149716616038,-0.7372338713372448,-0.3148447125014007,-0.7883607816891913,0.6243149412773822,-0.38765898041301594,-0.41575750440759157,-0.20911296210093808,-0.2841601108052054,undefined,1495395512482
903d185fccf839df,0.1496083177984126,-0.571642881329926,2.0310232488482463,1.9725378844315884,-0.5613842465906265,-1.8713514576307488,1.8524740503015569,-1.1029576708565443,-0.13703466376456533,0.5786836429061142,0.24528901030588995,-0.011547708570352701,-0.9349167223707665,-0.3141965439438551,-0.7160216506644199,0.5143981227744511,-0.7334638603886712,-0.25857650801082316,-0.7591770834308148,0.7179836885485045,-0.342628913186446,-0.33675048314000056,-0.12977675364014665,-0.19046266405878576,undefined,1495395513934
903d185fccf839df,-0.09571634653446316,-0.6115599304301726,1.7668865187389347,1.8249390615139174,-0.5946379083388348,-1.8515995092119033,1.8842499917408357,-0.9090048702885392,-0.21256219544650495,0.7620068990662301,0.23450108862661728,-0.015046823893510457,-0.9349167223707665,-0.2808664564710896,-0.6907584767096598,0.46186228700219584,-0.7349097046481863,-0.3077391496732202,-0.7764102274884144,0.6716959603388215,-0.3767072970866005,-0.35462969219523505,-0.18391674394387497,-0.18906046718693167,undefined,1495395515437
903d185fccf839df,-0.2966884473027959,-0.7037213728192075,1.4542607128165879,1.5000719734944796,-0.6766046273242046,-1.858587227086555,1.9002339523819414,-0.8532407650309869,-0.18417119795664777,0.7204480539388824,0.2088707234899547,-0.20880323802061482,-0.4083389037433155,-0.2614239637237952,-0.7991796789433173,0.39114098592303764,-0.6546773962047733,-0.267182979010992,-0.8103237699361271,0.7495658951104721,-0.3600697868137622,-0.3385470267203909,-0.094059288147684,-0.19693127802962276,undefined,1495395516957
903d185fccf839df,-0.2966884473027959,-0.6614562637264753,1.4204462668741078,1.5359469296636152,-0.6817371942314645,-1.8469619932129129,1.9071240395517377,-0.7884364376533998,-0.2068494370776981,0.665003388909216,0.1665602119289108,-0.238875253205479,0.905929701426025,-0.2817923202942335,-0.7602322179691593,0.10421471783894139,-0.7353957325086045,-0.2799628599443923,-0.783966784348531,0.6740673171007916,-0.3717835752460756,-0.3106272464139149,-0.12738776730694007,-0.18814898354841247,undefined,1495395518445
903d185fccf839df,-0.32440871326711096,-0.48182952816136904,1.6029176131079066,1.6931979533995338,-0.7706364765816898,-1.8719640471341508,1.807714747164301,-1.458541181098412,-0.285316902393376,-0.05226384011985065,0.03556338679830985,-0.252541393749288,0.0660163213012478,-0.20865148710993175,-0.7349690366521654,0.06784367416624949,-0.7071501965184249,-0.3055162906392485,-0.7742971924448933,0.6486906770128894,-0.3812500078209494,-0.3712757750845087,-0.30600865160161145,-0.29973070608392716,undefined,1495395519957
903d185fccf839df,-0.13175265778266299,-0.4248889564316251,1.6839451132403669,1.6948489638980648,-0.7928124412611136,-1.8281184474194592,1.906968886908752,-0.7547669413433763,-0.27144284660915186,-0.10603987839400272,0.13122355074337558,-0.056751292457772544,-0.9001016599821747,-0.2077256103360133,-0.7960217665542255,0.03551397690823652,-0.6445490125224219,-0.3194487663419442,-0.8080847919787385,0.6380195548705676,-0.40112211706583256,-0.36675083597959396,-0.359158913071602,-0.35506885931636434,undefined,1495395521448
903d185fccf839df,-0.25649399264371964,-0.3427067982386462,0.790728960554146,0.7689947227538687,-0.6831977685703231,-1.695156155318304,1.8596613084053102,-0.84140263019134,-0.24066216338249113,-0.5103627844247824,0.07286436412013475,-0.0315011324073503,-0.8826941287878788,-0.24290732184887018,-0.77707438056648,0.21130683647301915,-0.6684439544752883,-0.4161718157468582,-0.8580280285425277,0.37632297226272243,-0.5108487930900144,-0.33330898008491194,-0.37197439808815524,-0.302504621564931,undefined,1495395522940
903d185fccf839df,-0.2648101069384239,-0.23763099666294848,0.09912447844754724,-0.00582554775541089,-0.8009484254699826,-1.6113105320560757,1.83371037744792,-0.9306705969001997,-0.2464007841484225,-0.3518265902322363,0.06428539929678254,0.02143996912102027,-0.7651932932263815,-0.42899990876446636,-0.787600688936682,0.055720030628314245,-0.6870321366792327,-0.529487176562256,-0.8848398083174366,0.19608417145065674,-0.604458282291061,-0.3034231400920511,-0.5030746911175135,-0.3518166323166244,undefined,1495395524448
903d185fccf839df,-0.5142926731443079,0.016546760575543308,-0.1624602084156547,-0.2056029021748002,-0.8649357469363451,-1.6973619466955439,1.8658597483602322,-0.82911773649114,-0.20621665807203188,-0.577068223257883,-0.07223467842601836,0.07229839165159224,-0.6389886920677362,-0.5475066317468441,-0.8139165224411742,0.3951821910141089,-0.5558757168402937,-0.5873576161852437,-0.9108749413326357,0.4084441369217956,-0.5881710640178466,-0.3411913267669954,-0.5530009882605611,-0.4416008693848772,undefined,1495395525955
903d185fccf839df,-0.5461710480140898,-0.4295850910305924,-0.1586318894095406,-0.2673523266767497,-0.9947206698591401,-1.8697605882629018,1.9194525566180267,-0.7575086278873898,-0.2645627328398347,-0.5688506990898589,-0.027403838236185085,0.0738432085862579,-0.7260263480392157,-0.591946677147938,-0.8497060194906039,0.3325433566465362,-0.626310871108283,-0.6835423632182798,-0.9323341603892777,0.2752013903598015,-0.6535313396110705,-0.3545311850525671,-0.5567327251588171,-0.4683649026697804,undefined,1495395527492
903d185fccf839df,-0.6986326833448712,-0.8622155830659399,-0.4348909520063485,-0.44805985666346193,-1.0893799416486727,-2.081875086241239,1.9810426176354439,-0.666179210873782,-0.3000365839728475,-0.6054924430018255,0.10160818236404061,0.003473703141567491,-0.8565828319964349,-0.6632358798167611,-1.020232563321534,0.34264635524185355,-0.6828079867408898,-0.8047865699939255,-1.026623184515778,-0.008776740439453819,-0.7910474980393933,-0.36864584182780274,-0.5077505061175204,-0.4221525361756701,undefined,1495395528951
903d185fccf839df,-0.946729305263359,-1.0060344183596377,-0.7353941713042498,-0.7951740439278474,-1.1988300453934226,-2.1027846666215795,1.9577898817921036,-0.8691970738765686,-0.3021283074492455,-0.6279112837693612,0.09140361003239143,-0.09568684554283928,-0.6085255124777184,-0.7817426222253008,-1.0991800233427242,-0.17260862937782176,-0.6629015000581183,-0.9110090348817074,-1.077664919934543,-0.27118164962618024,-0.9050934582892972,-0.3803205381824982,-0.5016694591512904,-0.4150309516687998,undefined,1495395530439
903d185fccf839df,-1.0548384115350071,-1.0799983665789172,-0.8891551580877882,-0.9363775236281017,-1.0782508179371757,-2.1177733213042567,1.947039238947588,-0.9402551790216315,-0.2974289147456058,-0.6390774780248524,0.08624154697280137,-0.07889115195181085,-0.6955631684491979,-0.90580436626186,-1.1960222502942142,-0.5908744515616544,-0.748878605133308,-1.0058005364760902,-1.1423714270933312,-0.5005414942659095,-1.013150320974824,-0.4075202417242508,-0.4713357389275511,-0.38339099851135916,undefined,1495395531942
903d185fccf839df,-1.2267042675462188,-1.0060344037456417,-0.9421101825130409,-0.9903768889537445,-0.9670624313329091,-2.141825045259922,1.9511548745593021,-0.9063154990921557,-0.2881357724178193,-0.6798681742621123,0.09087032635685569,-0.028959587607769833,-0.865286597593583,-1.1020811379380626,-1.3012855346171044,-1.0737997177247756,-1.26888453180235,-1.1243342433799588,-1.2488838782921212,-1.002561616057858,-1.2085293076617647,-0.4640428073943964,-0.6449623001889121,-0.5000200095373833,undefined,1495395533436
903d185fccf839df,-1.1379993474495913,-1.0653229843188845,-0.9287120825394393,-0.9808892068708921,-1.0156726356367376,-2.1794492461606985,1.9399440092997573,-0.9963642338028539,-0.2764756375058657,-0.664820902854697,0.09040141255979568,0.06515068342003583,-0.865286597593583,-1.1465211671506883,-1.3202329242859667,-1.1425003597289551,-1.3491750549626902,-1.176378374410033,-1.2967140773839159,-1.1592254003245481,-1.2857298257536023,-0.4760544262142891,-0.6716607027955118,-0.5303071056386389,undefined,1495395534951
903d185fccf839df,-1.1033489459833778,-1.0993698761309192,-0.9044674175644469,-0.9589967490731783,-1.190899771992507,-2.1906622037101657,1.9455297181416717,-0.9848405273294903,-0.2868107554718674,-0.6757286512050357,0.09121956014720768,0.061304858527629645,-0.7826008244206774,-1.1437436663366785,-1.3286539908601596,-1.1020882240240781,-1.3373950471231677,-1.1829646359231072,-1.3058868963698351,-1.1220689515165079,-1.2832677429827113,-0.4768936501984394,-0.6725927780209832,-0.5310092271517453,undefined,1495395536458
903d185fccf839df,-1.1823517729924953,-1.095847786142191,-0.9006396068322317,-0.9425487305176016,-1.2929647435471894,-2.1879183598644136,1.9513836721744875,-0.9526991566459254,-0.28101380996626896,-0.6795764388421343,0.09230356138665499,0.04606826186252953,-0.6825075200534759,-1.140040335695308,-1.3328645186255808,-1.0737997177247756,-1.3331077869711705,-1.1719453137915652,-1.3063836699971327,-1.0811244847517367,-1.2697675021951673,-0.4745347044642674,-0.6751480110389325,-0.5287621377938908,undefined,1495395537939
903d185fccf839df,-1.0728565844118119,-1.025992935602763,-0.8406663364117024,-0.885701095939226,-1.367803475047047,-2.1346835974754805,1.9435415867231558,-0.9777654769216286,-0.31976317784902175,-0.6309047897655372,0.07906611553892212,-0.029461652248890555,-0.8957497771836007,-1.1178203178513015,-1.2991802652127187,-0.9667074930979921,-1.248137562471053,-1.1206358040176756,-1.2721482742674441,-1.0104918152338365,-1.2233649853377302,-0.4628402563143045,-0.6423356614780997,-0.5072444888066484,undefined,1495395539447
903d185fccf839df,-0.8122858428093823,-0.6608692743028471,-0.6141723712509847,-0.6721481212275126,-1.2421431149682434,-2.0315192631441303,1.9231185099790018,-1.009084584874815,-0.17236307007573784,-0.24232501174050722,0.34134275299499195,-0.021261807166138562,-0.7913045900178254,-0.9807969109039814,-1.2381275684407105,-0.6838224018402455,-0.9745098547969206,-0.9549976624898352,-1.2015784398019802,-0.6259156393243179,-1.0440723997097163,-0.33393570517083304,-0.4375654217663956,-0.4129119953904443,undefined,1495395540940
903d185fccf839df,-0.49350254268189114,-0.6068638177521997,-0.20648333561647253,-0.21059005965945743,-1.2653682187170625,-1.9882769372856688,1.9238969349468065,-0.9763983986420134,-0.1540307635077236,-0.16670280568196802,0.34654771227610903,-0.009866186404961305,-0.7608414104278075,-0.8224793159400154,-1.1360221781013276,-0.3787106048536229,-0.7319171427301499,-0.8669887432694225,-1.1452611090433715,-0.42772224801208863,-0.9474254167924732,-0.3262527655234705,-0.463698159147197,-0.40156205449986393,undefined,1495395542473
903d185fccf839df,-0.19273738092579504,-0.5258556895554635,0.09274411619532336,-0.08134643170207131,-0.9741801343697081,-1.9482675951376804,1.9419900047746481,-0.7602967578865347,-0.05097678637702439,-0.17757147459004297,0.336051078321365,-0.04811007633230335,-0.7042669340463459,-0.7234150889426257,-1.089706319305501,-0.057433966304174223,-0.6413007866415288,-0.7997455471921414,-1.1014330857791534,-0.28273048463979455,-0.8721967412176816,-0.3497046230501595,-0.4978136730476995,-0.42298909574404436,undefined,1495395543956
903d185fccf839df,-0.21768558578826883,-0.4483696148124653,0.27840589769218343,0.08161030961610455,-0.8553700484064952,-1.9360856734366292,2.0291102151012494,-0.12105611228805493,-0.19401870445712102,-0.18014767278620192,0.05483289284575369,-0.00981192238460125,-0.678155637254902,-0.44936825885951737,-1.0349694215438583,0.4396354894129748,-0.6431076949641564,-0.566186583888236,-1.020396021606006,0.14888793902526043,-0.6528424505794204,-0.35903248984525493,-0.33103743093015375,-0.4765488287585218,undefined,1495395545447
903d185fccf839df,-0.22877365766858512,-0.5088322473029452,1.0421052202959593,1.0647147930511012,-0.738308526596691,-1.8899737244930026,1.994131164663076,-0.2560277496270283,-0.2403695693085102,-0.3419387754100287,0.04563966756794746,-0.0035685042397690884,-0.7086188168449198,-0.3577107060956433,-0.9676009073559003,0.5386453815856,-0.6142247582742444,-0.4531435409742292,-0.9472793480731878,0.4385788926946812,-0.5251390439383443,-0.34154760750675145,-0.40173754471210404,-0.5141215764656873,undefined,1495395546941
903d185fccf839df,-0.2523359527490724,-0.525268667250344,2.4348842196135942,2.364308856187394,-0.6722949227677382,-1.8837313627549057,2.0291706984858693,0.054148373313808694,-0.38208848711907395,-0.03321719776370539,-0.08747064582816899,0.008272715889604494,-0.8783422459893049,-0.36974650842095386,-0.9812851502018954,0.43357376657053254,-0.6648335466100895,-0.4598944587294724,-0.9312146706612435,0.34863657094473577,-0.5472679901014798,-0.3863037100764204,-0.3615110872592679,-0.4736599340399578,undefined,1495395548441
903d185fccf839df,-0.18580717641307734,-0.5874923155071958,2.5203781766321707,2.5118200148086913,-0.6439269694033991,-1.890742374039233,1.9548024130109012,-0.4107775179149489,-0.397329804609067,-0.29283798555478296,-0.10164353043981462,0.05803437424547158,-0.7434338792335116,-0.2271681289848568,-0.9339166778702981,0.5709750788436131,-0.6085784002872953,-0.3636337150379712,-0.8716438234995054,0.47890741719903873,-0.463183365273641,-0.338595392621796,-0.32420593158326405,-0.4217619110271154,undefined,1495395549944
903d185fccf839df,-0.1137344849058582,-0.545814221412585,2.6868991255093087,2.6278973030924044,-0.5926219155522932,-1.8668606849551013,1.890243301264223,-0.7720615898491424,-0.42942389533691816,-0.3038289553277094,-0.08888623488783874,0.0833969427532133,-0.4475058489304813,-0.20031894581557858,-0.8823376704110458,0.6275519783833319,-0.6323868022896872,-0.2629462448731361,-0.8109954665390826,0.6986278334681517,-0.358131118002363,-0.33339022357697895,-0.3985751123577749,-0.4815387882714904,undefined,1495395551441
903d185fccf839df,-0.3826212717921726,-0.47126321435319557,2.463594833200804,2.4253772977489225,-0.7210594228198246,-1.880526332312915,1.8780410006226447,-0.9077110916979627,-0.4151165118837937,-0.7884464158416141,0.05240777003546036,0.02167785217688718,-0.7738970588235294,-0.2327231306128765,-0.8833902931496088,0.482068312457552,-0.7121406009974379,-0.3167382687900302,-0.7851632405805274,0.5668633379517098,-0.3993228934772642,-0.30338672512080345,-0.5941562468544695,-0.46058805765791055,undefined,1495395552940
903d185fccf839df,-0.10680434940395997,-0.46950218397282756,2.3978795925450025,2.438005332703588,-0.6622355216548745,-1.884071434496272,1.9510523195568725,-0.44196275268731855,-0.39973213536262836,-0.5569172777634377,0.012638457239636872,0.0004904984120011584,-0.6825075200534759,-0.327158197141535,-0.8960218985325733,0.5184392996008008,-0.7632876714324606,-0.3512654760913914,-0.7933425122200953,0.6040197873386293,-0.4138515423054317,-0.3019571265234539,-0.5664903456917455,-0.4270750567339986,undefined,1495395554445
903d185fccf839df,-0.1691750168344883,-0.38379789194913183,2.3442869385136462,2.5057748466483214,-0.6248572976448266,-1.8689709748506471,1.9986202517457812,-0.09115849764056447,-0.45239988585342783,-0.14227712161673853,-0.0495985764172683,-0.08393828099845979,-0.6476924576648841,-0.3447490269964143,-0.8781271352833909,0.47196520080334853,-0.7664350467684671,-0.3162632951074762,-0.77834834600366,0.5879592094247301,-0.3947183140412279,-0.32756372275965806,-0.6016061216709284,-0.4177465600524105,undefined,1495395555939
903d185fccf839df,-0.19412325620237184,-0.43369421063143826,2.28239950859006,2.2771448330958455,-0.5787156557649634,-1.8689989252261037,1.9555808521202496,-0.3476416800936674,-0.408340071496163,-0.08840096416947199,-0.17058491174961732,-0.058300211724892345,-0.9044535427807487,-0.28086649532341323,-0.8676008195509551,0.4679241087711634,-0.7815442085952545,-0.2991263514764332,-0.780804225446898,0.6405449047836523,-0.3775233852981455,-0.3477295134324654,-0.5764771280989428,-0.43151679354360845,undefined,1495395557439
903d185fccf839df,-0.09571620851282422,-0.4442605390536079,1.8000628268014125,1.9904396809737603,-0.5872939218576818,-1.8403912098201296,1.9462450320164364,-0.37469863346261145,-0.3619031438663283,-0.02945233608072543,-0.1209912192605197,-0.06761188494059085,-0.8130640040106952,-0.2595723267329293,-0.8581270971081473,0.368914287260342,-0.7921561903324318,-0.306345905197947,-0.7722471258242436,0.5866195502039125,-0.3891201632662351,-0.3439865346493386,-0.5713936315777389,-0.3874813365690167,undefined,1495395558983
903d185fccf839df,-0.21768562029367858,-0.4448475540517293,1.5480481750426476,1.4974566324642111,-0.689893748850154,-1.8364617827191418,1.9581501601527744,-0.36013450094343,-0.3256142573130596,-0.052988862235041054,-0.09940417330369737,0.005296339739547893,-0.7303782308377896,-0.21883562654282726,-0.848653426200976,0.36891434378978505,-0.7122700066753758,-0.24209819136380226,-0.7837358898771025,0.6074228462593235,-0.35146885565986186,-0.3540646467160344,-0.5286120776635761,-0.352697434571696,undefined,1495395560455
903d185fccf839df,-0.14838488637207148,-0.4794814681688835,1.6411982617995533,1.5047850446094804,-0.5977339027933217,-1.81211191759101,1.85705515732907,-0.9450562247127167,-0.3505701589184813,0.007576176328786495,-0.002229480942998605,0.0985900305363464,-0.5737104500891266,-0.19383811921673863,-0.8707587024911119,0.38912039750986277,-0.5678815206570664,-0.23019859040991258,-0.7969458689651955,0.5877590320706065,-0.35515512764978896,-0.34216956963551237,-0.46637710085526846,-0.36005730215641324,undefined,1495395561947
903d185fccf839df,0.024866982937355963,-0.498853021562874,1.7413658321408876,1.753947568361941,-0.37744512686179993,-1.8054013786763472,1.8151597169726157,-1.1130494946917129,-0.38532561113130875,0.17455141086537848,0.0459975533515813,0.10152462882361125,-0.19074476381461675,-0.21883565244437636,-0.8633902844233003,0.49015069437497294,-0.5383508493232046,-0.2084259295265925,-0.8230999476735424,0.6693553952309058,-0.3341774721969524,-0.3426137508549155,-0.4285873525020265,-0.39565426425151673,undefined,1495395563468
903d185fccf839df,-0.05136374846451042,-0.5810351212998682,2.3710828843239002,2.3211119863002367,-0.2585116112837998,-1.8553612316840287,1.8284639031704184,-1.0248635672462587,-0.3259487180732981,0.01031754667090452,-0.04152037122925702,0.11565707075629107,-0.7564895276292335,-0.213280611964033,-0.8465481365504471,0.44771791372747805,-0.4883529846801254,-0.20080739953951324,-0.8295999856630862,0.6273330363156083,-0.33694938895510657,-0.3730004408990738,-0.49926717529816544,-0.42147321538156074,undefined,1495395564967
903d185fccf839df,0.10386980994647331,-0.5669467905729473,2.157349389530681,2.1596493647241437,-0.3713662838230838,-1.8727629769016576,1.9450589754652656,-0.36980720730095296,-0.35774266840279123,0.0508022715176174,-0.014310057626053179,0.11122205082193608,-0.669451871657754,-0.2456847838105564,-0.8202323251326564,0.6336139132111857,-0.494639431431563,-0.18766654243874478,-0.8293970783495257,0.6021565779840052,-0.3341813815180397,-0.43004532210186375,-0.5494307914269746,-0.43330813506828053,undefined,1495395566454
903d185fccf839df,-0.14006866856113803,-0.5798610913036254,2.1362949056818006,2.1596493647241437,-0.630833287034023,-1.8971640863608186,1.9427552550608505,-0.5146432589817725,-0.3745044297758748,-0.27355077506418285,-0.1142674801717519,0.10262790083439664,-0.673803754456328,-0.17995060219591483,-0.8307586408650922,0.5507689685940923,-0.5454608376724583,-0.1779201420361884,-0.7748429427023102,0.7947295354832694,-0.28344069234727004,-0.4424775031541636,-0.46601860668902223,-0.45798164855794293,undefined,1495395567967
903d185fccf839df,-0.07908408343964493,-0.5557934471526562,2.3066439194281028,2.4884435174392046,-0.5279043188126,-1.8704710048747828,1.9595544568707304,-0.2995552525020962,-0.4604889673252782,0.20162081101622586,-0.18477511688098888,0.09923490407566955,-0.6476924576648841,-0.20494809657122892,-0.7654954126465462,0.40124404104779804,-0.6272305118015279,-0.16702114585112687,-0.7384385363593673,0.6840301148451263,-0.2893306242119924,-0.4080733855835681,-0.538532448760996,-0.4479372025295217,undefined,1495395569446
903d185fccf839df,-0.06938199035213466,-0.4366293440780299,2.401707657414167,2.352755782807935,-0.4554621504715985,-1.8398391804557532,1.8726183422142804,-0.79361273983892,-0.4342088497083847,-0.07494113743280865,-0.22373426489515177,0.05111841752098441,-0.7260263480392157,-0.2216131532583862,-0.7623375297063895,0.34466705671391457,-0.6558812586891617,-0.14710403885498582,-0.7210724519714345,0.7456546891728391,-0.2647367484548634,-0.421940545131483,-0.579671666819413,-0.43671020272237326,undefined,1495395570949
903d185fccf839df,0.2008908788432149,-0.43956436061265214,2.3544946032241865,2.2530776839833417,-0.3700188604658141,-1.8165304826762065,1.817268820005161,-1.0610360803641457,-0.38830560610068976,0.3637782721424069,-0.26937402962516266,0.1676734111451937,-0.7086188168449198,-0.07162808340030531,-0.6623373977280417,0.33658459000232904,-0.6265241525107107,-0.07889190170298034,-0.6629499425630166,0.7781454071797804,-0.21086783466371206,-0.3184899566929526,-0.5276509886855423,-0.3267156759053082,undefined,1495395572449
903d185fccf839df,0.10386974093565385,-0.4166708341419027,2.2760194004747856,2.2817298234360237,-0.3252452179464979,-1.841749155771768,1.8415208989725573,-0.9276337017107622,-0.32382812957810164,0.3104654885722024,-0.25079627950432204,0.014037324908016463,-0.499728442513369,-0.005893837031791013,-0.6476005321434835,0.3244609464643938,-0.541462659412684,-0.022104394956063398,-0.6404132144356205,0.8471304417963953,-0.16616664769472125,-0.30640375939009223,-0.3766471137086893,-0.30304196317964543,undefined,1495395573989
903d185fccf839df,0.15515230198045615,-0.4648061224438411,2.586092909014073,2.5341344521334026,-0.2464773529106571,-1.8409013120133038,1.7820162642453983,-1.2948116180504297,-0.3663562374861355,0.8552005854017896,-0.23454315529861744,-0.03493582641537755,-0.7042669340463459,-0.009597188718170207,-0.669705786346918,0.35072882195343913,-0.5315414524172167,-0.015226817756995775,-0.6200944765734261,0.8899997135957617,-0.15048200195836015,-0.27298180036026065,-0.44179845772266885,-0.33928561132034224,undefined,1495395575461
903d185fccf839df,0.14822223548937738,-0.38790707000596236,2.56695258466825,2.555701140904782,-0.307708109579233,-1.8536329341915148,1.8212766415312793,-1.0711157560599016,-0.2850287362528506,0.7230799557727873,-0.12863188150271512,0.007630151023938856,-0.4475058489304813,0.023732795148398877,-0.6939163596498165,0.3729555206161348,-0.47274062088313085,0.055163849085599445,-0.6261327245312763,0.9515472991695189,-0.10721010782307713,-0.25811622599692674,-0.5203710472246749,-0.3206416395877281,undefined,1495395576957
903d185fccf839df,0.30206984961296485,-0.475959363566159,2.3066441735650525,2.3746271694025256,-0.35461088889086245,-1.8711092168390726,1.8416523833843699,-1.0414706509569913,-0.24991254761742251,0.2865007169996389,-0.004967217311919697,0.0676783714834957,-0.4866727941176471,-0.002190511246960914,-0.7128637309130943,0.32648153487756865,-0.5041992932624303,0.020573312192437677,-0.6242435859065436,0.8793285935670223,-0.14236569362634,-0.31233541927109754,-0.506145605631577,-0.30170623527535984,undefined,1495395578441
903d185fccf839df,0.22445303590206322,-0.44778258520034775,2.2096665302128806,2.3609769617755263,-0.47887239140971466,-1.8559668329342995,1.8908008389776692,-0.7254166969015355,-0.2906149382806734,0.10938626640776776,-0.08663110428619662,0.08234027197379201,-0.5954698640819964,-0.004042212991699605,-0.7718111932513271,0.42751197306628647,-0.5396647631702055,-0.03804441397612895,-0.6881174734029276,0.8589718501948099,-0.18798708803480896,-0.2996896577671715,-0.47692724464486974,-0.3052168114891144,undefined,1495395579942
903d185fccf839df,0.013778876551629946,-0.5094192330730742,2.237738751783139,2.3602833040987212,-0.4711889722470737,-1.8661013520957384,1.909180547169711,-0.6282927455868489,-0.3573153143408879,-0.17838341129871288,-0.2119264641940794,0.1397494119016085,-0.3822276069518717,-0.0031163362177811654,-0.8191796729451583,0.43963558833950017,-0.5637993637555204,-0.05763220859866579,-0.7065680641924414,0.8246333150860288,-0.20781830126113676,-0.3531358216384539,-0.5977062280004372,-0.3558619514856581,undefined,1495395581445
903d185fccf839df,0.03456907602486623,-0.4630450189934923,2.5905591117632403,2.5219546331592326,-0.4782655285927021,-1.8301774954806045,1.869909651717497,-0.8378102717254006,-0.4626921364365689,-0.04042390165674446,-0.21239631132772607,0.1344818210641464,-0.034076983065953644,-0.151249743183447,-0.7844427691853564,0.39922345263462317,-0.5929539010979851,-0.16876903715999736,-0.7556996702846929,0.6886496472135553,-0.2918454103212033,-0.3941984571103446,-0.6423873426352523,-0.33620673647318966,undefined,1495395582950
903d185fccf839df,0.09693981246621403,-0.48535161815009736,2.569504882051309,2.5808279257915356,-0.4146896405613248,-1.8077282882966434,1.8949480361591542,-0.6091951133617914,-0.4426650959381439,0.07468402634895556,-0.15569042337625352,0.15085393759777557,-0.7434338792335116,-0.13088139956378328,-0.7981270267558191,0.38912039750986277,-0.6257942350917747,-0.20694402158087608,-0.7967079793650822,0.6848462338000104,-0.3205963702609417,-0.4243383502415642,-0.5664635051507245,-0.3174460856441315,undefined,1495395584452
903d185fccf839df,0.36582659935252837,-0.4830034704736348,2.393413643932785,2.347190358072562,-0.26448761120373937,-1.8014067327268548,1.8453972360868631,-0.8675638919917131,-0.5417603287547138,0.14872763591516056,-0.11580522516073123,-0.02134095835438366,-0.9436204879679144,-0.0901447123244558,-0.8981271513719332,0.40124398451835497,-0.5904535217523378,-0.20966718556273808,-0.8258217102059198,0.6600855311934021,-0.33452740223680677,-0.43837808470113226,-0.40612114366193747,-0.38197899907951394,undefined,1495395585945
903d185fccf839df,-0.0014673387395627991,-0.3920161165368274,2.1452270570431846,2.017373700156548,-0.4190199246619911,-1.79416978636779,1.8756294928444386,-0.6792132261193202,-0.5873301587999752,0.14547249662745013,-0.1524566222117645,-0.02687180872147163,-0.852230949197861,-0.17254392472470553,-0.7844428059965254,0.44569738184374624,-0.6316562512677373,-0.23033158212194133,-0.7899630552092307,0.5813994728627576,-0.3447052061046173,-0.46954774031003704,-0.46585183191689844,-0.44211456755841183,undefined,1495395587452
903d185fccf839df,-0.24679189955620937,-0.4466085405901088,2.2453948815214684,2.204454478008124,-0.5267008823725243,-1.7896044766418497,1.8419758560192903,-0.9480963802677413,-0.6091004426930017,0.09071847571758593,-0.10803963960392725,-0.03893518016441111,-0.8348234180035651,-0.23642646934848113,-0.7476006493973637,0.2880899875858665,-0.7582676786941646,-0.32026571500221457,-0.7916982646124997,0.5476768796105205,-0.39858111986990064,-0.4627997765453323,-0.47163868561838984,-0.4476811721090443,undefined,1495395588960
903d185fccf839df,-0.35628708813689275,-0.4483696440404576,2.038041494843523,2.1537309805662193,-0.691765746013234,-1.7644789741189093,1.9510128756474836,-0.2856074553884659,-0.5195122980290566,0.2520103831501719,-0.10444862836572141,-0.0014890366163961709,-0.9958430815508021,-0.2919765115302272,-0.7507585617864555,0.19312142769555937,-0.7558688053076548,-0.2963335194944038,-0.7973027102531764,0.4884082635993315,-0.40076771105098774,-0.47252133791039935,-0.5122990419540823,-0.46776851316343254,undefined,1495395590495
903d185fccf839df,-0.4034116092870478,-0.43839033061640936,1.9308554243699627,2.145122844520889,-0.7192491316048307,-1.7421741802747515,1.9006126299391626,-0.6157779076381203,-0.4845619601165689,0.17112342546234363,-0.034423217790492865,-0.00048155060604727386,-0.8739903631907309,-0.33734234952520503,-0.7949691364534287,0.1708948138270283,-0.7764674644773233,-0.3385235899852825,-0.7884447473407477,0.49287381310184986,-0.4244461995225719,-0.4659842693832838,-0.5057978565752218,-0.5091916489074506,undefined,1495395591957
903d185fccf839df,-0.27728419211695593,-0.39906029651428404,2.4068117439063865,2.341699828243912,-0.7045200114832327,-1.738305313869106,1.8909112739627933,-0.6551267502416995,-0.5789896394349404,0.43044662565693925,-0.11185700681826634,-0.07535836669925405,-0.6999150512477719,-0.40215073207057545,-0.7476006346728962,0.0920910460362846,-0.857063884186938,-0.36393769338897974,-0.7493115826455146,0.3656518541187063,-0.4448928957566245,-0.43101793927099863,-0.6571202295597497,-0.4780710660165283,undefined,1495395593469
903d185fccf839df,-0.17471907002735132,-0.484764603151976,2.117792973352928,2.0984304807167855,-0.6543566699093722,-1.7640410776533415,1.7807828874684704,-1.4006043061284943,-0.5865443805306814,0.40994272309587887,-0.07183671775909953,0.007640703541792702,-0.6825075200534759,-0.40770574664936965,-0.722337460718136,0.07390546767049558,-0.8698818540775428,-0.38501373069479006,-0.7590021650001334,0.43443671101771536,-0.44644829447612366,-0.40621519794167166,-0.6492568069972745,-0.4810036029327851,undefined,1495395594949
903d185fccf839df,-0.03750364998776262,-0.4143227156934325,2.2205125869403726,2.218235224371238,-0.5849076476347081,-1.8010340551605308,1.8694678402836367,-0.8412496200564262,-0.48248301346707956,0.5048781340463359,-0.11439426525602653,-0.028132006269021303,-0.8565828319964349,-0.3475265666627478,-0.7012848145287969,0.03551400517295806,-0.8138833848357551,-0.34080344932711354,-0.7621297394191886,0.4296477958840004,-0.42486655286373887,-0.40913365786138045,-0.6658043859694828,-0.4494553740999345,undefined,1495395596444
903d185fccf839df,-0.28005621871338743,-0.358556232415916,2.130552935446528,2.0389050387944163,-0.4758175451287843,-1.822092707572032,1.9276312684354449,-0.4951535021578294,-0.3490087062222022,0.4619544374573364,-0.07685927647656704,0.019128729343153354,-0.847879066399287,-0.2512398113401252,-0.6886532165080662,0.04965823712406816,-0.7593455642410841,-0.3015328643544663,-0.7600027084233139,0.4696221589971033,-0.3947959111261645,-0.4478425025762656,-0.6864683496126204,-0.44092337890895256,undefined,1495395597956
903d185fccf839df,-0.22461561777393785,-0.3614912781785306,2.4629566953208015,2.7563407671870355,-0.6119384609481932,-1.8458183390922955,1.8947350191979135,-0.7604212948208027,-0.23714785597341242,0.4599016451708153,-0.1240576085959029,-0.014313672031094342,-0.8087121212121212,-0.23827811929012166,-0.6802321315282889,0.14462682527909684,-0.6888069240020066,-0.25741758093456685,-0.7414751525795812,0.5449205556408919,-0.35692967347320315,-0.4203619625383542,-0.649943021312158,-0.44257558820712006,undefined,1495395599436
903d185fccf839df,0.10248386565907704,-0.4419124206051377,2.4195719601369357,2.4190583238199044,-0.34087948194214157,-1.8100878093816235,1.927436660884092,-0.4134403777209254,-0.21492250773351748,0.5295355579022115,-0.10113595807957207,-0.025913228750494347,-0.8217677696078431,-0.20309642072803932,-0.67075844589665,0.2820281375521773,-0.6659135119610242,-0.24743052954706293,-0.7600936672644467,0.7042790706069931,-0.32217389971993443,-0.41708464639470616,-0.6610437088200072,-0.42950947574398946,undefined,1495395600947
903d185fccf839df,0.5570965725279411,-0.4084525949402109,2.3793771519422315,2.6300593660092106,-0.19376315683883136,-1.8485551936162272,1.8987296974680836,-0.5768869570253408,-0.17390313370273375,0.9901517714505594,-0.139515554488893,-0.037002033694629975,-0.9262129567736186,-0.12810391170054797,-0.6991795175160344,0.3810380438571634,-0.663417819788201,-0.20507580193368558,-0.7477582895359381,0.9095865419383821,-0.2604591554575576,-0.46108284850540493,-0.6757825601791683,-0.39471281506769795,undefined,1495395602444
903d185fccf839df,0.4143371338008992,-0.37264466544081015,2.4820972738035745,2.4855305413056645,0.08058724257884238,-1.834926814223619,1.9213591793182359,-0.28927777350114325,-0.33752047054356454,1.6048276397897414,-0.22484323342019139,-0.08177508206245951,-0.6825075200534759,-0.07903468316686732,-0.7381269269545558,0.5305629431387361,-0.6159773473313662,-0.13086003642893565,-0.7194631866259235,1.0749504446378073,-0.1954955902216488,-0.4377753646091693,-0.6500104627580842,-0.3581215970325523,undefined,1495395603955
903d185fccf839df,0.34087835998464483,-0.4160837753017928,2.644790157811548,2.679343356185686,0.029385038708300552,-1.8502229287503393,1.8814387234580239,-0.6148480232743063,-0.472297501955136,1.3476734192472921,-0.20471655869036945,0.00032184000458272574,-0.43445020053475936,-0.23550060552533725,-0.7697059036007983,0.5830986941168268,-0.6140867217152202,-0.18197322684236586,-0.6947784379202939,1.1492325466823012,-0.200866462488829,-0.467441382349648,-0.6333127420466926,-0.3803336721792108,undefined,1495395605496
903d185fccf839df,0.3284042403007031,-0.3926031753769373,2.223702513929535,2.326226322155158,-0.04513483403280443,-1.8525032547713958,1.927136868526845,-0.36424259749471727,-0.464956004729912,0.953681627012441,-0.13136038745249687,-0.00750670310407204,-0.7869527072192514,-0.12440054706339423,-0.7602322400558607,0.6093666261353152,-0.6420602364364093,-0.15949127640005775,-0.698514734769396,1.2281649811093724,-0.18587050167826466,-0.46021647209919636,-0.5638201273640524,-0.3227692839123923,undefined,1495395606960
903d185fccf839df,0.4060209850007852,-0.49356979889580443,1.9417014810974547,1.9965288608363296,-0.19311515854356878,-1.857692800558795,1.9940654316229853,-0.05071941789435228,-0.32972451845743306,0.5840690104631339,0.03742650481538021,0.024348121042664223,-0.7869527072192514,-0.11236474473808368,-0.7718112079757946,0.5851192825300016,-0.6066746067157859,-0.1968746421802526,-0.7057494378642887,1.1069484160926024,-0.22625912301973142,-0.4596994422690091,-0.5845685699581754,-0.30752771644543975,undefined,1495395608441
903d185fccf839df,0.11079991094296181,-0.4970919181125251,1.715845653816739,1.7785508361199527,-0.4133216427171726,-1.8578302256495445,1.9770532110187022,-0.234473940533921,-0.28064899358296985,0.7663345943689596,0.06801026235397424,-0.016921780326831094,-0.8783422459893049,-0.17346981444939852,-0.7823375310704641,0.5709749940494484,-0.5789991577003347,-0.23800077863162933,-0.7796357602938055,1.0824186936544267,-0.2763802691647813,-0.41395717462126325,-0.4837502325937704,-0.28822999009783434,undefined,1495395609948
903d185fccf839df,0.2840517457469795,-0.4906347239051975,1.5831394050190306,1.4039411680168978,-0.40670794417264866,-1.8358981075759138,1.915442106859728,-0.5893443603146264,-0.2586730313476023,0.47992308376245474,-0.0008004166273300894,-0.030138778073737313,-0.7608414104278075,-0.20217064756031727,-0.7591796025928301,0.4032646294609729,-0.6350543423999612,-0.27792365566249494,-0.7858979051292236,0.9456035111144715,-0.31968666915697136,-0.4074589415442028,-0.4648203624407641,-0.24483974919717097,undefined,1495395611444
903d185fccf839df,0.5626406257208042,-0.48476457392398364,1.9423393648405074,1.891707028305643,-0.22311853785505537,-1.8523448651310053,1.8441322859555445,-0.9736378463190354,-0.24855085188955675,0.3920829294628408,-0.08604613375155588,-0.01196523454285067,-0.8087121212121212,-0.27531151959694267,-0.8170744421924998,0.49621260093810515,-0.6475391289146857,-0.3128435068449475,-0.8466162298375064,1.078384303976519,-0.3249778234931838,-0.4060918018296192,-0.3613870621697181,-0.29689092983588244,undefined,1495395612951
903d185fccf839df,0.4046351097242084,-0.41667080491391034,2.0686655055229415,1.8217111720708974,-0.3103721082990265,-1.7883490169747869,1.8603844807885725,-0.7872230664030896,-0.36695683361212295,0.23973545488656417,-0.2189360457604616,0.03438947379943701,-0.691211285650624,-0.33826822629912345,-0.8054954595480982,0.532583588081354,-0.6778009208236238,-0.34919460267284763,-0.8395774369822641,1.0082597809909146,-0.3522300104958252,-0.39859340063560733,-0.3021646748624466,-0.32318005615339274,undefined,1495395614459
903d185fccf839df,0.08307961047323703,-0.11200967015300223,2.0546292676693376,1.9036635205462766,-0.46744498902180515,-1.62669282906311,1.9217667889036443,-0.06165371776658976,-0.6746948637945345,0.26341923544145324,-0.31228475720306825,0.030247673199451597,-0.8870460115864528,-0.3253064824460217,-0.8739165854312685,0.548748408445639,-0.6711056939229268,-0.3388465697750928,-0.91804667129452,0.6603319066571005,-0.41763966690280563,-0.42094073947475363,-0.3590367934197496,-0.35318398135193246,undefined,1495395615950
903d185fccf839df,-0.33965485954748426,-0.1413604200590716,1.9270271053638488,1.8619226408673921,-0.7067108732145783,-1.6314817454132886,1.9515756404946811,0.011084192657814103,-0.55846884026506,0.2471244458229916,-0.21810573358154237,0.10417359984639854,-0.7608414104278075,-0.33641651160361025,-0.8602323793964423,0.6336138566817426,-0.6175687018754201,-0.3350784685749513,-0.8877434832530557,0.6748218442259253,-0.4024773871454364,-0.43013937107204264,-0.37527105696903484,-0.3642655185287765,undefined,1495395617450
903d185fccf839df,-0.027801660416481563,-0.3391846790219255,2.171385373247335,2.0794964710485715,-0.5040003573928079,-1.7372245478378723,1.9459688958438617,-0.15269477635932793,-0.4879253746682156,0.41042436060120646,-0.03164745559727806,0.0375509899029037,-0.7216744652406417,-0.31049317930670134,-0.8528639392419294,0.512377364772947,-0.6285872273414097,-0.3560468448914761,-0.8959227556144369,0.5764873684288345,-0.4263412849512214,-0.46812652139093736,-0.4398433156557619,-0.45547534536005546,undefined,1495395618953
903d185fccf839df,0.1329760892090041,-0.6414977537903481,1.9684979351816074,2.0354076417053113,-0.43877874718650206,-1.8841809088989765,1.884510330237236,-0.8923276849413099,-0.25871096299676666,0.15965304863904553,0.168856915785569,0.04464521421836997,-0.8739903631907309,-0.36511739651762715,-0.8286533733012648,0.4719652573327916,-0.6242087205789536,-0.4052664822995199,-0.8835523943453782,0.4383787129577286,-0.4772268326583335,-0.4906146344505955,-0.5154686186401775,-0.46624956835735126,undefined,1495395620460
903d185fccf839df,0.3547384239559829,-0.6802407436663597,1.450432647947423,1.485799896091232,-0.4734004000471092,-1.8750735828658325,1.8682791638804603,-0.9972837273283417,-0.20792122180615502,0.19518152988108847,0.22215890864863086,0.0057772293075487495,-0.9305648395721926,-0.36419153269448323,-0.869706035579146,0.4153883012636297,-0.6027117073068176,-0.3919799658054883,-0.9026326977773546,0.36015461080409533,-0.48795538877925504,-0.44900538496799897,-0.6218364122225913,-0.4551312674056076,undefined,1495395621944
903d185fccf839df,0.14267825130733386,-0.5698818071075695,1.0574177339095674,1.1835454598932966,-0.6093978838811132,-1.8664111414422075,1.9572875814741335,-0.4506091692720695,-0.2414994915905778,0.002743050164330063,0.30729336689114867,0.026972630989505912,-0.9523242535650625,-0.4530715846443475,-0.8360218060935438,0.39922348089934473,-0.6536293337003309,-0.4892159852096109,-0.8638843595949789,0.4818177271982206,-0.5111836320808079,-0.4552330733326036,-0.545323976174881,-0.48276093534521747,undefined,1495395623493
903d185fccf839df,-0.005625275117980852,-0.5716428521019337,1.065073863647897,1.135318136501201,-0.6532972376809949,-1.892442718896142,1.9318520972332272,-0.6636207580520699,-0.18461637986855348,0.24692495078465074,0.34113192602964365,0.08532173066744048,-0.7086188168449198,-0.4882532832064298,-0.8297060181265291,0.17493590585921343,-0.745451152109903,-0.5240725075089562,-0.8702654504722172,0.43084887262292687,-0.5391603800266114,-0.4380923860031008,-0.5434369288154669,-0.4864191587370166,undefined,1495395624940
903d185fccf839df,-0.09987435192370069,-0.5734039555522825,1.0114809554795914,1.126473006786572,-0.6679337957496484,-1.9022837553341032,1.993331704410127,-0.3023236814336967,-0.27235393728676416,0.44939505554780235,0.2901812599675086,0.022034760024156882,-0.8087121212121212,-0.5030666510996229,-0.854969199443523,-0.004898215326083529,-0.7148609383472471,-0.5494106154279613,-0.8585457923088363,0.35230140298029844,-0.5667873204403856,-0.4339357958734698,-0.5313165903620533,-0.48723295465933314,undefined,1495395626459
903d185fccf839df,-0.03888969779138811,-0.5851442555147103,1.4332062289677074,1.552081412403855,-0.6176778797096103,-1.9070586957696731,1.9842273216764197,-0.3477537377720702,-0.25497164129786837,0.7143295103287607,0.254180184345418,0.10984650426329097,-0.5475991532976827,-0.491956634892809,-0.8465481291882133,0.10421466130949832,-0.7026699632184326,-0.5338822373981164,-0.8538579286666731,0.28790510794722424,-0.5724359436458922,-0.41201870504006566,-0.49475122655874026,-0.4396269077273159,undefined,1495395627950
903d185fccf839df,0.13852014240186714,-0.6326924849765387,1.6080214454631767,1.6729426416748125,-0.48345982042499086,-1.9202584944412862,1.9972290825709467,-0.24946258322975112,-0.17035116286978522,0.9376607113752301,0.21305575265619314,-0.1972427536902706,-0.5911179812834225,-0.5576908294582251,-0.7844427912720577,0.025410978312919198,-0.7704761400203659,-0.5595559917860299,-0.8288653201784798,0.18625996765810102,-0.5880874913296872,-0.4391482232223378,-0.583693099310854,-0.45078864870872953,undefined,1495395629460
903d185fccf839df,0.24662931768433474,-0.6655653979413173,1.7911306754400282,1.8824644712674303,-0.4264256259695425,-1.9142909829241008,1.9405593937854682,-0.6085127251803241,-0.03466264471713685,1.2535490340490667,0.405964992283483,-0.2371860064361153,0.7623175690730838,-0.4771432799503904,-0.7107584854359683,0.009246044889748105,-0.7476229654455318,-0.5175495756485857,-0.7905018070286326,0.2539361390024293,-0.5533329497086636,-0.40640600130153864,-0.4703705770345735,-0.390551345635066,undefined,1495395631294
903d185fccf839df,0.5155161735814686,-0.7031343870490785,2.0112445324854713,2.022051568885657,-0.31659494830755486,-1.9031921581166953,1.9222296474072684,-0.6811246108939448,0.07213828840626549,1.5126729950380164,0.4886622978346544,-0.179099477484069,1.080005013368984,-0.425296576504249,-0.7002321697035325,0.03551400517295806,-0.6963527842610198,-0.45010372656401115,-0.7671254612901821,0.3537180673117779,-0.49444293358744584,-0.41854742094501,-0.33909482613428166,-0.3655622580575856,undefined,1495395632471
903d185fccf839df,0.25217337087719777,-0.670261488698296,1.8172892457811283,1.9176713802150722,-0.3770542746874616,-1.9003574742952605,1.84261752806442,-1.235220129903185,0.07896136566625542,1.4156128243160002,0.5521564854854005,-0.2789690379415136,-0.5475991532976827,-0.3280840091615807,-0.7254953362960589,0.13654438683223283,-0.6668847400710859,-0.37358910057760825,-0.7507039460096943,0.49068723674287373,-0.43073845793282733,-0.387863839616642,-0.25483311401612685,-0.34527102830119655,undefined,1495395633957
903d185fccf839df,0.3880028121239804,-0.6097989146638009,2.1490551219123493,2.316114181536549,-0.2192511120476219,-1.8454899147955592,1.8154043003484148,-1.2926283678681172,0.07907530088462165,2.3000869365923258,0.6359294962211172,0.0664817415181336,-0.6650999888591801,-0.12902972372059368,-0.7486532574114592,0.34668764512708944,-0.5921874514449611,-0.2550363939955976,-0.7342964242530867,0.7041404881654886,-0.3272005131109416,-0.41374615884534494,-0.3134142106726667,-0.368878786715956,undefined,1495395635445
903d185fccf839df,0.2923678945470935,-0.48300358738560417,2.1133265164668122,2.2404179278284495,-0.28207615171114864,-1.806468170231784,1.9153921526404192,-0.567397614295327,-0.06659865496189749,2.046179468621619,0.43875239760873636,0.02022442101789816,-0.4126907865418895,-0.07903469611764187,-0.7623375149819219,0.36689369884716716,-0.6028776690978724,-0.19626667549562693,-0.6959678951453889,0.7791309140829396,-0.2750967973500915,-0.408525503531287,-0.3396686143594504,-0.4461734509710622,undefined,1495395636961
903d185fccf839df,0.278507761564936,-0.38790704077797006,2.7430438227867744,2.783244231263787,-0.3127995332402197,-1.7949733747437513,1.8681240054761048,-0.7778566345032487,-0.21857956396052722,1.3270723820867705,0.07101155449353068,0.0961046112674512,-0.4083389037433155,-0.0040421611886014164,-0.7760217431034495,0.41538821646946505,-0.4983463365907296,-0.08685874081290991,-0.6355504316593136,0.8881673072169939,-0.1867791225596717,-0.37038422067617005,-0.26636447562379423,-0.4760435698585485,undefined,1495395638451
903d185fccf839df,0.19257486806473986,-0.4601099732308777,2.8700081013492107,2.5742292348567033,-0.3596920239200461,-1.81231921863603,1.8982642143986048,-0.6061277729839983,-0.32655571620964036,0.4292286516241726,-0.14259504994733066,0.15064093402691567,-0.43880208333333337,-0.10032891651122404,-0.8476007961001791,0.5548102302146065,-0.49614880037952724,-0.05402876088896998,-0.6514401883222101,0.9300510763538283,-0.17503010899094623,-0.35551068887531906,-0.2778050380923401,-0.48262483466538236,undefined,1495395639970
903d185fccf839df,0.1260460917287448,-0.500026993103132,2.6951931389906907,2.708600787585842,-0.5446185682479623,-1.8782390179576363,1.9308685538803887,-0.5368536461482869,-0.29385308745997896,0.02791561616595393,-0.22334500374055677,0.01449695823322098,-0.17333723262032086,-0.0956997139524755,-0.8391796816714667,0.27192516722158155,-0.4765632668873058,-0.1304673927471641,-0.6931831623917241,0.6703562936060351,-0.2714067820784856,-0.30357475375938986,-0.31754207230054865,-0.4001411473401506,undefined,1495395641492
903d185fccf839df,0.15515230198045615,-0.5510973417816812,2.274743378851731,2.4143967997160676,-0.5759179419494004,-1.9064857024042707,1.9007993522702122,-0.8238695021575707,-0.18056467452045738,0.03516862918284807,-0.06777396666747607,0.07293628572961769,-0.7347301136363636,-0.10773554217933515,-0.8244428308113761,0.18301831604135588,-0.5362196538014823,-0.18320814794717105,-0.6867460966482146,0.584663945316717,-0.3114147631042484,-0.33097651217347496,-0.31827509645893465,-0.41006555846235015,undefined,1495395642984
903d185fccf839df,0.3256321446934521,-0.6174301096393789,1.9161807944994074,1.8013828721734249,-0.529118016499346,-1.9321492595186047,1.9447565601134476,-0.5874962358142514,-0.15114833184373214,0.43766636646430074,0.08250139099539033,-0.011149505195063511,-0.8609347147950089,-0.26790484212573334,-0.7928638394406661,0.24969849682360742,-0.589711175257535,-0.2398499967846514,-0.701712275798538,0.5471995282594042,-0.35238563276582785,-0.27205637505790314,-0.2925324381881886,-0.3542025681250349,undefined,1495395644454
903d185fccf839df,-0.07769807014142918,-0.6350405888110129,1.597813526615687,1.6001637032997282,-0.5430654258445934,-1.9221614819445116,1.91560253063238,-0.7859384959708325,-0.15208198656444108,0.5808004042253381,0.11275781846503967,-0.07803451279134181,-0.8174158868092692,-0.3077156655419169,-0.8065480822866613,0.18705952113242713,-0.6889857955949429,-0.30899307715553326,-0.7494585134717827,0.4739953193751096,-0.4083800734269278,-0.34039333831726115,-0.2795258258503219,-0.33286691737310947,undefined,1495395645948
903d185fccf839df,-0.11650651150228972,-0.6033417204564733,1.4906274561421269,1.4905448917252528,-0.4892712285169295,-1.9273929525727453,1.9385397036778664,-0.6242365056205826,-0.10686287822023834,0.6481068875164364,0.13714243621563638,-0.01694486509258204,-0.6302849264705882,-0.39566991842251004,-0.8202323030459551,0.10825578160640494,-0.763737614315547,-0.40486117801790955,-0.7897251608194584,0.427692194739327,-0.47467715358110685,-0.39393400441439763,-0.38083059780447076,-0.30676145960275364,undefined,1495395647462
903d185fccf839df,0.04011306020690977,-0.6009936312359954,1.3674909883119057,1.0807416889370065,-0.1637803564273769,-1.8928060801973658,1.9548260932885746,-0.3396372767434329,-0.1924252292886382,0.10031262242605504,0.09396279425652597,-0.13144987849922682,-0.33000501336898397,-0.39566986661941184,-0.800232279595179,0.18099781242234564,-0.7216359978574224,-0.40316394964388846,-0.8187689233007297,0.6324145268400079,-0.43736519992189804,-0.41450545023561586,-0.39061020481590647,-0.3576709328277631,undefined,1495395648946
903d185fccf839df,0.2771215412342618,-0.6256483196130783,1.1888482152211706,1.0920552750280554,-0.004547487258586026,-1.9193547497674603,1.9375640460690933,-0.42483346306446745,-0.18719134268442966,-0.06896391387153392,0.14877122270696772,0.018719526137651103,-0.6302849264705882,-0.37344991191043125,-0.8370744435565745,0.3183991529601477,-0.6194382379196274,-0.37716088221797045,-0.8179153122942534,0.818427747184958,-0.38992417721969885,-0.4352446987983008,-0.3149497384310016,-0.3560540734162326,undefined,1495395650445
903d185fccf839df,0.3866167298149452,-0.5839701962904751,1.2960340315577814,1.167917070373932,0.2115344364216387,-1.892868971135379,1.9389131331508997,-0.28802233756165585,-0.2617973523343934,0.28229130695402277,0.10936286909818756,0.050845926449115855,-0.6215811608734403,-0.3290098988862737,-0.8623376175113345,0.5709750505788915,-0.612815466817153,-0.3603025859383597,-0.8314611380046909,0.933223158848612,-0.36047129651185117,-0.4586858164243948,-0.39092014615193543,-0.39004860127183777,undefined,1495395651948
903d185fccf839df,0.46977773474034873,-0.6673264283216853,1.377699161296345,1.527850466985733,-0.05513254375337331,-1.9269294365248193,1.9019932846139898,-0.6841989350962944,-0.29147625374622443,0.7123777674252697,0.07299432308853535,0.07037775020810307,-0.6999150512477719,-0.2706823688412923,-0.8791797580219539,0.6760466655939591,-0.6035094850792574,-0.3807769942038511,-0.8485123652241794,0.9469431723546355,-0.368646643843269,-0.4900699500361406,-0.42556238128449764,-0.384921504489117,undefined,1495395653454
903d185fccf839df,0.34919430175230043,-0.6127339604264155,1.5493244508026518,1.688246484935104,-0.28713672424057196,-1.8746636376369241,1.9261612004428539,-0.5684399616992697,-0.3153232300458158,1.203090644264265,0.036080601907396724,0.022096269836337355,-0.9131573083778967,-0.2993831501491129,-0.8991797961971976,0.6659436104691987,-0.628639061262388,-0.40565912962995415,-0.8624360189666399,0.9669919494565347,-0.38498347416153833,-0.4622495094568473,-0.43629060559790467,-0.3619734002838299,undefined,1495395654972
903d185fccf839df,0.08169366618584074,-0.6180170954095079,1.3100705235483345,1.333533838506196,-0.4793352559045629,-1.8790798753498246,1.8585357462377392,-1.0927596653873513,-0.32821254636320146,1.0425175065546242,0.07850739318691502,-0.0421915196423334,-0.9175091911764707,-0.28827317279462256,-0.8918113339559833,0.5406659982634965,-0.6831344915426296,-0.4376151630274341,-0.8762617169041645,0.8098354164568043,-0.43243997301855147,-0.45721167908683147,-0.41919910007847105,-0.357640836338868,undefined,1495395656452
903d185fccf839df,0.037341102621297736,-0.6274093353794501,1.1990563882056098,1.3113185917650665,-0.5242940413506701,-1.8892004189699483,1.8989164166565675,-0.8436160297167616,-0.2553246001648759,1.0929494650649199,0.046216739763888605,-0.01650951342996513,-0.8609347147950089,-0.4345549298186479,-0.8654955299004264,0.2800075491390025,-0.7607255352927755,-0.46227564550234174,-0.8450069622470338,0.5562076202590241,-0.4808836658811843,-0.4377387586765249,-0.5160039434991308,-0.312705492010953,undefined,1495395658001
903d185fccf839df,0.06506136858561277,-0.6215392146262286,1.1122864095639784,1.0915438396146222,-0.5021695046102964,-1.878490576052296,1.9095645029273705,-0.7463781024380165,-0.2090474833142274,1.1718072094691399,0.048403162305317514,-0.07494950337409344,-0.7826008244206774,-0.41511242412057897,-0.8212849773201546,0.31435786307491187,-0.7456405961639643,-0.4802992037674025,-0.8147597490840749,0.5292295449948891,-0.48665183644080945,-0.4264065563095313,-0.5082526209208408,-0.2601510319608942,undefined,1495395659444
903d185fccf839df,0.04149910801053526,-0.5916014204940455,1.0925082014751022,1.0519131506333494,-0.4547832973358066,-1.8911010774541268,1.9716910386137625,-0.3318579019843477,-0.2554588989006988,0.6251177892021434,0.07119009033685955,0.00581038363403748,-0.8565828319964349,-0.42529656355347445,-0.7623375076196881,0.09613219459791277,-0.731264779276752,-0.4970941699181561,-0.8003463180052431,0.4055338320652159,-0.5180581006431484,-0.3850402309060796,-0.4439419537117327,-0.2266087935836738,undefined,1495395660939
903d185fccf839df,-0.3646031334207775,-0.6285834092176814,1.05295178529735,0.9009623922438299,-0.7029463041114605,-1.9340801988360987,1.9834331189353553,-0.3692249010060487,-0.23433661682460225,0.4493735409446582,0.15768318897882058,-0.09891106048539518,-0.8565828319964349,-0.4178899249345888,-0.7644427457345804,-0.0028775703834656064,-0.7944089557716372,-0.4931804108473345,-0.7673423621276232,0.3265398073161732,-0.5193679807647794,-0.3934424840815605,-0.4702952288322328,-0.2640732550796822,undefined,1495395662449
903d185fccf839df,0.0026908046713136615,-0.7119396266348954,1.2092643070530995,1.1773545151374178,-0.619313296632407,-1.9634076507328455,1.9310526432654096,-0.7355249300797208,-0.2104491013019474,0.3397969814894273,0.1571132190676275,-0.05227709812102925,-0.6215811608734403,-0.4530715846443475,-0.7423374694444445,0.011266689832366028,-0.7965718303482079,-0.453466522181426,-0.7725549863469717,0.28442505665121287,-0.5107965148473043,-0.38142492532847433,-0.4564565760709126,-0.2552520650743371,undefined,1495395663965
903d185fccf839df,0.1509943656020381,-0.6602822483442287,0.9419373958176758,0.9938486091138575,-0.6096961688511653,-1.9425819232633459,1.9268581051696114,-0.7317766329605434,-0.1271187774728823,0.3865008064661237,0.22304370618742442,-0.02005378198357429,-0.7390819964349377,-0.444739108103867,-0.719179555691278,0.05976134877827163,-0.7837060290408856,-0.42916701775635296,-0.7324982443716138,0.47248626974241414,-0.4549710842067248,-0.38545606582833514,-0.39842806655431195,-0.20831745310042682,undefined,1495395665449
903d185fccf839df,0.32840410227906414,-0.6579341445097546,1.1697076367383978,1.2218598290655924,-0.4221159167718673,-1.9347393750256623,1.8811073666503215,-0.9877465266934419,-0.14640534607533462,0.7204249606815033,0.20413302663835842,0.022717546900863105,-0.8739903631907309,-0.4530715846443475,-0.7876006521255131,0.007225569535459399,-0.8464003305012838,-0.4747515473649669,-0.7510607835723848,0.3690703109598169,-0.49790965784473706,-0.43855221681482753,-0.4703057841103835,-0.27914212286475726,undefined,1495395666948
903d185fccf839df,0.2577173550592413,-0.6362145749652671,1.3521787288352471,1.418711517766716,-0.3370943483927562,-1.9015710076863017,1.9684616263426222,-0.35033967700660357,-0.08805811060662848,1.2795241080412936,0.19388412260287233,0.05807209379669305,-0.8391753008021391,-0.4438132313299486,-0.7770743658420125,0.07996734596890628,-0.8434592447555356,-0.44936277689314236,-0.7494305269439722,0.46132239383214824,-0.4699936865312638,-0.44142180962008426,-0.4357071212385932,-0.3003373813631635,undefined,1495395668472
903d185fccf839df,0.26464742155032006,-0.6156690646450147,1.4823334426607448,1.6246329843917886,-0.30004527007282095,-1.8825993540561554,1.9712386982764716,-0.2905415088916865,-0.1450332062613107,1.3087619505000132,0.15256320937231438,-0.041910215071670386,-0.9131573083778967,-0.45121997355503063,-0.7697059404119672,0.2274716568373041,-0.7943927756400541,-0.4235180352793622,-0.7760324023558784,0.6485674897320277,-0.4312487031032174,-0.4227122012173659,-0.43663942024209657,-0.25303656988302076,undefined,1495395669939
903d185fccf839df,0.15099433109662835,-0.5229206072578585,1.5997271778448452,1.8145763279446725,-0.31219267511242865,-1.8471203819708077,1.9559174412993126,-0.30401226600956227,-0.2431991532052901,1.2117397847185725,0.008376068021277744,-0.02109039839055212,-0.8957497771836007,-0.42992577906299756,-0.7349690440143992,0.29415183761955566,-0.7417230391722918,-0.4345500225729558,-0.7494795053786245,0.7396338967744817,-0.4060993180506111,-0.4635411425253884,-0.47535224742988347,-0.2690044801258675,undefined,1495395671447
903d185fccf839df,0.07753548826955456,-0.5522713571639278,1.635456291564281,1.7751641173269423,-0.40592622766880593,-1.8360122412521156,1.97871523738003,-0.16459699841562764,-0.3159060863850919,0.8072189283100633,-0.08512288520292724,0.017266588999881108,-0.843527183600713,-0.4215932377686444,-0.723390083456699,0.2294924431035297,-0.6764280937341585,-0.44272585195799224,-0.7732616656769085,0.8043073688874178,-0.4043335582027211,-0.4264498801759498,-0.45053747852019355,-0.2674443881090419,undefined,1495395672951
903d185fccf839df,-0.13036667898985696,-0.5651857163505908,1.350265077606089,1.5555264943599922,-0.6472286790789887,-1.8319081226608322,1.9555834709247344,-0.3730227830004616,-0.34361356472271454,0.3078185450221658,-0.018074284574402702,0.0968402503385982,-0.7869527072192514,-0.41140903358187614,-0.7823375237082304,0.2598014671542032,-0.8135482496886831,-0.49727149535860593,-0.8253739129579419,0.6910056072263296,-0.46644311975557357,-0.4150963594412877,-0.501832411286855,-0.3104093887603413,undefined,1495395674488
903d185fccf839df,-0.2523359527490724,-0.5804481355297392,1.2871016260594477,1.2191187762147444,-0.7988604258963725,-1.8352016667925666,1.8922893009292012,-0.8728848847566782,-0.3284002704063379,0.3302417986912164,0.01130487814269469,0.10305385397959484,-0.5650066844919787,-0.3975215942656996,-0.8233902227972807,0.2800074926095594,-0.7657686090121544,-0.49389603564771617,-0.8287953536295637,0.6159535859250787,-0.47582030620225124,-0.4262139940706431,-0.5292247975408165,-0.33292983188458475,undefined,1495395676013
903d185fccf839df,0.015164855344435964,-0.6162560796431361,1.3751473721871845,1.1963708503572745,-0.6604252272130402,-1.8610236120994188,1.8618677087974613,-1.0833248534211675,-0.28657789377655435,0.7644245161294143,0.08005355006156828,-0.01922438732419041,-0.6607481060606061,-0.41881573695463453,-0.784442783909824,0.215348126358255,-0.7985553832707293,-0.49060923811722634,-0.8074830674422883,0.5009425971156238,-0.4828432555558032,-0.38315886166947233,-0.6296700028919114,-0.3924401628226264,undefined,1495395677452
903d185fccf839df,0.12327396161608412,-0.6555861137452614,1.4172560857479959,1.4784484502071567,-0.5430551421460754,-1.8866219503883526,1.885196715750139,-0.9110925664394278,-0.22188392287851777,0.7504471884112656,0.1049111067272441,-0.02060381665819091,-0.8174158868092692,-0.4280740643674843,-0.7791796186813723,0.14260620860120043,-0.7982816568764267,-0.5212036885188703,-0.8077699359664189,0.41851471850702915,-0.5093571758521891,-0.41770694328266494,-0.6583645495246297,-0.44458327075925524,undefined,1495395678949
903d185fccf839df,0.033183062726650475,-0.7007863270565929,1.4395865912199313,1.5681396835307915,-0.3734954230280254,-1.9018481863377792,1.8665855824963724,-1.0342300911158095,-0.13123687176174909,1.0602117214831057,0.22357855767361973,-0.030284740596760222,-0.9044535427807487,-0.404002407913765,-0.8054954742725658,0.11633822005326895,-0.7605711132211956,-0.5097917240731134,-0.8290892193438286,0.30421205993820366,-0.5336545410279545,-0.401552588197839,-0.6114244794890689,-0.4827739202392236,undefined,1495395680460
903d185fccf839df,-0.08185611003607643,-0.5939494512585387,1.5231661345985013,1.580415563462459,-0.6045018940813205,-1.8500668703162073,1.8805130384001905,-0.9144897276677859,-0.20880962874841263,0.6389386115320068,0.2619428763245408,-0.02821364257856919,-0.673803754456328,-0.3660431955868983,-0.738126919592322,0.015307923188158802,-0.7135765206488294,-0.46603741617279226,-0.7716663921119152,0.2328556630131472,-0.5088611661987481,-0.41552877726577003,-0.6644653654346205,-0.4628119917484187,undefined,1495395681951
903d185fccf839df,-0.06383797166468139,-0.5352479514464,1.6175919888415125,1.5881311199798127,-0.6942034621568998,-1.7812774494673942,1.8379364752803253,-1.1346913864103754,-0.15685919803603804,0.31649030898964053,0.3417967374268164,0.03479800060652198,-0.8913978943850268,-0.34845239163356806,-0.6686531930572901,0.08602922426731698,-0.6791323588105548,-0.42900869420871146,-0.7640888458040156,0.2775419522906121,-0.48197965429397843,-0.39450460667065385,-0.625705086614132,-0.4482040009662465,undefined,1495395683444
903d185fccf839df,0.0733774483749073,-0.5229205488018738,1.6692704833698115,1.7080872737241968,-0.745055951339876,-1.777657811596901,1.8572865911637901,-0.9872499084165229,-0.06125257989009682,-0.07255450748068723,0.3541764809553122,0.08425760934312268,-0.6259330436720143,-0.3632657336252121,-0.7012847850798618,-0.0655163764863167,-0.7079238255868247,-0.4314532095712449,-0.7501581952323272,0.22594176061735752,-0.4882712399825017,-0.3923508858868387,-0.6281826156261512,-0.5080519981071665,undefined,1495395684958
903d185fccf839df,0.0803075493713958,-0.3967122949777832,1.4995596075035111,1.5008188436077115,-0.5718551003874891,-1.7858916723797165,1.952517116419797,-0.33393433461429306,0.036555553927509074,-0.006308487248393477,0.40806659726343525,0.14177522241464788,-0.23861547459893048,-0.3928924046577256,-0.6991795175160344,0.08602919600259544,-0.7124344202278904,-0.4733266330388172,-0.7440219927051874,0.3036731145225937,-0.49751011817717944,-0.39165571200746396,-0.5863268287264789,-0.450818791467631,undefined,1495395686444
903d185fccf839df,0.2965258654309213,-0.6426717545585986,1.5193380697293366,1.6314824251500253,-0.45647014651677836,-1.87497808370907,1.9427395055706786,-0.5153031512337343,0.04051978631113932,0.5681040438100806,0.36295038754525133,0.06205111872078885,-0.8000083556149733,-0.41511242412057897,-0.7065479797572486,0.009246073154469642,-0.7394565057848467,-0.44725390323798464,-0.7380747026770279,0.2484542893002956,-0.498556718015123,-0.3999041290991938,-0.5747160530224397,-0.4215488909650603,undefined,1495395687959
903d185fccf839df,0.3270180889808484,-0.5786871051493712,1.375147118050235,1.4432052179445491,-0.40483594453892535,-1.9092202299323713,1.960864123612388,-0.42798617649615595,-0.12518733386937606,0.4737020738516102,0.26582318448416337,0.04809009848846633,-0.9523242535650625,-0.4391840676235237,-0.6518110451844369,0.07794678582045296,-0.6692855481372362,-0.44534135417543563,-0.7563153878923609,0.25384374316022484,-0.5044536853589631,-0.38667222122899075,-0.5849267698004448,-0.3944400518780208,undefined,1495395689473
903d185fccf839df,0.2646474905611395,-0.506484128854475,1.484885231769905,1.5955277130909018,-0.41366107068943425,-1.8880357998847177,1.9128938304460201,-0.7152590351991365,-0.1548725621241676,0.6943560931269399,0.24070462217922053,0.04251825848494868,-0.9349167223707665,-0.5558391277134864,-0.7128637750864971,0.12037962299739094,-0.7130719315836743,-0.49584657985868325,-0.7477862761616217,0.2649614227379407,-0.5266894614990225,-0.3964475561465812,-0.5353567124857092,-0.3627874546740349,undefined,1495395690960
903d185fccf839df,0.10664183654290482,-0.5129413522897949,1.3528168667152494,1.398528730035425,-0.33680634277008903,-1.8950421515390161,1.9096959810540524,-0.7228065304095813,-0.21524850748646449,0.47323263642548014,0.19374036121017257,-0.03323972022672358,-0.8739903631907309,-0.5521358019286563,-0.7254953657449941,0.06582317054723925,-0.7624056848040376,-0.5059286271841544,-0.7698402251949157,0.27575573304963685,-0.5398912148189929,-0.4245171688110942,-0.5363826128625462,-0.33893346746712444,undefined,1495395692506
903d185fccf839df,0.3977048362006712,-0.5370089379847794,1.482971072266848,1.4970786972371064,-0.23545108650163146,-1.8826832074272706,1.82171055857902,-1.2586481779153464,-0.2155994933226568,0.5887541371377862,0.16760197116551084,-0.06916519858813229,-0.7477857620320856,-0.5243607937885578,-0.7444427738194409,0.11431768816953718,-0.7487197624908166,-0.47754437358886365,-0.7919151639267924,0.3997132202384745,-0.5140158591894397,-0.42286043498120873,-0.45999633590360367,-0.3112627822840499,undefined,1495395693949
903d185fccf839df,0.5557105592297253,-0.5505103413975561,1.7407279483978348,1.613953292222165,0.010315357675312272,-1.891918641570735,1.7864132987791796,-1.4152659308667168,-0.18507014731098143,1.3398932244988326,0.14070736474092108,-0.026627466751373688,-0.7216744652406417,-0.521583292974548,-0.8128638923403774,0.1325031252117185,-0.7303670708859623,-0.4699828377030411,-0.8403191015410599,0.4319575659857469,-0.518995404543295,-0.42727715677317657,-0.4602372032808218,-0.3539741259983587,undefined,1495395695461
903d185fccf839df,0.6721358143014875,-0.6450198437790764,1.5927094401234674,1.5909608887771165,-0.024152015623252802,-1.9100680729551205,1.822833488848084,-1.1979742588433673,-0.17585837187978134,1.6681247871860683,0.1477523895620007,0.024668267074058395,-0.7521376448306596,-0.446590745094733,-0.8497060268528376,0.08400849453053444,-0.7408786650414398,-0.45733594987137266,-0.8370865752402393,0.532724992070809,-0.4927128511107381,-0.39488956683710397,-0.43327354275103447,-0.3915323721827769,undefined,1495395696958
903d185fccf839df,0.6901539871782923,-0.6591082037339897,1.3285724558772063,1.3848865260666208,-0.011798893394029657,-1.9028404434994701,1.8752507775764338,-0.814273780583139,-0.25699952232494644,1.413719758694884,0.07190597618707262,0.003179268826426235,-0.7521376448306596,-0.4327032539754583,-0.9244429848764253,0.1971626327866306,-0.8153789638500061,-0.45289022215855695,-0.845412780061144,0.5841404025333315,-0.4823096713086487,-0.38640810127144665,-0.4608094812267317,-0.4142245270799497,undefined,1495395698447
903d185fccf839df,0.25910350637909596,-0.6227132592364676,1.106544439328706,1.2371653677070615,-0.0717130765045521,-1.9349699688058017,1.9636332993269547,-0.32317253446458954,-0.17602466419088614,1.1369231820736865,0.1613356523483295,0.04032501442938326,-0.8783422459893049,-0.4623299250079718,-0.927600867816582,0.15270929199068237,-0.8351482506986578,-0.42360669043926985,-0.8478686604831117,0.7380324645734189,-0.4476419721433737,-0.3570074644797723,-0.4564858617763439,-0.41560643125781943,undefined,1495395699951
903d185fccf839df,0.3367203200899976,-0.5299647872353151,1.0350874825745817,1.137696747962505,-0.13443525680507074,-1.8945879476504126,2.010583230844472,0.01500473870489753,-0.2554793010185202,0.9609326911192687,0.07436556777713259,-0.017078446832941886,-0.9262129567736186,-0.466033276694351,-0.9612851120266518,0.26384267224527447,-0.811829235901682,-0.4203578886662313,-0.8325456434581275,0.7280388752154167,-0.442020059923622,-0.35621688067804286,-0.451958754631866,-0.4434228959810051,undefined,1495395701480
903d185fccf839df,0.672135883312307,-0.525268667250344,0.9948924202429285,1.0677420288041561,-0.11187871669601529,-1.8997774933182128,1.9848768805131358,-0.15519851279775132,-0.24925959523720043,1.2432020981988319,0.10218494618215802,0.0007083030432713443,-0.9262129567736186,-0.45029405792878857,-0.9560219541604339,0.30627550942221243,-0.8723283774373157,-0.44539201620780833,-0.8087984674038559,0.6291192574682314,-0.46580468677868636,-0.35511445126374275,-0.464830019651199,-0.4285422479768268,undefined,1495395702950
903d185fccf839df,0.6707498700140913,-0.48006845393901254,1.2322329504050369,1.285241432736179,-0.20564313172290935,-1.868588979009598,1.8891414209456079,-0.7592564277227547,-0.29196080205798564,1.6091903168108637,0.032613375904723484,-0.014404352001326512,-0.8696384803921569,-0.4771432410980668,-0.9181271527360079,0.41942939329581475,-0.8701407020935409,-0.4321688292557473,-0.7966240172124849,0.6308438833582155,-0.4565821582353312,-0.35539749940756066,-0.4947443145775592,-0.38076943285319176,undefined,1495395704454
903d185fccf839df,0.8883541648664227,-0.4812424985492515,1.2634950989644576,1.424197467801943,0.034445613342272315,-1.8635322004134798,1.8439534645576257,-0.918973818272041,-0.32167753492298407,1.6002257114749263,0.02197691769480759,0.060881286868925084,-0.6346368092691622,-0.5012149234533352,-0.9286534979173788,0.522480504691872,-0.8587911918341913,-0.4187936527738354,-0.8033829369475494,0.7916036554329243,-0.4219825133948653,-0.3740107448467269,-0.4293233299628532,-0.3510101097115916,undefined,1495395705958
903d185fccf839df,1.0366575877755082,-0.43839033061640936,1.5639988265362577,1.7124627105458017,0.08161581979664642,-1.859905573962318,1.8237854782256844,-1.002746217637618,-0.3331160159950848,1.9903941282258042,-0.02374158096747334,-0.09251958484822384,-0.673803754456328,-0.47899490399048184,-0.9612850825777166,0.5689544904304382,-0.8644979510677151,-0.4318268516481146,-0.7961132505629058,0.8162873629044421,-0.420334915052552,-0.36760944747192376,-0.4164949805979735,-0.3611507709329843,undefined,1495395707449
903d185fccf839df,0.6652058168212283,-0.4401513756107735,1.3087945019252798,1.464496055346767,0.16454939453169168,-1.8663249577976155,1.8626934607999153,-0.7592012215011429,-0.3617019359634168,1.6917177083133612,-0.022258797406882202,-0.039548280038289745,-0.45185773172905525,-0.48454995742159973,-0.9676009220803679,0.704335270819787,-0.7968688257778389,-0.48308569850376504,-0.7952036657973462,0.835227448124375,-0.4328576577366158,-0.4003426481714994,-0.4537593005571344,-0.3682415223142023,undefined,1495395708954
903d185fccf839df,0.2798936368415128,-0.4947438435060434,1.5340124454629425,1.5405956676792718,-0.09827075039095443,-1.8727094022794835,1.922127079834577,-0.546148021717657,-0.3056609217053512,1.5242391557578234,0.048207870988406544,-0.14544568524878423,-0.22555982620320855,-0.5067699380321294,-0.919179804923506,0.6740260771807842,-0.8518781750896872,-0.503788092204586,-0.8111074167793412,0.983144914381363,-0.4090775260122213,-0.41821544830987634,-0.4385671597540995,-0.40372721910753445,undefined,1495395710487
903d185fccf839df,0.34919430175230043,-0.5082452030768315,1.4121519992557763,1.4965199197951229,-0.07894392959869909,-1.866166570525647,1.9564092365449717,-0.3319044117210956,-0.25887436041257533,1.4823079631030205,0.11926154003903178,-0.14238035553646827,-0.7695451760249554,-0.46973661542995565,-0.9307587581189725,0.6134078029616649,-0.8402274623949558,-0.5245791466296637,-0.8254088979054163,1.0201473776444936,-0.41507480953744846,-0.41573094883141026,-0.37333789328710165,-0.4278332101246782,undefined,1495395712004
903d185fccf839df,0.31731613391497704,-0.4947438435060434,1.4612792129488137,1.45783968913343,-0.28154130517967835,-1.879364040638035,1.9713254880759024,-0.3079941969473428,-0.22848918029094642,0.936322838517568,0.1678489812439376,-0.1055830808765496,-0.6172292780748664,-0.44288743226067745,-0.9223377025881303,0.6558406684033244,-0.7581672606480687,-0.5397465469972408,-0.8591405220591571,1.0971396047682274,-0.415409867511222,-0.4206991507975633,-0.3611540509147414,-0.4438804163865188,undefined,1495395713453
903d185fccf839df,0.5862029898121108,-0.4084525949402109,1.4019438262713373,1.3084315615226734,-0.13613240441239674,-1.8259429400621223,1.9418479927688068,-0.32136874630763007,-0.1857603780345246,0.7852856727677217,0.05467718799600334,-0.00593159922109764,-0.673803754456328,-0.4188157045776981,-0.8791797653841877,0.6295726798553929,-0.7245936380876492,-0.5289552106775216,-0.8603369765844936,0.9314985268602017,-0.44509252878253863,-0.3984465381226822,-0.39114111666559515,-0.40282306284521635,undefined,1495395714950
903d185fccf839df,0.4933399608100165,-0.49591788811628235,1.2379746665033597,1.3110692890860924,-0.20088086324650822,-1.8298141364875498,1.8920920640981453,-0.6437785082688354,-0.22183262858280797,0.6855544644538419,0.015016200397580353,0.0917977049597165,-0.504080325311943,-0.4438132960838213,-0.880232380760517,0.44367676516584986,-0.6806666767143013,-0.5418870820211026,-0.8643391507788146,0.7617922593543565,-0.4891405238890358,-0.38703981934770026,-0.31970464648453595,-0.4154428984381121,undefined,1495395716564
903d185fccf839df,0.42126720029197795,-0.42899809064646716,1.1977803665825548,1.2449415152828565,-0.1702294904009995,-1.8015604640981078,1.8438324962171022,-0.9046787828329039,-0.28656144653139437,0.6993437963421182,0.13499530788252842,0.14198449516442643,0.16610962566844922,-0.47066242745000136,-0.8623376395980359,0.42953258974418285,-0.6672210503580472,-0.5457185127023114,-0.871965674652744,0.7281158613038349,-0.4962898367772674,-0.38631266036236656,-0.3599052405674043,-0.43264073901790123,undefined,1495395717950
903d185fccf839df,0.4933399608100165,-0.5293777722371937,1.2475452098816955,1.230232051615836,-0.26700761411402285,-1.8188247851500674,1.8846181673683113,-0.7043601367441995,-0.250077183495902,0.5318356579782655,0.08901274319461129,0.10460087323167881,-0.44315396613190733,-0.503992450168894,-0.8570744596451167,0.5628927251909136,-0.5931446493060847,-0.529050205469399,-0.8775701204830495,0.6430702487060094,-0.5136110649557862,-0.3739554713818804,-0.3143693031471554,-0.42269364737784726,undefined,1495395719454
903d185fccf839df,0.08446555476063332,-0.5217465772616158,1.2386130585203112,1.172314135069864,-0.3100943950531373,-1.8555405818616053,1.9125545967981885,-0.619994425460055,-0.3334276810722842,0.6766044380581742,0.20473002781626384,0.017902291692301595,-0.7216744652406417,-0.5252866446609272,-0.9065481995405416,0.39114098592303764,-0.6305301125826657,-0.5651796476706304,-0.9011143894378579,0.5239016819011874,-0.5561257847996245,-0.3617317166463611,-0.43518708609946893,-0.4178320896294031,undefined,1495395720943
903d185fccf839df,0.01655097215888092,-0.4982659334947717,1.0484855825481834,1.1190339244466831,-0.4185159210359417,-1.8863540874053393,1.9466500317012945,-0.483448135721084,-0.36903307361485105,0.5069674844931819,0.0545369204455393,-0.021915507028658632,-0.7738970588235294,-0.5456550271329146,-0.8823376409621106,0.40528533093303387,-0.6552164483911183,-0.5832222039472967,-0.8948172603094909,0.5164026392515544,-0.5623699214799842,-0.38960039748464287,-0.41185263343290857,-0.4425411547947177,undefined,1495395722450
903d185fccf839df,0.1939607433413167,-0.46539309359997405,1.135893190795918,1.144951749838407,-0.37772284713752,-1.8727117329720098,1.9636122713744633,-0.35916365977080683,-0.24534400681697793,0.7836123052047286,0.09310717033246031,-0.03890073183535473,-0.8739903631907309,-0.5947241909127224,-0.8960218985325733,0.44367682169529293,-0.7239079970224476,-0.6436574858814349,-0.9252184031098738,0.4429366551926583,-0.6045310488258413,-0.4248357978582731,-0.4928264853975772,-0.4923196414553677,undefined,1495395723965
903d185fccf839df,0.1329760892090041,-0.5475752225649606,1.5557043047809769,1.6113433520314873,-0.45352843694772027,-1.9101915218322634,1.9193999631675585,-0.7122208900968695,-0.2867263307129393,0.6982285462908503,0.02279922703755278,-0.005747630496792505,-0.9436204879679144,-0.5817625118134935,-0.9370745681726885,0.43155303683375,-0.7143454718887916,-0.6391230969515991,-0.9445925735468153,0.5058855033811072,-0.5931885736726581,-0.45518234003062075,-0.5743713947533141,-0.5041148353103697,undefined,1495395725457
903d185fccf839df,0.12881811832517634,-0.5892533897295523,2.180955916625671,2.177106182995386,-0.38024284136554204,-1.8757280993922965,1.859201072372497,-1.0465771532413128,-0.1494961270254145,1.3032642084063693,0.0880347159250346,-0.02171952847730029,-0.9827874331550802,-0.5752816852146535,-0.9212850724873335,0.28808995932114495,-0.817642959020132,-0.6093709263205351,-0.9286398445950647,0.4792615916891211,-0.5829308366095709,-0.45103766397746897,-0.5444817142911685,-0.4683298856016558,undefined,1495395726954
903d185fccf839df,0.1329760892090041,-0.5487492671751996,2.1509695355523557,2.1644752863000445,-0.39863366618993845,-1.8928689711725273,1.8790718882942417,-0.92637777699682,-0.2924749953393386,1.2344844677100104,0.16801825135077147,-0.00009544090365450311,-0.8739903631907309,-0.5484324761438262,-0.9170745447219124,0.4416561484879535,-0.7628796061219995,-0.5796060913911396,-0.9229374434430708,0.5158636947783061,-0.5599534813499291,-0.4679662151851701,-0.5862161313352052,-0.4517164633536495,undefined,1495395728440
903d185fccf839df,0.1537662886822404,-0.5387700268211322,2.0463355083249053,2.2239124098780203,-0.18309688477883732,-1.895629119465838,1.9454771236436816,-0.4354380081618541,-0.2372919752324554,1.7480528825139718,0.22232696836749563,-0.07015631806407152,-0.7738970588235294,-0.5419516495449863,-0.8486534041142746,0.4254913281236685,-0.7131620203994462,-0.5385559497932749,-0.8706502755230969,0.47952336345775837,-0.5299433987229716,-0.48095268734362223,-0.6463254498455648,-0.35843136196085296,undefined,1495395729952
903d185fccf839df,0.066447450894648,-0.5599025813674983,1.9806205218060529,2.001173499305053,-0.26449789460217915,-1.8974039986870461,1.9210094149338106,-0.6332757571503844,-0.3042207339289231,1.298294971413593,0.127663957132795,-0.07755823036001572,-0.7608414104278075,-0.47899496874435454,-0.8644428924373958,0.30627550942221243,-0.7889906294896097,-0.5222739513107936,-0.8401651694812798,0.3682387966827422,-0.5341730550757777,-0.48802443192950606,-0.66174770991867,-0.35166955267709726,undefined,1495395731523
903d185fccf839df,0.11634392963041508,-0.6690874733160495,1.8326015052577869,1.6910965893729832,-0.29188870785815296,-1.933605034437943,1.9186189235853561,-0.7036939381443854,-0.26514342487457504,1.2014932760256312,0.09648163002540988,0.04642641777689533,-0.7390819964349377,-0.5039924760704432,-0.8160217973672353,0.10825586640056956,-0.7994838371529436,-0.5041680663558765,-0.8165229450518569,0.27698760705640035,-0.5430877146574533,-0.4722651391026587,-0.6269931006589412,-0.34365648044980124,undefined,1495395732955
903d185fccf839df,-0.059679897264624394,-0.6896329836363019,1.7802846187125363,1.7726157915209053,-0.5143580475167763,-1.9546660157067608,1.9200863607269625,-0.7958569798222556,-0.2506020108120443,0.8864485990481052,0.09622970608475241,0.012572222940851733,-0.49537655971479505,-0.4799207548628512,-0.7991796347699146,-0.05339278947782452,-0.7960893041692352,-0.5343128782436521,-0.8045793882614286,0.3015481256315794,-0.549287846570098,-0.47247381266767774,-0.6085198131722148,-0.3409199501610248,undefined,1495395734487
903d185fccf839df,-0.15808694495417203,-0.7266150162019263,1.5078536209848932,1.6202397639311594,-0.6175338729512485,-1.9725173046810114,1.8879606512369318,-1.0519658338202953,-0.2794427081240165,0.8316297414254474,0.13189496362598166,-0.06162513204373924,-0.43445020053475936,-0.5438033383389504,-0.8233901933483455,-0.057433966304174223,-0.7717102318865042,-0.5849700942927872,-0.8041455863785665,0.2898299104509049,-0.5767521272860349,-0.46745311075746176,-0.631291806480194,-0.3386141664256873,undefined,1495395735939
903d185fccf839df,-0.14284083317920848,-0.7500955868987894,1.48616125339296,1.6227357232960522,-0.5629991116344292,-1.9676864631638196,1.9012385414951414,-0.9450144107115347,-0.2137950428336296,0.72297947194384,0.07224787936816666,-0.09398914091735663,-0.14287405303030304,-0.5743558731946078,-0.8149691230930358,-0.1483612928386886,-0.7983686397625053,-0.6040575877157565,-0.8146757876165884,0.27350756175111707,-0.5908571871601451,-0.4762238669356579,-0.6182522178082219,-0.3597767772937494,undefined,1495395737466
903d185fccf839df,-0.19135136762757926,-0.7078305070340496,1.3713193073180199,1.461845186986437,-0.5252917416381915,-1.9406346794430243,1.8781172753983084,-1.0382781588540348,-0.23389500532706073,0.5663043588696738,0.05297705403552119,-0.1980951177187105,-0.7173225824420678,-0.5947241585357861,-0.9065482142650091,-0.09582548533115481,-0.8841668386371428,-0.6572099844375038,-0.849400960168815,0.27929737826205636,-0.6260371547755457,-0.4677992057705925,-0.5784050180883259,-0.4903266183109836,undefined,1495395738961
903d185fccf839df,-0.09710232532726917,-0.5792740909195002,1.379613320799402,1.4676623946190488,-0.4766301113318173,-1.9125929686075016,1.9170962569046877,-0.7302056380621984,-0.2440983562824733,0.5957263503364263,0.061856537557309146,0.03362788269621478,-0.6868594028520499,-0.6215733676066134,-0.9644430170535099,-0.2413092925805424,-0.9026753958538375,-0.6622320084857689,-0.885182652270608,0.29254004203244044,-0.636295176651927,-0.4776492877119665,-0.5634989492963127,-0.5009973095835341,undefined,1495395740464
903d185fccf839df,-0.009783349518037844,-0.4466085405901088,1.274979547708901,1.3627361297807983,-0.47288611683361265,-1.871467920078192,1.8960683222213297,-0.8256650384371171,-0.23532520037352758,0.7221489327977612,0.07354203081554697,-0.004331656338996957,-0.4866727941176471,-0.6641617242137432,-0.9707588344694597,-0.10188733536484398,-0.9151024110488859,-0.6863478574832943,-0.9089928010174597,0.26493063097618813,-0.6552881653033631,-0.49245379355169644,-0.5693038679021188,-0.516280528982561,undefined,1495395741944
903d185fccf839df,-0.16640305924887627,-0.4207798952867639,1.2194724800375385,1.1778823801469083,-0.6089350337880162,-1.8547882379652656,1.8593588668654468,-1.083892133599264,-0.271854462963929,0.6946207586972318,0.030501015491491597,0.0002740679986833823,-0.4866727941176471,-0.607685857061177,-0.9612850973021843,-0.12411400576281809,-0.9192315837528244,-0.690457938007435,-0.9448794440528736,0.19172642047641647,-0.6743162410004511,-0.5130434716054433,-0.5887298482037867,-0.5507834436166176,undefined,1495395743458
903d185fccf839df,-0.2079834236899391,-0.6021677196882228,1.080386377261505,1.1715703642055808,-0.6572983835554924,-1.8563534863336881,1.896397057605742,-0.8882697579978883,-0.23993454706154724,0.5003725900379595,0.10348982020713622,-0.07487884430075661,-0.30824559937611407,-0.6697167128909883,-0.9760219702489762,-0.0008569537055692197,-0.8974524105324531,-0.6877981015300504,-0.9768408761191838,0.37208840789622855,-0.6490368551516504,-0.5102758151026549,-0.5575638088434991,-0.5488688816083057,undefined,1495395744955
903d185fccf839df,-0.3188645910634285,-0.6996122678323579,0.9865984067615463,1.0436393329855054,-0.6602195192498277,-1.867182120129349,1.9500109189565518,-0.5713854883156166,-0.23454609493325304,0.3623284155315848,0.16952427265637768,-0.2516875524035509,0.19222092245989306,-0.6919367258784545,-0.9612851267511194,-0.12007285720118992,-0.9156463805277992,-0.7211410507611157,-0.9788489606511612,0.31676179277499245,-0.6733362022383377,-0.5115434376629101,-0.5824125797328662,-0.5331429767716672,undefined,1495395746512
903d185fccf839df,-0.13452468437909448,-0.7324851661831402,1.1314269880467511,1.1743148108716936,-0.5720299518297345,-1.883242225466545,1.9325989750346855,-0.6795436302708402,-0.29472994538065095,0.4088399084775334,0.1538161247021347,-0.17832362840944607,-0.26037488859180036,-0.7039725800068631,-0.9549693166974034,-0.12209347387908631,-0.8961685195165957,-0.7028135116923033,-0.9757003951571845,0.29820666365631293,-0.6742110011576797,-0.4867986652970884,-0.5707350056425796,-0.4996686737194205,undefined,1495395747951
903d185fccf839df,-0.12343657799336848,-0.6485419337678048,0.876222663435773,0.9249774438233817,-0.519778613595023,-1.8259778794608543,1.9585946142222408,-0.41371118829417575,-0.32399299378671825,0.43041577065794084,0.1723449833430705,-0.07258777850623663,-0.9001016599821747,-0.6132408716399712,-0.8886534657402942,-0.09178428024008359,-0.8379328876913443,-0.665221157652348,-0.9274783732983084,0.2655311632001071,-0.6456803828651853,-0.4565289956122453,-0.6136347430510622,-0.485557449759674,undefined,1495395749448
903d185fccf839df,-0.2758981098079207,-0.29691959915718563,0.8321997903719046,0.8465766573118846,-0.511251773600875,-1.679117016538562,1.8572787075147685,-0.7844623996271488,-0.38188588805251245,0.4136315810240328,0.027938249452383976,0.04627304144543907,-0.9349167223707665,-0.5688008262388772,-0.9023376791373543,-0.10390792377801883,-0.8356796205666378,-0.6610920783470051,-0.9219368989555218,0.1746341388017783,-0.6597691957199945,-0.42413149582458237,-0.6044834966923138,-0.5036076326378581,undefined,1495395751011
903d185fccf839df,-0.32995276645997396,-0.2963325549310719,0.823267384873571,0.8081063422436742,-0.5106963442123423,-1.5765419800247036,1.8494629148604647,-0.6774436402773671,-0.379573840703073,0.09899775034639106,0.00954964130214941,0.047865857196635046,-0.6259330436720143,-0.5317674712597671,-0.9539167160455416,0.02136971669240489,-0.7920602682477561,-0.6457410238972903,-0.9436549997332158,0.0871247739632605,-0.6711559370187077,-0.42910371901396216,-0.6225468625567951,-0.478890219611338,undefined,1495395752457
903d185fccf839df,-0.4560800456084269,-0.3250962898390199,0.8321995362349552,0.84632083606758,-0.6173795922549111,-1.5792741768330958,1.818020943795764,-0.9077486628070948,-0.23818357644954807,-0.590731192830323,0.07653232686811107,0.019496525558049087,-0.6825075200534759,-0.5484325020453753,-0.9402324658373127,-0.16048497877370613,-0.7726312229316967,-0.6325305038900871,-0.9177667997280757,-0.2106349651604012,-0.7103017188633354,-0.3962594167140535,-0.6822169438971011,-0.47911057551363806,undefined,1495395753952
903d185fccf839df,-0.3119345935831692,-0.25935055159343984,1.2315948125250347,1.1447371003111968,-0.6546035291189417,-1.698528896181099,1.8456786145822555,-0.8977262104614532,-0.20177298333304602,-0.8291256702143117,0.0691642964337516,-0.038844994364425046,-0.6476924576648841,-0.4910307969712142,-0.938127205635719,-0.21302075801651837,-0.74694268391639,-0.567877482181036,-0.9020519632698084,-0.27235193629960486,-0.6878689913969608,-0.3765176065722553,-0.6603267530506232,-0.4635248113414964,undefined,1495395755471
903d185fccf839df,-0.12343654348795874,-0.47067621396907033,1.7547641862514385,1.825629333109298,-0.724535984157717,-1.8378593275183308,1.9286095506100733,-0.6095944572156523,-0.2590884602313925,-0.972110795340002,0.14564383897734295,-0.1637886529466164,0.07907196969696971,-0.4215932248178698,-0.942337740763374,-0.1948352927096155,-0.7043077051062072,-0.5312160710111472,-0.9047317416275957,-0.28285367333419886,-0.6753010550386368,-0.38729416420348783,-0.6247868962161243,-0.49280384644015796,undefined,1495395759231
903d185fccf839df,-0.05690793967901236,-0.49004773813506847,1.8255835133994596,1.905221318722981,-0.6141395979898722,-1.875197032302916,1.9491983034011542,-0.4838995809830159,-0.29140641935623507,-1.0702428256340983,0.14597752868716782,-0.20406059549528682,-0.17333723262032086,-0.4762174549795702,-0.9686535374566971,-0.13421704675521773,-0.6861782651609042,-0.5386952766802573,-0.9150870222633793,-0.22324629016349815,-0.6720013261638735,-0.4110020495430708,-0.5976007691959239,-0.4559391385751577,undefined,1495395759977
903d185fccf839df,0.09555369565176906,-0.5193984880411379,1.5308222643368306,1.5919195132796666,-0.5993693369706125,-1.8817049274595354,1.891179538009087,-0.8594713238209718,-0.25323324227759914,-0.6818712669515499,0.16072830248590933,-0.19691351307866553,-0.4605614973262032,-0.3734498471565585,-0.9391798357365159,-0.06551640475103823,-0.6831949536585452,-0.4882850440559107,-0.8975810020127025,-0.06288687772424226,-0.6108512818342116,-0.4252200003692418,-0.5868661859253905,-0.43629059310930407,undefined,1495395761459
903d185fccf839df,0.2549455354952682,-0.6168430654132652,2.0686657596598907,2.1118981741115705,-0.408363939705402,-1.895356597782859,1.9974631413643422,-0.14707505511721317,-0.23784938879890313,-0.2589395310912736,0.14202863673346394,-0.1664823080512667,-0.6825075200534759,-0.3743757368812515,-0.8128638776159097,-0.08572251500055902,-0.733070670228207,-0.4587988583936337,-0.8444052389217618,0.15221400597450724,-0.5449402114831453,-0.4601723406378365,-0.621981435024037,-0.417197139235162,undefined,1495395762944
903d185fccf839df,0.1509942620858089,-0.607450825443323,2.033575037957407,2.155538758631957,-0.339634910754006,-1.8911080649022296,1.9786652826369606,-0.2906424440190441,-0.15648252050788045,0.3290050080016061,0.25509519609174586,-0.21083999558812214,-0.35611631016042783,-0.3169740059055413,-0.7802322855933381,0.04157579867720415,-0.8112282687221413,-0.4228847349984638,-0.8227291181957584,0.37995701385583874,-0.48464710892535595,-0.5086964187912613,-0.5750687719430637,-0.4443635236243038,undefined,1495395764463
903d185fccf839df,0.060903397701784996,-0.5845572405165889,2.239015027543143,2.1482147240364395,-0.35402460026465504,-1.8863797099142476,1.8533892135267316,-1.104062260409155,-0.23672368506960223,0.9032466408639047,0.14037709011889907,-0.18417686027546987,-0.1124108734402852,-0.21050312410079772,-0.7665480648340444,0.015307923188158802,-0.8075431869835573,-0.3442042432709927,-0.8157323071845058,0.5816304542697226,-0.4027687935475382,-0.5478153818655027,-0.6726369701242074,-0.4585908899123739,undefined,1495395765955
903d185fccf839df,0.30345600093281955,-0.5704688221056908,2.303453738301991,2.1840215745702647,-0.25813104933968084,-1.8782995792382884,1.8618598246246794,-1.0098034279710242,-0.28386902889864535,1.2880339378151162,0.15093030794053017,-0.1258351147288834,-0.3430606617647059,-0.20772559738523877,-0.7770743732042463,0.2294922735152005,-0.7907568815836393,-0.3284858770692425,-0.8307334694594194,0.7309799791303205,-0.3713271625666142,-0.5470637019066558,-0.6538805242389469,-0.42857795558181694,undefined,1495395767450
903d185fccf839df,-0.00146726972874333,-0.5933624654884097,1.1205809313192592,1.1879263708516397,-0.5083306285661071,-1.9449880286289174,1.8289583189227856,-1.3555594335610788,-0.23735122807518438,0.875005883608467,0.07474104909050239,-0.007272595783781578,-0.9131573083778967,-0.3410457271131333,-0.7960217665542255,0.4275118600074003,-0.7761283353099594,-0.39992148340015027,-0.8512411225916228,0.9111263847732971,-0.3722227579394533,-0.5214527679155905,-0.7579256593278245,-0.4697575740409309,undefined,1495395768942
903d185fccf839df,0.02348096963914021,-0.2887013599554939,0.39133419253796536,0.22611995834540943,-0.5193157538434101,-1.850048238145257,1.9062272760468735,-0.7278450453327336,-0.29999526393196724,0.5698664011656696,0.06464998845873482,0.07215964190045189,-0.7869527072192514,-0.3141965374684678,-0.864442921886331,0.6558406118738813,-0.7658759925488342,-0.49334506944258644,-0.9196769290912915,1.0077978222560644,-0.405138650164201,-0.4798069881903388,-0.7756082583453043,-0.4473749766923573,undefined,1495395770447
903d185fccf839df,-0.17471910453276104,-0.3280313648296268,0.2930802734257894,0.21822910993347291,-0.7205039882839511,-1.8381621295806925,1.8651549589369312,-1.0473843015352433,-0.20741173558240494,0.14941948245932976,0.10689796865703889,0.24813340412810686,-0.13417028743315507,-0.46788496548831515,-0.9212850798495673,0.722520538273639,-0.7254188312911068,-0.5606832587393319,-0.9505048780035601,0.9891657032391329,-0.4485701099409068,-0.4601425345446208,-0.7739501773874109,-0.4247586984976375,undefined,1495395771939
903d185fccf839df,-0.25372196604728814,-0.33624963325931095,0.09210623245227062,0.011243099132683912,-0.6141498794838157,-1.78046687275268,1.9326121120055035,-0.49669572515981725,-0.3294760777401875,-0.010093025050101173,0.05752087826708334,0.1491835788073059,0.17481339126559717,-0.5947241714865606,-0.9654956471543067,1.0700652501651837,-0.5186606035097298,-0.647191268431273,-0.966373644992342,1.371385915231807,-0.4059086490596057,-0.4502949043083602,-0.7024447061653731,-0.36564467240980975,undefined,1495395773504
903d185fccf839df,-0.17194711244173927,-0.4724373174194192,0.2650077977185818,0.29049436972204973,-0.18063860579332228,-1.7354333615687338,1.8929204521891934,-0.33008493774747494,-0.11513027828847508,0.839272953963803,-0.05863740018901799,0.04778695470819826,-0.3822276069518717,-0.6512000515899015,-0.9591798518250582,1.5186401741276743,-0.4226611921448654,-0.6566210199225199,-0.9021639111855837,1.4962519064613482,-0.363780750636035,-0.2759670292015262,-0.49257799762208604,0.2718052423823921,undefined,1495395774942
